usingWebGL,participant,session,date,expName,psychopyVersion,OS,frameRate,study_id,signatures_friend,signatures_foe,band_ranges_top,band_ranges_bottom,formitemText,formtype,formundefined,formitemWidth,formindex,formresponse,formrt,key_resp_2.keys,key_resp_2.rt,tute_resp.keys,tute_resp.rt,tutorial.thisRepN,tutorial.thisTrialN,tutorial.thisN,tutorial.thisIndex,tutorial.ran,key_resp_4.keys,key_resp_4.rt,key_resp.keys,key_resp.corr,key_resp.rt,lines_presented,is_signal_presented,trials.thisRepN,trials.thisTrialN,trials.thisN,trials.thisIndex,trials.ran,vessel,active_band,lines,is_signal,supported_pos,catch_trial,debrief_formindex,debrief_formitemText,debrief_formtype,debrief_formitemWidth,debrief_formresponse,debrief_formrt,phases.thisRepN,phases.thisTrialN,phases.thisN,phases.thisIndex,phases.ran,phases.order,phase,key_resp_3.keys,trustitemText,trusttype,trustitemWidth,trustindex,trustresponse,trustrt,support_status.thisRepN,support_status.thisTrialN,support_status.thisN,support_status.thisIndex,support_status.ran,support_status.order,key_resp_5.keys,key_resp_5.rt,globalClockTime,userAgent,manualCondition
TRUE,615a0ad2ba1d3d321beadca5,627c6db9dc4071b885002cbf,2022-05-11_21h15.33.517,classification_task,2021.2.3,MacIntel,59.99880002,627c6715c52fd12f31907bd0,,,,,,,,,,,,,,,,,,,,,,,,,,,,,,,,,,,,,,,,,,,,,,,,,,,,,,,,,,,,,,,,,,,,,
,615a0ad2ba1d3d321beadca5,627c6db9dc4071b885002cbf,2022-05-11_21h15.33.517,classification_task,2021.2.3,MacIntel,59.99880002,627c6715c52fd12f31907bd0,"[[""0.316"",""0.415"",""0.875"",""0.909""],[""0.199"",""0.506"",""0.760"",""0.949""]]","[[""0.103"",""0.144"",""0.543"",""0.679""],[""0.058"",""0.352"",""0.471"",""0.808""]]","[1,10]","[100,1000]",Video game experience,,,0.7,0,,,,,,,,,,,,,,,,,,,,,,,,,,,,,,,,,,,,,,,,,,,,,,,,,,,,,,,,,,,,
,615a0ad2ba1d3d321beadca5,627c6db9dc4071b885002cbf,2022-05-11_21h15.33.517,classification_task,2021.2.3,MacIntel,59.99880002,627c6715c52fd12f31907bd0,,,,,Approximately how many hours did you spend playing video games in the last week?,,,0.7,0,0,,,,,,,,,,,,,,,,,,,,,,,,,,,,,,,,,,,,,,,,,,,,,,,,,,,,,,,,,,,
,615a0ad2ba1d3d321beadca5,627c6db9dc4071b885002cbf,2022-05-11_21h15.33.517,classification_task,2021.2.3,MacIntel,59.99880002,627c6715c52fd12f31907bd0,,,,,"Which game did you play the most this year? (Enter ""None"" if you didn't play any)",,,0.7,0,None,,,,,,,,,,,,,,,,,,,,,,,,,,,,,,,,,,,,,,,,,,,,,,,,,,,,,,,,,,,
,615a0ad2ba1d3d321beadca5,627c6db9dc4071b885002cbf,2022-05-11_21h15.33.517,classification_task,2021.2.3,MacIntel,59.99880002,627c6715c52fd12f31907bd0,,,,,Visual perception,,,0.7,0,,,,,,,,,,,,,,,,,,,,,,,,,,,,,,,,,,,,,,,,,,,,,,,,,,,,,,,,,,,,
,615a0ad2ba1d3d321beadca5,627c6db9dc4071b885002cbf,2022-05-11_21h15.33.517,classification_task,2021.2.3,MacIntel,59.99880002,627c6715c52fd12f31907bd0,,,,,Do you have any form of color blindness?,,,0.7,0,No,25.2885,,,,,,,,,,,,,,,,,,,,,,,,,,,,,,,,,,,,,,,,,,,,,,,,,,,,,,,,,,
,615a0ad2ba1d3d321beadca5,627c6db9dc4071b885002cbf,2022-05-11_21h15.33.517,classification_task,2021.2.3,MacIntel,59.99880002,627c6715c52fd12f31907bd0,,,,,Do you use software to change the colour temperature of your screen (e.g. f.lux)?,,,0.7,0,No,29.2866,,,,,,,,,,,,,,,,,,,,,,,,,,,,,,,,,,,,,,,,,,,,,,,,,,,,,,,,,,
,615a0ad2ba1d3d321beadca5,627c6db9dc4071b885002cbf,2022-05-11_21h15.33.517,classification_task,2021.2.3,MacIntel,59.99880002,627c6715c52fd12f31907bd0,,,,,,,,,,,,space,47.4088,space,8.2848,0,0,0,0,1,,,,,,,,,,,,,,,,,,,,,,,,,,,,,,,,,,,,,,,,,,,,,,,,,
,615a0ad2ba1d3d321beadca5,627c6db9dc4071b885002cbf,2022-05-11_21h15.33.517,classification_task,2021.2.3,MacIntel,59.99880002,627c6715c52fd12f31907bd0,,,,,,,,,,,,,,space,12.8348,1,0,1,0,1,,,,,,,,,,,,,,,,,,,,,,,,,,,,,,,,,,,,,,,,,,,,,,,,,
,615a0ad2ba1d3d321beadca5,627c6db9dc4071b885002cbf,2022-05-11_21h15.33.517,classification_task,2021.2.3,MacIntel,59.99880002,627c6715c52fd12f31907bd0,,,,,,,,,,,,,,space,37.9693,2,0,2,0,1,,,,,,,,,,,,,,,,,,,,,,,,,,,,,,,,,,,,,,,,,,,,,,,,,
,615a0ad2ba1d3d321beadca5,627c6db9dc4071b885002cbf,2022-05-11_21h15.33.517,classification_task,2021.2.3,MacIntel,59.99880002,627c6715c52fd12f31907bd0,,,,,,,,,,,,,,space,15.6795,3,0,3,0,1,,,,,,,,,,,,,,,,,,,,,,,,,,,,,,,,,,,,,,,,,,,,,,,,,
,615a0ad2ba1d3d321beadca5,627c6db9dc4071b885002cbf,2022-05-11_21h15.33.517,classification_task,2021.2.3,MacIntel,59.99880002,627c6715c52fd12f31907bd0,,,,,,,,,,,,,,space,19.5692,4,0,4,0,1,,,,,,,,,,,,,,,,,,,,,,,,,,,,,,,,,,,,,,,,,,,,,,,,,
,615a0ad2ba1d3d321beadca5,627c6db9dc4071b885002cbf,2022-05-11_21h15.33.517,classification_task,2021.2.3,MacIntel,59.99880002,627c6715c52fd12f31907bd0,,,,,,,,,,,,,,,,,,,,,space,17.6538,a,1,6.5491,"[""0.199"",""0.506"",""0.760"",""0.617""]","[1,1,1,0]",0,0,0,0,1,0,1,,,1,FALSE,,,,,,,,,,,,,,,,,,,,,,,,,,,,,,,
,615a0ad2ba1d3d321beadca5,627c6db9dc4071b885002cbf,2022-05-11_21h15.33.517,classification_task,2021.2.3,MacIntel,59.99880002,627c6715c52fd12f31907bd0,,,,,,,,,,,,,,,,,,,,,,,a,0,3.5341,"[""0.058"",""0.609"",""0.471"",""0.808""]","[1,0,1,1]",0,1,1,1,1,1,1,,,1,FALSE,,,,,,,,,,,,,,,,,,,,,,,,,,,,,,,
,615a0ad2ba1d3d321beadca5,627c6db9dc4071b885002cbf,2022-05-11_21h15.33.517,classification_task,2021.2.3,MacIntel,59.99880002,627c6715c52fd12f31907bd0,,,,,,,,,,,,,,,,,,,,,,,l,1,8.4897,"[""0.103"",""0.144"",""0.543"",""0.584""]","[1,1,1,0]",0,2,2,2,1,1,0,,,1,FALSE,,,,,,,,,,,,,,,,,,,,,,,,,,,,,,,
,615a0ad2ba1d3d321beadca5,627c6db9dc4071b885002cbf,2022-05-11_21h15.33.517,classification_task,2021.2.3,MacIntel,59.99880002,627c6715c52fd12f31907bd0,,,,,,,,,,,,,,,,,,,,,,,l,1,6.7693,"[""0.103"",""0.717"",""0.543"",""0.679""]","[1,0,1,1]",0,3,3,3,1,1,0,,,1,FALSE,,,,,,,,,,,,,,,,,,,,,,,,,,,,,,,
,615a0ad2ba1d3d321beadca5,627c6db9dc4071b885002cbf,2022-05-11_21h15.33.517,classification_task,2021.2.3,MacIntel,59.99880002,627c6715c52fd12f31907bd0,,,,,,,,,,,,,,,,,,,,,,,a,1,3.8242,"[""0.316"",""0.609"",""0.875"",""0.909""]","[1,0,1,1]",0,4,4,4,1,0,0,,,1,FALSE,,,,,,,,,,,,,,,,,,,,,,,,,,,,,,,
,615a0ad2ba1d3d321beadca5,627c6db9dc4071b885002cbf,2022-05-11_21h15.33.517,classification_task,2021.2.3,MacIntel,59.99880002,627c6715c52fd12f31907bd0,,,,,,,,,,,,,,,,,,,,,,,a,1,3.1559,"[""0.277"",""0.415"",""0.875"",""0.909""]","[0,1,1,1]",0,5,5,5,1,0,0,,,1,FALSE,,,,,,,,,,,,,,,,,,,,,,,,,,,,,,,
,615a0ad2ba1d3d321beadca5,627c6db9dc4071b885002cbf,2022-05-11_21h15.33.517,classification_task,2021.2.3,MacIntel,59.99880002,627c6715c52fd12f31907bd0,,,,,,,,,,,,,,,,,,,,,,,a,1,4.0348,"[""0.199"",""0.506"",""0.633"",""0.949""]","[1,1,0,1]",0,6,6,6,1,0,1,,,1,FALSE,,,,,,,,,,,,,,,,,,,,,,,,,,,,,,,
,615a0ad2ba1d3d321beadca5,627c6db9dc4071b885002cbf,2022-05-11_21h15.33.517,classification_task,2021.2.3,MacIntel,59.99880002,627c6715c52fd12f31907bd0,,,,,,,,,,,,,,,,,,,,,,,l,1,3.2562,"[""0.275"",""0.144"",""0.543"",""0.679""]","[0,1,1,1]",0,7,7,7,1,1,0,,,1,FALSE,,,,,,,,,,,,,,,,,,,,,,,,,,,,,,,
,615a0ad2ba1d3d321beadca5,627c6db9dc4071b885002cbf,2022-05-11_21h15.33.517,classification_task,2021.2.3,MacIntel,59.99880002,627c6715c52fd12f31907bd0,,,,,,,,,,,,,,,,,,,,,,,l,1,2.5358,"[""0.058"",""0.352"",""0.617"",""0.808""]","[1,1,0,1]",0,8,8,8,1,1,1,,,1,FALSE,,,,,,,,,,,,,,,,,,,,,,,,,,,,,,,
,615a0ad2ba1d3d321beadca5,627c6db9dc4071b885002cbf,2022-05-11_21h15.33.517,classification_task,2021.2.3,MacIntel,59.99880002,627c6715c52fd12f31907bd0,,,,,,,,,,,,,,,,,,,,,,,l,1,2.3202,"[""0.103"",""0.144"",""0.269"",""0.679""]","[1,1,0,1]",0,9,9,9,1,1,0,,,1,FALSE,,,,,,,,,,,,,,,,,,,,,,,,,,,,,,,
,615a0ad2ba1d3d321beadca5,627c6db9dc4071b885002cbf,2022-05-11_21h15.33.517,classification_task,2021.2.3,MacIntel,59.99880002,627c6715c52fd12f31907bd0,,,,,,,,,,,,,,,,,,,,,,,l,1,2.467,"[""0.058"",""0.352"",""0.471"",""0.625""]","[1,1,1,0]",0,10,10,10,1,1,1,,,1,FALSE,,,,,,,,,,,,,,,,,,,,,,,,,,,,,,,
,615a0ad2ba1d3d321beadca5,627c6db9dc4071b885002cbf,2022-05-11_21h15.33.517,classification_task,2021.2.3,MacIntel,59.99880002,627c6715c52fd12f31907bd0,,,,,,,,,,,,,,,,,,,,,,,a,1,2.4218,"[""0.316"",""0.415"",""0.875"",""0.275""]","[1,1,1,0]",0,11,11,11,1,0,0,,,1,FALSE,,,,,,,,,,,,,,,,,,,,,,,,,,,,,,,
,615a0ad2ba1d3d321beadca5,627c6db9dc4071b885002cbf,2022-05-11_21h15.33.517,classification_task,2021.2.3,MacIntel,59.99880002,627c6715c52fd12f31907bd0,,,,,,,,,,,,,,,,,,,,,,,a,1,4.9808,"[""0.625"",""0.506"",""0.760"",""0.949""]","[0,1,1,1]",0,12,12,12,1,0,1,,,1,FALSE,,,,,,,,,,,,,,,,,,,,,,,,,,,,,,,
,615a0ad2ba1d3d321beadca5,627c6db9dc4071b885002cbf,2022-05-11_21h15.33.517,classification_task,2021.2.3,MacIntel,59.99880002,627c6715c52fd12f31907bd0,,,,,,,,,,,,,,,,,,,,,,,a,1,5.4331,"[""0.316"",""0.415"",""0.244"",""0.909""]","[1,1,0,1]",0,13,13,13,1,0,0,,,1,FALSE,,,,,,,,,,,,,,,,,,,,,,,,,,,,,,,
,615a0ad2ba1d3d321beadca5,627c6db9dc4071b885002cbf,2022-05-11_21h15.33.517,classification_task,2021.2.3,MacIntel,59.99880002,627c6715c52fd12f31907bd0,,,,,,,,,,,,,,,,,,,,,,,a,1,2.4742,"[""0.199"",""0.609"",""0.760"",""0.949""]","[1,0,1,1]",0,14,14,14,1,0,1,,,1,FALSE,,,,,,,,,,,,,,,,,,,,,,,,,,,,,,,
,615a0ad2ba1d3d321beadca5,627c6db9dc4071b885002cbf,2022-05-11_21h15.33.517,classification_task,2021.2.3,MacIntel,59.99880002,627c6715c52fd12f31907bd0,,,,,,,,,,,,,,,,,,,,,,,a,0,2.5,"[""0.263"",""0.352"",""0.471"",""0.808""]","[0,1,1,1]",0,15,15,15,1,1,1,,,1,FALSE,,,,,,,,,,,,,,,,,,,,,,,,,,,,,,,
,615a0ad2ba1d3d321beadca5,627c6db9dc4071b885002cbf,2022-05-11_21h15.33.517,classification_task,2021.2.3,MacIntel,59.99880002,627c6715c52fd12f31907bd0,,,,,,,,,,,,,,,,,,,,,,,l,1,5.39,"[""0.263"",""0.352"",""0.471"",""0.808""]","[0,1,1,1]",0,16,16,16,1,1,1,,,1,FALSE,,,,,,,,,,,,,,,,,,,,,,,,,,,,,,,
,615a0ad2ba1d3d321beadca5,627c6db9dc4071b885002cbf,2022-05-11_21h15.33.517,classification_task,2021.2.3,MacIntel,59.99880002,627c6715c52fd12f31907bd0,,,,,,,,,,,,,,,,,,,,,,,l,1,2.1402,"[""0.058"",""0.239"",""0.471"",""0.808""]","[1,0,1,1]",0,17,17,17,1,1,1,,,1,FALSE,,,,,,,,,,,,,,,,,,,,,,,,,,,,,,,
,615a0ad2ba1d3d321beadca5,627c6db9dc4071b885002cbf,2022-05-11_21h15.33.517,classification_task,2021.2.3,MacIntel,59.99880002,627c6715c52fd12f31907bd0,,,,,,,,,,,,,,,,,,,,,,,a,1,5.2084,"[""0.717"",""0.506"",""0.760"",""0.949""]","[0,1,1,1]",0,18,18,18,1,0,1,,,1,FALSE,,,,,,,,,,,,,,,,,,,,,,,,,,,,,,,
,615a0ad2ba1d3d321beadca5,627c6db9dc4071b885002cbf,2022-05-11_21h15.33.517,classification_task,2021.2.3,MacIntel,59.99880002,627c6715c52fd12f31907bd0,,,,,,,,,,,,,,,,,,,,,,,l,1,1.941,"[""0.058"",""0.352"",""0.717"",""0.808""]","[1,1,0,1]",0,19,19,19,1,1,1,,,1,FALSE,,,,,,,,,,,,,,,,,,,,,,,,,,,,,,,
,615a0ad2ba1d3d321beadca5,627c6db9dc4071b885002cbf,2022-05-11_21h15.33.517,classification_task,2021.2.3,MacIntel,59.99880002,627c6715c52fd12f31907bd0,,,,,,,,,,,,,,,,,,,,,,,l,1,2.4128,"[""0.103"",""0.144"",""0.617"",""0.679""]","[1,1,0,1]",0,20,20,20,1,1,0,,,1,FALSE,,,,,,,,,,,,,,,,,,,,,,,,,,,,,,,
,615a0ad2ba1d3d321beadca5,627c6db9dc4071b885002cbf,2022-05-11_21h15.33.517,classification_task,2021.2.3,MacIntel,59.99880002,627c6715c52fd12f31907bd0,,,,,,,,,,,,,,,,,,,,,,,a,1,1.9389,"[""0.316"",""0.415"",""0.875"",""0.725""]","[1,1,1,0]",0,21,21,21,1,0,0,,,1,FALSE,,,,,,,,,,,,,,,,,,,,,,,,,,,,,,,
,615a0ad2ba1d3d321beadca5,627c6db9dc4071b885002cbf,2022-05-11_21h15.33.517,classification_task,2021.2.3,MacIntel,59.99880002,627c6715c52fd12f31907bd0,,,,,,,,,,,,,,,,,,,,,,,a,1,5.749,"[""0.199"",""0.506"",""0.275"",""0.949""]","[1,1,0,1]",0,22,22,22,1,0,1,,,1,FALSE,,,,,,,,,,,,,,,,,,,,,,,,,,,,,,,
,615a0ad2ba1d3d321beadca5,627c6db9dc4071b885002cbf,2022-05-11_21h15.33.517,classification_task,2021.2.3,MacIntel,59.99880002,627c6715c52fd12f31907bd0,,,,,,,,,,,,,,,,,,,,,,,a,1,2.8926,"[""0.199"",""0.506"",""0.760"",""0.625""]","[1,1,1,0]",0,23,23,23,1,0,1,,,1,FALSE,,,,,,,,,,,,,,,,,,,,,,,,,,,,,,,
,615a0ad2ba1d3d321beadca5,627c6db9dc4071b885002cbf,2022-05-11_21h15.33.517,classification_task,2021.2.3,MacIntel,59.99880002,627c6715c52fd12f31907bd0,,,,,,,,,,,,,,,,,,,,,,,l,1,2.0493,"[""0.103"",""0.144"",""0.543"",""0.617""]","[1,1,1,0]",0,24,24,24,1,1,0,,,1,FALSE,,,,,,,,,,,,,,,,,,,,,,,,,,,,,,,
,615a0ad2ba1d3d321beadca5,627c6db9dc4071b885002cbf,2022-05-11_21h15.33.517,classification_task,2021.2.3,MacIntel,59.99880002,627c6715c52fd12f31907bd0,,,,,,,,,,,,,,,,,,,,,,,l,1,5.4342,"[""0.633"",""0.144"",""0.543"",""0.679""]","[0,1,1,1]",0,25,25,25,1,1,0,,,1,FALSE,,,,,,,,,,,,,,,,,,,,,,,,,,,,,,,
,615a0ad2ba1d3d321beadca5,627c6db9dc4071b885002cbf,2022-05-11_21h15.33.517,classification_task,2021.2.3,MacIntel,59.99880002,627c6715c52fd12f31907bd0,,,,,,,,,,,,,,,,,,,,,,,a,1,7.6049,"[""0.584"",""0.415"",""0.875"",""0.909""]","[0,1,1,1]",0,26,26,26,1,0,0,,,1,FALSE,,,,,,,,,,,,,,,,,,,,,,,,,,,,,,,
,615a0ad2ba1d3d321beadca5,627c6db9dc4071b885002cbf,2022-05-11_21h15.33.517,classification_task,2021.2.3,MacIntel,59.99880002,627c6715c52fd12f31907bd0,,,,,,,,,,,,,,,,,,,,,,,a,1,4.6536,"[""0.316"",""0.725"",""0.875"",""0.909""]","[1,0,1,1]",0,27,27,27,1,0,0,,,1,FALSE,,,,,,,,,,,,,,,,,,,,,,,,,,,,,,,
,615a0ad2ba1d3d321beadca5,627c6db9dc4071b885002cbf,2022-05-11_21h15.33.517,classification_task,2021.2.3,MacIntel,59.99880002,627c6715c52fd12f31907bd0,,,,,,,,,,,,,,,,,,,,,,,a,1,4.9436,"[""0.316"",""0.415"",""0.609"",""0.909""]","[1,1,0,1]",0,28,28,28,1,0,0,,,1,FALSE,,,,,,,,,,,,,,,,,,,,,,,,,,,,,,,
,615a0ad2ba1d3d321beadca5,627c6db9dc4071b885002cbf,2022-05-11_21h15.33.517,classification_task,2021.2.3,MacIntel,59.99880002,627c6715c52fd12f31907bd0,,,,,,,,,,,,,,,,,,,,,,,a,1,2.5507,"[""0.199"",""0.713"",""0.760"",""0.949""]","[1,0,1,1]",0,29,29,29,1,0,1,,,1,FALSE,,,,,,,,,,,,,,,,,,,,,,,,,,,,,,,
,615a0ad2ba1d3d321beadca5,627c6db9dc4071b885002cbf,2022-05-11_21h15.33.517,classification_task,2021.2.3,MacIntel,59.99880002,627c6715c52fd12f31907bd0,,,,,,,,,,,,,,,,,,,,,,,l,1,2.037,"[""0.058"",""0.352"",""0.471"",""0.275""]","[1,1,1,0]",0,30,30,30,1,1,1,,,1,FALSE,,,,,,,,,,,,,,,,,,,,,,,,,,,,,,,
,615a0ad2ba1d3d321beadca5,627c6db9dc4071b885002cbf,2022-05-11_21h15.33.517,classification_task,2021.2.3,MacIntel,59.99880002,627c6715c52fd12f31907bd0,,,,,,,,,,,,,,,,,,,,,,,l,1,2.8915,"[""0.103"",""0.633"",""0.543"",""0.679""]","[1,0,1,1]",0,31,31,31,1,1,0,,,1,FALSE,,,,,,,,,,,,,,,,,,,,,,,,,,,,,,,
,615a0ad2ba1d3d321beadca5,627c6db9dc4071b885002cbf,2022-05-11_21h15.33.517,classification_task,2021.2.3,MacIntel,59.99880002,627c6715c52fd12f31907bd0,,,,,,,,,,,,,,,,,,,,,,,a,0,3.437,"[""0.103"",""0.144"",""0.543"",""0.625""]","[1,1,1,0]",0,32,32,32,1,1,0,,,1,FALSE,,,,,,,,,,,,,,,,,,,,,,,,,,,,,,,
,615a0ad2ba1d3d321beadca5,627c6db9dc4071b885002cbf,2022-05-11_21h15.33.517,classification_task,2021.2.3,MacIntel,59.99880002,627c6715c52fd12f31907bd0,,,,,,,,,,,,,,,,,,,,,,,a,0,3.9353,"[""0.058"",""0.352"",""0.471"",""0.713""]","[1,1,1,0]",0,33,33,33,1,1,1,,,1,FALSE,,,,,,,,,,,,,,,,,,,,,,,,,,,,,,,
,615a0ad2ba1d3d321beadca5,627c6db9dc4071b885002cbf,2022-05-11_21h15.33.517,classification_task,2021.2.3,MacIntel,59.99880002,627c6715c52fd12f31907bd0,,,,,,,,,,,,,,,,,,,,,,,a,1,1.8521,"[""0.239"",""0.415"",""0.875"",""0.909""]","[0,1,1,1]",0,34,34,34,1,0,0,,,1,FALSE,,,,,,,,,,,,,,,,,,,,,,,,,,,,,,,
,615a0ad2ba1d3d321beadca5,627c6db9dc4071b885002cbf,2022-05-11_21h15.33.517,classification_task,2021.2.3,MacIntel,59.99880002,627c6715c52fd12f31907bd0,,,,,,,,,,,,,,,,,,,,,,,l,1,1.8195,"[""0.103"",""0.633"",""0.543"",""0.679""]","[1,0,1,1]",0,35,35,35,1,1,0,,,1,FALSE,,,,,,,,,,,,,,,,,,,,,,,,,,,,,,,
,615a0ad2ba1d3d321beadca5,627c6db9dc4071b885002cbf,2022-05-11_21h15.33.517,classification_task,2021.2.3,MacIntel,59.99880002,627c6715c52fd12f31907bd0,,,,,,,,,,,,,,,,,,,,,,,l,0,1.8039,"[""0.316"",""0.415"",""0.584"",""0.909""]","[1,1,0,1]",0,36,36,36,1,0,0,,,1,FALSE,,,,,,,,,,,,,,,,,,,,,,,,,,,,,,,
,615a0ad2ba1d3d321beadca5,627c6db9dc4071b885002cbf,2022-05-11_21h15.33.517,classification_task,2021.2.3,MacIntel,59.99880002,627c6715c52fd12f31907bd0,,,,,,,,,,,,,,,,,,,,,,,a,1,3.3001,"[""0.199"",""0.506"",""0.263"",""0.949""]","[1,1,0,1]",0,37,37,37,1,0,1,,,1,FALSE,,,,,,,,,,,,,,,,,,,,,,,,,,,,,,,
,615a0ad2ba1d3d321beadca5,627c6db9dc4071b885002cbf,2022-05-11_21h15.33.517,classification_task,2021.2.3,MacIntel,59.99880002,627c6715c52fd12f31907bd0,,,,,,,,,,,,,,,,,,,,,,,a,1,2.7849,"[""0.589"",""0.506"",""0.760"",""0.949""]","[0,1,1,1]",0,38,38,38,1,0,1,,,1,FALSE,,,,,,,,,,,,,,,,,,,,,,,,,,,,,,,
,615a0ad2ba1d3d321beadca5,627c6db9dc4071b885002cbf,2022-05-11_21h15.33.517,classification_task,2021.2.3,MacIntel,59.99880002,627c6715c52fd12f31907bd0,,,,,,,,,,,,,,,,,,,,,,,a,1,1.1704,"[""0.199"",""0.277"",""0.760"",""0.949""]","[1,0,1,1]",0,39,39,39,1,0,1,,,1,FALSE,,,,,,,,,,,,,,,,,,,,,,,,,,,,,,,
,615a0ad2ba1d3d321beadca5,627c6db9dc4071b885002cbf,2022-05-11_21h15.33.517,classification_task,2021.2.3,MacIntel,59.99880002,627c6715c52fd12f31907bd0,,,,,,,,,,,,,,,,,,,,,,,l,1,2.8161,"[""0.058"",""0.717"",""0.471"",""0.808""]","[1,0,1,1]",0,40,40,40,1,1,1,,,1,FALSE,,,,,,,,,,,,,,,,,,,,,,,,,,,,,,,
,615a0ad2ba1d3d321beadca5,627c6db9dc4071b885002cbf,2022-05-11_21h15.33.517,classification_task,2021.2.3,MacIntel,59.99880002,627c6715c52fd12f31907bd0,,,,,,,,,,,,,,,,,,,,,,,a,1,1.5718,"[""0.199"",""0.506"",""0.760"",""0.275""]","[1,1,1,0]",0,41,41,41,1,0,1,,,1,FALSE,,,,,,,,,,,,,,,,,,,,,,,,,,,,,,,
,615a0ad2ba1d3d321beadca5,627c6db9dc4071b885002cbf,2022-05-11_21h15.33.517,classification_task,2021.2.3,MacIntel,59.99880002,627c6715c52fd12f31907bd0,,,,,,,,,,,,,,,,,,,,,,,l,1,1.7825,"[""0.103"",""0.144"",""0.625"",""0.679""]","[1,1,0,1]",0,42,42,42,1,1,0,,,1,FALSE,,,,,,,,,,,,,,,,,,,,,,,,,,,,,,,
,615a0ad2ba1d3d321beadca5,627c6db9dc4071b885002cbf,2022-05-11_21h15.33.517,classification_task,2021.2.3,MacIntel,59.99880002,627c6715c52fd12f31907bd0,,,,,,,,,,,,,,,,,,,,,,,l,1,2.6545,"[""0.058"",""0.352"",""0.584"",""0.808""]","[1,1,0,1]",0,43,43,43,1,1,1,,,1,FALSE,,,,,,,,,,,,,,,,,,,,,,,,,,,,,,,
,615a0ad2ba1d3d321beadca5,627c6db9dc4071b885002cbf,2022-05-11_21h15.33.517,classification_task,2021.2.3,MacIntel,59.99880002,627c6715c52fd12f31907bd0,,,,,,,,,,,,,,,,,,,,,,,a,0,3.5714,"[""0.277"",""0.352"",""0.471"",""0.808""]","[0,1,1,1]",0,44,44,44,1,1,1,,,1,FALSE,,,,,,,,,,,,,,,,,,,,,,,,,,,,,,,
,615a0ad2ba1d3d321beadca5,627c6db9dc4071b885002cbf,2022-05-11_21h15.33.517,classification_task,2021.2.3,MacIntel,59.99880002,627c6715c52fd12f31907bd0,,,,,,,,,,,,,,,,,,,,,,,a,1,2.338,"[""0.316"",""0.609"",""0.875"",""0.909""]","[1,0,1,1]",0,45,45,45,1,0,0,,,1,FALSE,,,,,,,,,,,,,,,,,,,,,,,,,,,,,,,
,615a0ad2ba1d3d321beadca5,627c6db9dc4071b885002cbf,2022-05-11_21h15.33.517,classification_task,2021.2.3,MacIntel,59.99880002,627c6715c52fd12f31907bd0,,,,,,,,,,,,,,,,,,,,,,,a,1,0.9566,"[""0.316"",""0.415"",""0.875"",""0.625""]","[1,1,1,0]",0,46,46,46,1,0,0,,,1,FALSE,,,,,,,,,,,,,,,,,,,,,,,,,,,,,,,
,615a0ad2ba1d3d321beadca5,627c6db9dc4071b885002cbf,2022-05-11_21h15.33.517,classification_task,2021.2.3,MacIntel,59.99880002,627c6715c52fd12f31907bd0,,,,,,,,,,,,,,,,,,,,,,,l,1,2.4002,"[""0.275"",""0.144"",""0.543"",""0.679""]","[0,1,1,1]",0,47,47,47,1,1,0,,,1,FALSE,,,,,,,,,,,,,,,,,,,,,,,,,,,,,,,
,615a0ad2ba1d3d321beadca5,627c6db9dc4071b885002cbf,2022-05-11_21h15.33.517,classification_task,2021.2.3,MacIntel,59.99880002,627c6715c52fd12f31907bd0,,,,,,,,,,,,,,,,,,,,,,,l,1,1.3504,"[""0.058"",""0.269"",""0.471"",""0.808""]","[1,0,1,1]",0,48,48,48,1,1,1,,,1,FALSE,,,,,,,,,,,,,,,,,,,,,,,,,,,,,,,
,615a0ad2ba1d3d321beadca5,627c6db9dc4071b885002cbf,2022-05-11_21h15.33.517,classification_task,2021.2.3,MacIntel,59.99880002,627c6715c52fd12f31907bd0,,,,,,,,,,,,,,,,,,,,,,,a,1,1.9592,"[""0.199"",""0.506"",""0.760"",""0.625""]","[1,1,1,0]",0,49,49,49,1,0,1,,,1,FALSE,,,,,,,,,,,,,,,,,,,,,,,,,,,,,,,
,615a0ad2ba1d3d321beadca5,627c6db9dc4071b885002cbf,2022-05-11_21h15.33.517,classification_task,2021.2.3,MacIntel,59.99880002,627c6715c52fd12f31907bd0,,,,,,,,,,,,,,,,,,,,,,,l,0,2.4828,"[""0.316"",""0.263"",""0.875"",""0.909""]","[1,0,1,1]",0,50,50,50,1,0,0,,,1,FALSE,,,,,,,,,,,,,,,,,,,,,,,,,,,,,,,
,615a0ad2ba1d3d321beadca5,627c6db9dc4071b885002cbf,2022-05-11_21h15.33.517,classification_task,2021.2.3,MacIntel,59.99880002,627c6715c52fd12f31907bd0,,,,,,,,,,,,,,,,,,,,,,,l,0,2.9403,"[""0.584"",""0.415"",""0.875"",""0.909""]","[0,1,1,1]",0,51,51,51,1,0,0,,,1,FALSE,,,,,,,,,,,,,,,,,,,,,,,,,,,,,,,
,615a0ad2ba1d3d321beadca5,627c6db9dc4071b885002cbf,2022-05-11_21h15.33.517,classification_task,2021.2.3,MacIntel,59.99880002,627c6715c52fd12f31907bd0,,,,,,,,,,,,,,,,,,,,,,,l,1,2.3564,"[""0.103"",""0.713"",""0.543"",""0.679""]","[1,0,1,1]",0,52,52,52,1,1,0,,,1,FALSE,,,,,,,,,,,,,,,,,,,,,,,,,,,,,,,
,615a0ad2ba1d3d321beadca5,627c6db9dc4071b885002cbf,2022-05-11_21h15.33.517,classification_task,2021.2.3,MacIntel,59.99880002,627c6715c52fd12f31907bd0,,,,,,,,,,,,,,,,,,,,,,,l,1,1.2667,"[""0.058"",""0.352"",""0.471"",""0.717""]","[1,1,1,0]",0,53,53,53,1,1,1,,,1,FALSE,,,,,,,,,,,,,,,,,,,,,,,,,,,,,,,
,615a0ad2ba1d3d321beadca5,627c6db9dc4071b885002cbf,2022-05-11_21h15.33.517,classification_task,2021.2.3,MacIntel,59.99880002,627c6715c52fd12f31907bd0,,,,,,,,,,,,,,,,,,,,,,,a,0,3.3192,"[""0.713"",""0.352"",""0.471"",""0.808""]","[0,1,1,1]",0,54,54,54,1,1,1,,,1,FALSE,,,,,,,,,,,,,,,,,,,,,,,,,,,,,,,
,615a0ad2ba1d3d321beadca5,627c6db9dc4071b885002cbf,2022-05-11_21h15.33.517,classification_task,2021.2.3,MacIntel,59.99880002,627c6715c52fd12f31907bd0,,,,,,,,,,,,,,,,,,,,,,,a,1,1.3251,"[""0.199"",""0.506"",""0.584"",""0.949""]","[1,1,0,1]",0,55,55,55,1,0,1,,,1,FALSE,,,,,,,,,,,,,,,,,,,,,,,,,,,,,,,
,615a0ad2ba1d3d321beadca5,627c6db9dc4071b885002cbf,2022-05-11_21h15.33.517,classification_task,2021.2.3,MacIntel,59.99880002,627c6715c52fd12f31907bd0,,,,,,,,,,,,,,,,,,,,,,,a,1,1.0671,"[""0.199"",""0.713"",""0.760"",""0.949""]","[1,0,1,1]",0,56,56,56,1,0,1,,,1,FALSE,,,,,,,,,,,,,,,,,,,,,,,,,,,,,,,
,615a0ad2ba1d3d321beadca5,627c6db9dc4071b885002cbf,2022-05-11_21h15.33.517,classification_task,2021.2.3,MacIntel,59.99880002,627c6715c52fd12f31907bd0,,,,,,,,,,,,,,,,,,,,,,,l,1,1.3158,"[""0.058"",""0.352"",""0.275"",""0.808""]","[1,1,0,1]",0,57,57,57,1,1,1,,,1,FALSE,,,,,,,,,,,,,,,,,,,,,,,,,,,,,,,
,615a0ad2ba1d3d321beadca5,627c6db9dc4071b885002cbf,2022-05-11_21h15.33.517,classification_task,2021.2.3,MacIntel,59.99880002,627c6715c52fd12f31907bd0,,,,,,,,,,,,,,,,,,,,,,,a,1,2.1513,"[""0.316"",""0.415"",""0.875"",""0.717""]","[1,1,1,0]",0,58,58,58,1,0,0,,,1,FALSE,,,,,,,,,,,,,,,,,,,,,,,,,,,,,,,
,615a0ad2ba1d3d321beadca5,627c6db9dc4071b885002cbf,2022-05-11_21h15.33.517,classification_task,2021.2.3,MacIntel,59.99880002,627c6715c52fd12f31907bd0,,,,,,,,,,,,,,,,,,,,,,,a,1,0.8221,"[""0.316"",""0.415"",""0.625"",""0.909""]","[1,1,0,1]",0,59,59,59,1,0,0,,,1,FALSE,,,,,,,,,,,,,,,,,,,,,,,,,,,,,,,
,615a0ad2ba1d3d321beadca5,627c6db9dc4071b885002cbf,2022-05-11_21h15.33.517,classification_task,2021.2.3,MacIntel,59.99880002,627c6715c52fd12f31907bd0,,,,,,,,,,,,,,,,,,,,,,,l,1,2.0491,"[""0.269"",""0.144"",""0.543"",""0.679""]","[0,1,1,1]",0,60,60,60,1,1,0,,,1,FALSE,,,,,,,,,,,,,,,,,,,,,,,,,,,,,,,
,615a0ad2ba1d3d321beadca5,627c6db9dc4071b885002cbf,2022-05-11_21h15.33.517,classification_task,2021.2.3,MacIntel,59.99880002,627c6715c52fd12f31907bd0,,,,,,,,,,,,,,,,,,,,,,,l,1,3.8527,"[""0.103"",""0.144"",""0.275"",""0.679""]","[1,1,0,1]",0,61,61,61,1,1,0,,,1,FALSE,,,,,,,,,,,,,,,,,,,,,,,,,,,,,,,
,615a0ad2ba1d3d321beadca5,627c6db9dc4071b885002cbf,2022-05-11_21h15.33.517,classification_task,2021.2.3,MacIntel,59.99880002,627c6715c52fd12f31907bd0,,,,,,,,,,,,,,,,,,,,,,,l,1,0.8037,"[""0.103"",""0.144"",""0.543"",""0.244""]","[1,1,1,0]",0,62,62,62,1,1,0,,,1,FALSE,,,,,,,,,,,,,,,,,,,,,,,,,,,,,,,
,615a0ad2ba1d3d321beadca5,627c6db9dc4071b885002cbf,2022-05-11_21h15.33.517,classification_task,2021.2.3,MacIntel,59.99880002,627c6715c52fd12f31907bd0,,,,,,,,,,,,,,,,,,,,,,,l,0,1.6844,"[""0.589"",""0.506"",""0.760"",""0.949""]","[0,1,1,1]",0,63,63,63,1,0,1,,,1,FALSE,,,,,,,,,,,,,,,,,,,,,,,,,,,,,,,
,615a0ad2ba1d3d321beadca5,627c6db9dc4071b885002cbf,2022-05-11_21h15.33.517,classification_task,2021.2.3,MacIntel,59.99880002,627c6715c52fd12f31907bd0,,,,,,,,,,,,,,,,,,,,,,,,,,,,,,,,,,,,,,,0, ,,0,10,535.0949,0,0,0,0,1,2,1,,,,,,,,,,,,,,,,,,
,615a0ad2ba1d3d321beadca5,627c6db9dc4071b885002cbf,2022-05-11_21h15.33.517,classification_task,2021.2.3,MacIntel,59.99880002,627c6715c52fd12f31907bd0,,,,,,,,,,,,,,,,,,,,,,,,,,,,,,,,,,,,,,,1,  ,,0,10,524.3393,0,0,0,0,1,2,1,,,,,,,,,,,,,,,,,,
,615a0ad2ba1d3d321beadca5,627c6db9dc4071b885002cbf,2022-05-11_21h15.33.517,classification_task,2021.2.3,MacIntel,59.99880002,627c6715c52fd12f31907bd0,,,,,,,,,,,,,,,,,,,,,,,,,,,,,,,,,,,,,,,2,  ,,0,0.862498163,543.8782,0,0,0,0,1,2,1,,,,,,,,,,,,,,,,,,
,615a0ad2ba1d3d321beadca5,627c6db9dc4071b885002cbf,2022-05-11_21h15.33.517,classification_task,2021.2.3,MacIntel,59.99880002,627c6715c52fd12f31907bd0,,,,,,,,,,,,,,,,,,,,,,,,,,,,,,,,,,,,,,,,,,,,,0,0,0,0,1,,1,,,,,,,,,,,,,,,,,,
,615a0ad2ba1d3d321beadca5,627c6db9dc4071b885002cbf,2022-05-11_21h15.33.517,classification_task,2021.2.3,MacIntel,59.99880002,627c6715c52fd12f31907bd0,,,,,,,,,,,,,,,,,,,,,space,15.3979,a,1,5.6696,"[""0.316"",""0.415"",""0.589"",""0.909""]","[1,1,0,1]",0,0,0,0,1,0,0,,,1,FALSE,,,,,,,,,,,,,,,,,,,,,,,,,,,,,,,
,615a0ad2ba1d3d321beadca5,627c6db9dc4071b885002cbf,2022-05-11_21h15.33.517,classification_task,2021.2.3,MacIntel,59.99880002,627c6715c52fd12f31907bd0,,,,,,,,,,,,,,,,,,,,,,,l,1,2.8392,"[""0.103"",""0.263"",""0.543"",""0.679""]","[1,0,1,1]",0,1,1,1,1,1,0,,,1,FALSE,,,,,,,,,,,,,,,,,,,,,,,,,,,,,,,
,615a0ad2ba1d3d321beadca5,627c6db9dc4071b885002cbf,2022-05-11_21h15.33.517,classification_task,2021.2.3,MacIntel,59.99880002,627c6715c52fd12f31907bd0,,,,,,,,,,,,,,,,,,,,,,,a,1,2.8566,"[""0.199"",""0.609"",""0.760"",""0.949""]","[1,0,1,1]",0,2,2,2,1,0,1,,,1,FALSE,,,,,,,,,,,,,,,,,,,,,,,,,,,,,,,
,615a0ad2ba1d3d321beadca5,627c6db9dc4071b885002cbf,2022-05-11_21h15.33.517,classification_task,2021.2.3,MacIntel,59.99880002,627c6715c52fd12f31907bd0,,,,,,,,,,,,,,,,,,,,,,,l,1,1.0366,"[""0.058"",""0.352"",""0.471"",""0.713""]","[1,1,1,0]",0,3,3,3,1,1,1,,,1,FALSE,,,,,,,,,,,,,,,,,,,,,,,,,,,,,,,
,615a0ad2ba1d3d321beadca5,627c6db9dc4071b885002cbf,2022-05-11_21h15.33.517,classification_task,2021.2.3,MacIntel,59.99880002,627c6715c52fd12f31907bd0,,,,,,,,,,,,,,,,,,,,,,,l,1,1.6699,"[""0.058"",""0.352"",""0.609"",""0.808""]","[1,1,0,1]",0,4,4,4,1,1,1,,,1,FALSE,,,,,,,,,,,,,,,,,,,,,,,,,,,,,,,
,615a0ad2ba1d3d321beadca5,627c6db9dc4071b885002cbf,2022-05-11_21h15.33.517,classification_task,2021.2.3,MacIntel,59.99880002,627c6715c52fd12f31907bd0,,,,,,,,,,,,,,,,,,,,,,,a,0,6.3032,"[""0.263"",""0.352"",""0.471"",""0.808""]","[0,1,1,1]",0,5,5,5,1,1,1,,,1,FALSE,,,,,,,,,,,,,,,,,,,,,,,,,,,,,,,
,615a0ad2ba1d3d321beadca5,627c6db9dc4071b885002cbf,2022-05-11_21h15.33.517,classification_task,2021.2.3,MacIntel,59.99880002,627c6715c52fd12f31907bd0,,,,,,,,,,,,,,,,,,,,,,,l,1,2.9042,"[""0.103"",""0.144"",""0.543"",""0.617""]","[1,1,1,0]",0,6,6,6,1,1,0,,,1,FALSE,,,,,,,,,,,,,,,,,,,,,,,,,,,,,,,
,615a0ad2ba1d3d321beadca5,627c6db9dc4071b885002cbf,2022-05-11_21h15.33.517,classification_task,2021.2.3,MacIntel,59.99880002,627c6715c52fd12f31907bd0,,,,,,,,,,,,,,,,,,,,,,,l,0,1.1723,"[""0.633"",""0.415"",""0.875"",""0.909""]","[0,1,1,1]",0,7,7,7,1,0,0,,,1,FALSE,,,,,,,,,,,,,,,,,,,,,,,,,,,,,,,
,615a0ad2ba1d3d321beadca5,627c6db9dc4071b885002cbf,2022-05-11_21h15.33.517,classification_task,2021.2.3,MacIntel,59.99880002,627c6715c52fd12f31907bd0,,,,,,,,,,,,,,,,,,,,,,,a,1,2.5322,"[""0.199"",""0.506"",""0.760"",""0.717""]","[1,1,1,0]",0,8,8,8,1,0,1,,,1,FALSE,,,,,,,,,,,,,,,,,,,,,,,,,,,,,,,
,615a0ad2ba1d3d321beadca5,627c6db9dc4071b885002cbf,2022-05-11_21h15.33.517,classification_task,2021.2.3,MacIntel,59.99880002,627c6715c52fd12f31907bd0,,,,,,,,,,,,,,,,,,,,,,,a,1,1.2877,"[""0.199"",""0.506"",""0.275"",""0.949""]","[1,1,0,1]",0,9,9,9,1,0,1,,,1,FALSE,,,,,,,,,,,,,,,,,,,,,,,,,,,,,,,
,615a0ad2ba1d3d321beadca5,627c6db9dc4071b885002cbf,2022-05-11_21h15.33.517,classification_task,2021.2.3,MacIntel,59.99880002,627c6715c52fd12f31907bd0,,,,,,,,,,,,,,,,,,,,,,,l,1,1.8656,"[""0.103"",""0.144"",""0.275"",""0.679""]","[1,1,0,1]",0,10,10,10,1,1,0,,,1,FALSE,,,,,,,,,,,,,,,,,,,,,,,,,,,,,,,
,615a0ad2ba1d3d321beadca5,627c6db9dc4071b885002cbf,2022-05-11_21h15.33.517,classification_task,2021.2.3,MacIntel,59.99880002,627c6715c52fd12f31907bd0,,,,,,,,,,,,,,,,,,,,,,,l,1,2.0841,"[""0.584"",""0.144"",""0.543"",""0.679""]","[0,1,1,1]",0,11,11,11,1,1,0,,,1,FALSE,,,,,,,,,,,,,,,,,,,,,,,,,,,,,,,
,615a0ad2ba1d3d321beadca5,627c6db9dc4071b885002cbf,2022-05-11_21h15.33.517,classification_task,2021.2.3,MacIntel,59.99880002,627c6715c52fd12f31907bd0,,,,,,,,,,,,,,,,,,,,,,,l,1,1.1055,"[""0.058"",""0.717"",""0.471"",""0.808""]","[1,0,1,1]",0,12,12,12,1,1,1,,,1,FALSE,,,,,,,,,,,,,,,,,,,,,,,,,,,,,,,
,615a0ad2ba1d3d321beadca5,627c6db9dc4071b885002cbf,2022-05-11_21h15.33.517,classification_task,2021.2.3,MacIntel,59.99880002,627c6715c52fd12f31907bd0,,,,,,,,,,,,,,,,,,,,,,,a,1,1.6334,"[""0.316"",""0.415"",""0.875"",""0.633""]","[1,1,1,0]",0,13,13,13,1,0,0,,,1,FALSE,,,,,,,,,,,,,,,,,,,,,,,,,,,,,,,
,615a0ad2ba1d3d321beadca5,627c6db9dc4071b885002cbf,2022-05-11_21h15.33.517,classification_task,2021.2.3,MacIntel,59.99880002,627c6715c52fd12f31907bd0,,,,,,,,,,,,,,,,,,,,,,,l,0,2.0181,"[""0.277"",""0.506"",""0.760"",""0.949""]","[0,1,1,1]",0,14,14,14,1,0,1,,,1,FALSE,,,,,,,,,,,,,,,,,,,,,,,,,,,,,,,
,615a0ad2ba1d3d321beadca5,627c6db9dc4071b885002cbf,2022-05-11_21h15.33.517,classification_task,2021.2.3,MacIntel,59.99880002,627c6715c52fd12f31907bd0,,,,,,,,,,,,,,,,,,,,,,,l,0,2.4881,"[""0.316"",""0.269"",""0.875"",""0.909""]","[1,0,1,1]",0,15,15,15,1,0,0,,,1,FALSE,,,,,,,,,,,,,,,,,,,,,,,,,,,,,,,
,615a0ad2ba1d3d321beadca5,627c6db9dc4071b885002cbf,2022-05-11_21h15.33.517,classification_task,2021.2.3,MacIntel,59.99880002,627c6715c52fd12f31907bd0,,,,,,,,,,,,,,,,,,,,,,,l,1,1.8325,"[""0.717"",""0.144"",""0.543"",""0.679""]","[0,1,1,1]",0,16,16,16,1,1,0,,,1,FALSE,,,,,,,,,,,,,,,,,,,,,,,,,,,,,,,
,615a0ad2ba1d3d321beadca5,627c6db9dc4071b885002cbf,2022-05-11_21h15.33.517,classification_task,2021.2.3,MacIntel,59.99880002,627c6715c52fd12f31907bd0,,,,,,,,,,,,,,,,,,,,,,,a,1,1.7366,"[""0.316"",""0.415"",""0.717"",""0.909""]","[1,1,0,1]",0,17,17,17,1,0,0,,,1,FALSE,,,,,,,,,,,,,,,,,,,,,,,,,,,,,,,
,615a0ad2ba1d3d321beadca5,627c6db9dc4071b885002cbf,2022-05-11_21h15.33.517,classification_task,2021.2.3,MacIntel,59.99880002,627c6715c52fd12f31907bd0,,,,,,,,,,,,,,,,,,,,,,,l,0,2.9353,"[""0.633"",""0.506"",""0.760"",""0.949""]","[0,1,1,1]",0,18,18,18,1,0,1,,,1,FALSE,,,,,,,,,,,,,,,,,,,,,,,,,,,,,,,
,615a0ad2ba1d3d321beadca5,627c6db9dc4071b885002cbf,2022-05-11_21h15.33.517,classification_task,2021.2.3,MacIntel,59.99880002,627c6715c52fd12f31907bd0,,,,,,,,,,,,,,,,,,,,,,,a,1,1.7045,"[""0.316"",""0.277"",""0.875"",""0.909""]","[1,0,1,1]",0,19,19,19,1,0,0,,,1,FALSE,,,,,,,,,,,,,,,,,,,,,,,,,,,,,,,
,615a0ad2ba1d3d321beadca5,627c6db9dc4071b885002cbf,2022-05-11_21h15.33.517,classification_task,2021.2.3,MacIntel,59.99880002,627c6715c52fd12f31907bd0,,,,,,,,,,,,,,,,,,,,,,,l,1,1.3095,"[""0.058"",""0.717"",""0.471"",""0.808""]","[1,0,1,1]",0,20,20,20,1,1,1,,,1,FALSE,,,,,,,,,,,,,,,,,,,,,,,,,,,,,,,
,615a0ad2ba1d3d321beadca5,627c6db9dc4071b885002cbf,2022-05-11_21h15.33.517,classification_task,2021.2.3,MacIntel,59.99880002,627c6715c52fd12f31907bd0,,,,,,,,,,,,,,,,,,,,,,,l,0,2.1657,"[""0.713"",""0.415"",""0.875"",""0.909""]","[0,1,1,1]",0,21,21,21,1,0,0,,,1,FALSE,,,,,,,,,,,,,,,,,,,,,,,,,,,,,,,
,615a0ad2ba1d3d321beadca5,627c6db9dc4071b885002cbf,2022-05-11_21h15.33.517,classification_task,2021.2.3,MacIntel,59.99880002,627c6715c52fd12f31907bd0,,,,,,,,,,,,,,,,,,,,,,,a,1,1.8993,"[""0.199"",""0.269"",""0.760"",""0.949""]","[1,0,1,1]",0,22,22,22,1,0,1,,,1,FALSE,,,,,,,,,,,,,,,,,,,,,,,,,,,,,,,
,615a0ad2ba1d3d321beadca5,627c6db9dc4071b885002cbf,2022-05-11_21h15.33.517,classification_task,2021.2.3,MacIntel,59.99880002,627c6715c52fd12f31907bd0,,,,,,,,,,,,,,,,,,,,,,,l,1,0.9897,"[""0.103"",""0.725"",""0.543"",""0.679""]","[1,0,1,1]",0,23,23,23,1,1,0,,,1,FALSE,,,,,,,,,,,,,,,,,,,,,,,,,,,,,,,
,615a0ad2ba1d3d321beadca5,627c6db9dc4071b885002cbf,2022-05-11_21h15.33.517,classification_task,2021.2.3,MacIntel,59.99880002,627c6715c52fd12f31907bd0,,,,,,,,,,,,,,,,,,,,,,,a,1,1.1969,"[""0.199"",""0.506"",""0.760"",""0.625""]","[1,1,1,0]",0,24,24,24,1,0,1,,,1,FALSE,,,,,,,,,,,,,,,,,,,,,,,,,,,,,,,
,615a0ad2ba1d3d321beadca5,627c6db9dc4071b885002cbf,2022-05-11_21h15.33.517,classification_task,2021.2.3,MacIntel,59.99880002,627c6715c52fd12f31907bd0,,,,,,,,,,,,,,,,,,,,,,,a,0,2.1651,"[""0.275"",""0.352"",""0.471"",""0.808""]","[0,1,1,1]",0,25,25,25,1,1,1,,,1,FALSE,,,,,,,,,,,,,,,,,,,,,,,,,,,,,,,
,615a0ad2ba1d3d321beadca5,627c6db9dc4071b885002cbf,2022-05-11_21h15.33.517,classification_task,2021.2.3,MacIntel,59.99880002,627c6715c52fd12f31907bd0,,,,,,,,,,,,,,,,,,,,,,,l,1,1.2033,"[""0.058"",""0.352"",""0.625"",""0.808""]","[1,1,0,1]",0,26,26,26,1,1,1,,,1,FALSE,,,,,,,,,,,,,,,,,,,,,,,,,,,,,,,
,615a0ad2ba1d3d321beadca5,627c6db9dc4071b885002cbf,2022-05-11_21h15.33.517,classification_task,2021.2.3,MacIntel,59.99880002,627c6715c52fd12f31907bd0,,,,,,,,,,,,,,,,,,,,,,,l,1,0.8726,"[""0.058"",""0.352"",""0.471"",""0.713""]","[1,1,1,0]",0,27,27,27,1,1,1,,,1,FALSE,,,,,,,,,,,,,,,,,,,,,,,,,,,,,,,
,615a0ad2ba1d3d321beadca5,627c6db9dc4071b885002cbf,2022-05-11_21h15.33.517,classification_task,2021.2.3,MacIntel,59.99880002,627c6715c52fd12f31907bd0,,,,,,,,,,,,,,,,,,,,,,,a,1,1.7688,"[""0.199"",""0.506"",""0.625"",""0.949""]","[1,1,0,1]",0,28,28,28,1,0,1,,,1,FALSE,,,,,,,,,,,,,,,,,,,,,,,,,,,,,,,
,615a0ad2ba1d3d321beadca5,627c6db9dc4071b885002cbf,2022-05-11_21h15.33.517,classification_task,2021.2.3,MacIntel,59.99880002,627c6715c52fd12f31907bd0,,,,,,,,,,,,,,,,,,,,,,,l,0,1.3728,"[""0.316"",""0.415"",""0.875"",""0.269""]","[1,1,1,0]",0,29,29,29,1,0,0,,,1,FALSE,,,,,,,,,,,,,,,,,,,,,,,,,,,,,,,
,615a0ad2ba1d3d321beadca5,627c6db9dc4071b885002cbf,2022-05-11_21h15.33.517,classification_task,2021.2.3,MacIntel,59.99880002,627c6715c52fd12f31907bd0,,,,,,,,,,,,,,,,,,,,,,,a,0,4.2342,"[""0.103"",""0.144"",""0.617"",""0.679""]","[1,1,0,1]",0,30,30,30,1,1,0,,,1,FALSE,,,,,,,,,,,,,,,,,,,,,,,,,,,,,,,
,615a0ad2ba1d3d321beadca5,627c6db9dc4071b885002cbf,2022-05-11_21h15.33.517,classification_task,2021.2.3,MacIntel,59.99880002,627c6715c52fd12f31907bd0,,,,,,,,,,,,,,,,,,,,,,,l,1,1.1518,"[""0.103"",""0.144"",""0.543"",""0.584""]","[1,1,1,0]",0,31,31,31,1,1,0,,,1,FALSE,,,,,,,,,,,,,,,,,,,,,,,,,,,,,,,
,615a0ad2ba1d3d321beadca5,627c6db9dc4071b885002cbf,2022-05-11_21h15.33.517,classification_task,2021.2.3,MacIntel,59.99880002,627c6715c52fd12f31907bd0,,,,,,,,,,,,,,,,,,,,,,,l,1,1.2368,"[""0.058"",""0.352"",""0.239"",""0.808""]","[1,1,0,1]",0,32,32,32,1,1,1,,,1,FALSE,,,,,,,,,,,,,,,,,,,,,,,,,,,,,,,
,615a0ad2ba1d3d321beadca5,627c6db9dc4071b885002cbf,2022-05-11_21h15.33.517,classification_task,2021.2.3,MacIntel,59.99880002,627c6715c52fd12f31907bd0,,,,,,,,,,,,,,,,,,,,,,,l,1,0.7852,"[""0.058"",""0.263"",""0.471"",""0.808""]","[1,0,1,1]",0,33,33,33,1,1,1,,,1,FALSE,,,,,,,,,,,,,,,,,,,,,,,,,,,,,,,
,615a0ad2ba1d3d321beadca5,627c6db9dc4071b885002cbf,2022-05-11_21h15.33.517,classification_task,2021.2.3,MacIntel,59.99880002,627c6715c52fd12f31907bd0,,,,,,,,,,,,,,,,,,,,,,,l,1,2.7034,"[""0.584"",""0.352"",""0.471"",""0.808""]","[0,1,1,1]",0,34,34,34,1,1,1,,,1,FALSE,,,,,,,,,,,,,,,,,,,,,,,,,,,,,,,
,615a0ad2ba1d3d321beadca5,627c6db9dc4071b885002cbf,2022-05-11_21h15.33.517,classification_task,2021.2.3,MacIntel,59.99880002,627c6715c52fd12f31907bd0,,,,,,,,,,,,,,,,,,,,,,,a,1,1.4554,"[""0.625"",""0.415"",""0.875"",""0.909""]","[0,1,1,1]",0,35,35,35,1,0,0,,,1,FALSE,,,,,,,,,,,,,,,,,,,,,,,,,,,,,,,
,615a0ad2ba1d3d321beadca5,627c6db9dc4071b885002cbf,2022-05-11_21h15.33.517,classification_task,2021.2.3,MacIntel,59.99880002,627c6715c52fd12f31907bd0,,,,,,,,,,,,,,,,,,,,,,,l,1,1.8812,"[""0.617"",""0.144"",""0.543"",""0.679""]","[0,1,1,1]",0,36,36,36,1,1,0,,,1,FALSE,,,,,,,,,,,,,,,,,,,,,,,,,,,,,,,
,615a0ad2ba1d3d321beadca5,627c6db9dc4071b885002cbf,2022-05-11_21h15.33.517,classification_task,2021.2.3,MacIntel,59.99880002,627c6715c52fd12f31907bd0,,,,,,,,,,,,,,,,,,,,,,,l,0,1.4678,"[""0.717"",""0.506"",""0.760"",""0.949""]","[0,1,1,1]",0,37,37,37,1,0,1,,,1,FALSE,,,,,,,,,,,,,,,,,,,,,,,,,,,,,,,
,615a0ad2ba1d3d321beadca5,627c6db9dc4071b885002cbf,2022-05-11_21h15.33.517,classification_task,2021.2.3,MacIntel,59.99880002,627c6715c52fd12f31907bd0,,,,,,,,,,,,,,,,,,,,,,,l,1,1.3038,"[""0.103"",""0.144"",""0.543"",""0.277""]","[1,1,1,0]",0,38,38,38,1,1,0,,,1,FALSE,,,,,,,,,,,,,,,,,,,,,,,,,,,,,,,
,615a0ad2ba1d3d321beadca5,627c6db9dc4071b885002cbf,2022-05-11_21h15.33.517,classification_task,2021.2.3,MacIntel,59.99880002,627c6715c52fd12f31907bd0,,,,,,,,,,,,,,,,,,,,,,,l,0,1.2694,"[""0.316"",""0.415"",""0.875"",""0.589""]","[1,1,1,0]",0,39,39,39,1,0,0,,,1,FALSE,,,,,,,,,,,,,,,,,,,,,,,,,,,,,,,
,615a0ad2ba1d3d321beadca5,627c6db9dc4071b885002cbf,2022-05-11_21h15.33.517,classification_task,2021.2.3,MacIntel,59.99880002,627c6715c52fd12f31907bd0,,,,,,,,,,,,,,,,,,,,,,,l,1,0.9661,"[""0.103"",""0.144"",""0.244"",""0.679""]","[1,1,0,1]",0,40,40,40,1,1,0,,,1,FALSE,,,,,,,,,,,,,,,,,,,,,,,,,,,,,,,
,615a0ad2ba1d3d321beadca5,627c6db9dc4071b885002cbf,2022-05-11_21h15.33.517,classification_task,2021.2.3,MacIntel,59.99880002,627c6715c52fd12f31907bd0,,,,,,,,,,,,,,,,,,,,,,,l,1,0.9995,"[""0.103"",""0.633"",""0.543"",""0.679""]","[1,0,1,1]",0,41,41,41,1,1,0,,,1,FALSE,,,,,,,,,,,,,,,,,,,,,,,,,,,,,,,
,615a0ad2ba1d3d321beadca5,627c6db9dc4071b885002cbf,2022-05-11_21h15.33.517,classification_task,2021.2.3,MacIntel,59.99880002,627c6715c52fd12f31907bd0,,,,,,,,,,,,,,,,,,,,,,,a,1,1.3014,"[""0.316"",""0.415"",""0.239"",""0.909""]","[1,1,0,1]",0,42,42,42,1,0,0,,,1,FALSE,,,,,,,,,,,,,,,,,,,,,,,,,,,,,,,
,615a0ad2ba1d3d321beadca5,627c6db9dc4071b885002cbf,2022-05-11_21h15.33.517,classification_task,2021.2.3,MacIntel,59.99880002,627c6715c52fd12f31907bd0,,,,,,,,,,,,,,,,,,,,,,,a,1,1.7994,"[""0.316"",""0.244"",""0.875"",""0.909""]","[1,0,1,1]",0,43,43,43,1,0,0,,,1,FALSE,,,,,,,,,,,,,,,,,,,,,,,,,,,,,,,
,615a0ad2ba1d3d321beadca5,627c6db9dc4071b885002cbf,2022-05-11_21h15.33.517,classification_task,2021.2.3,MacIntel,59.99880002,627c6715c52fd12f31907bd0,,,,,,,,,,,,,,,,,,,,,,,a,1,1.4676,"[""0.199"",""0.617"",""0.760"",""0.949""]","[1,0,1,1]",0,44,44,44,1,0,1,,,1,FALSE,,,,,,,,,,,,,,,,,,,,,,,,,,,,,,,
,615a0ad2ba1d3d321beadca5,627c6db9dc4071b885002cbf,2022-05-11_21h15.33.517,classification_task,2021.2.3,MacIntel,59.99880002,627c6715c52fd12f31907bd0,,,,,,,,,,,,,,,,,,,,,,,l,1,0.9225,"[""0.058"",""0.352"",""0.471"",""0.717""]","[1,1,1,0]",0,45,45,45,1,1,1,,,1,FALSE,,,,,,,,,,,,,,,,,,,,,,,,,,,,,,,
,615a0ad2ba1d3d321beadca5,627c6db9dc4071b885002cbf,2022-05-11_21h15.33.517,classification_task,2021.2.3,MacIntel,59.99880002,627c6715c52fd12f31907bd0,,,,,,,,,,,,,,,,,,,,,,,a,1,1.6002,"[""0.199"",""0.506"",""0.760"",""0.725""]","[1,1,1,0]",0,46,46,46,1,0,1,,,1,FALSE,,,,,,,,,,,,,,,,,,,,,,,,,,,,,,,
,615a0ad2ba1d3d321beadca5,627c6db9dc4071b885002cbf,2022-05-11_21h15.33.517,classification_task,2021.2.3,MacIntel,59.99880002,627c6715c52fd12f31907bd0,,,,,,,,,,,,,,,,,,,,,,,a,1,1.2135,"[""0.199"",""0.506"",""0.244"",""0.949""]","[1,1,0,1]",0,47,47,47,1,0,1,,,1,FALSE,,,,,,,,,,,,,,,,,,,,,,,,,,,,,,,
,615a0ad2ba1d3d321beadca5,627c6db9dc4071b885002cbf,2022-05-11_21h15.33.517,classification_task,2021.2.3,MacIntel,59.99880002,627c6715c52fd12f31907bd0,,,,,,,,,,,,,,,,,,,,,,,l,0,1.1011,"[""0.316"",""0.415"",""0.277"",""0.909""]","[1,1,0,1]",0,48,48,48,1,0,0,,,1,FALSE,,,,,,,,,,,,,,,,,,,,,,,,,,,,,,,
,615a0ad2ba1d3d321beadca5,627c6db9dc4071b885002cbf,2022-05-11_21h15.33.517,classification_task,2021.2.3,MacIntel,59.99880002,627c6715c52fd12f31907bd0,,,,,,,,,,,,,,,,,,,,,,,l,1,1.4997,"[""0.725"",""0.352"",""0.471"",""0.808""]","[0,1,1,1]",0,49,49,49,1,1,1,,,1,FALSE,,,,,,,,,,,,,,,,,,,,,,,,,,,,,,,
,615a0ad2ba1d3d321beadca5,627c6db9dc4071b885002cbf,2022-05-11_21h15.33.517,classification_task,2021.2.3,MacIntel,59.99880002,627c6715c52fd12f31907bd0,,,,,,,,,,,,,,,,,,,,,,,l,0,1.707,"[""0.239"",""0.415"",""0.875"",""0.909""]","[0,1,1,1]",0,50,50,50,1,0,0,,,1,FALSE,,,,,,,,,,,,,,,,,,,,,,,,,,,,,,,
,615a0ad2ba1d3d321beadca5,627c6db9dc4071b885002cbf,2022-05-11_21h15.33.517,classification_task,2021.2.3,MacIntel,59.99880002,627c6715c52fd12f31907bd0,,,,,,,,,,,,,,,,,,,,,,,l,1,1.0559,"[""0.103"",""0.144"",""0.543"",""0.275""]","[1,1,1,0]",0,51,51,51,1,1,0,,,1,FALSE,,,,,,,,,,,,,,,,,,,,,,,,,,,,,,,
,615a0ad2ba1d3d321beadca5,627c6db9dc4071b885002cbf,2022-05-11_21h15.33.517,classification_task,2021.2.3,MacIntel,59.99880002,627c6715c52fd12f31907bd0,,,,,,,,,,,,,,,,,,,,,,,l,1,0.9651,"[""0.103"",""0.144"",""0.625"",""0.679""]","[1,1,0,1]",0,52,52,52,1,1,0,,,1,FALSE,,,,,,,,,,,,,,,,,,,,,,,,,,,,,,,
,615a0ad2ba1d3d321beadca5,627c6db9dc4071b885002cbf,2022-05-11_21h15.33.517,classification_task,2021.2.3,MacIntel,59.99880002,627c6715c52fd12f31907bd0,,,,,,,,,,,,,,,,,,,,,,,l,1,1.0995,"[""0.058"",""0.352"",""0.625"",""0.808""]","[1,1,0,1]",0,53,53,53,1,1,1,,,1,FALSE,,,,,,,,,,,,,,,,,,,,,,,,,,,,,,,
,615a0ad2ba1d3d321beadca5,627c6db9dc4071b885002cbf,2022-05-11_21h15.33.517,classification_task,2021.2.3,MacIntel,59.99880002,627c6715c52fd12f31907bd0,,,,,,,,,,,,,,,,,,,,,,,a,0,1.2844,"[""0.103"",""0.277"",""0.543"",""0.679""]","[1,0,1,1]",0,54,54,54,1,1,0,,,1,FALSE,,,,,,,,,,,,,,,,,,,,,,,,,,,,,,,
,615a0ad2ba1d3d321beadca5,627c6db9dc4071b885002cbf,2022-05-11_21h15.33.517,classification_task,2021.2.3,MacIntel,59.99880002,627c6715c52fd12f31907bd0,,,,,,,,,,,,,,,,,,,,,,,a,1,1.8033,"[""0.717"",""0.506"",""0.760"",""0.949""]","[0,1,1,1]",0,55,55,55,1,0,1,,,1,FALSE,,,,,,,,,,,,,,,,,,,,,,,,,,,,,,,
,615a0ad2ba1d3d321beadca5,627c6db9dc4071b885002cbf,2022-05-11_21h15.33.517,classification_task,2021.2.3,MacIntel,59.99880002,627c6715c52fd12f31907bd0,,,,,,,,,,,,,,,,,,,,,,,a,1,1.6986,"[""0.199"",""0.506"",""0.633"",""0.949""]","[1,1,0,1]",0,56,56,56,1,0,1,,,1,FALSE,,,,,,,,,,,,,,,,,,,,,,,,,,,,,,,
,615a0ad2ba1d3d321beadca5,627c6db9dc4071b885002cbf,2022-05-11_21h15.33.517,classification_task,2021.2.3,MacIntel,59.99880002,627c6715c52fd12f31907bd0,,,,,,,,,,,,,,,,,,,,,,,l,0,1.1389,"[""0.316"",""0.275"",""0.875"",""0.909""]","[1,0,1,1]",0,57,57,57,1,0,0,,,1,FALSE,,,,,,,,,,,,,,,,,,,,,,,,,,,,,,,
,615a0ad2ba1d3d321beadca5,627c6db9dc4071b885002cbf,2022-05-11_21h15.33.517,classification_task,2021.2.3,MacIntel,59.99880002,627c6715c52fd12f31907bd0,,,,,,,,,,,,,,,,,,,,,,,l,1,1.1172,"[""0.058"",""0.352"",""0.471"",""0.717""]","[1,1,1,0]",0,58,58,58,1,1,1,,,1,FALSE,,,,,,,,,,,,,,,,,,,,,,,,,,,,,,,
,615a0ad2ba1d3d321beadca5,627c6db9dc4071b885002cbf,2022-05-11_21h15.33.517,classification_task,2021.2.3,MacIntel,59.99880002,627c6715c52fd12f31907bd0,,,,,,,,,,,,,,,,,,,,,,,a,1,1.2164,"[""0.199"",""0.713"",""0.760"",""0.949""]","[1,0,1,1]",0,59,59,59,1,0,1,,,1,FALSE,,,,,,,,,,,,,,,,,,,,,,,,,,,,,,,
,615a0ad2ba1d3d321beadca5,627c6db9dc4071b885002cbf,2022-05-11_21h15.33.517,classification_task,2021.2.3,MacIntel,59.99880002,627c6715c52fd12f31907bd0,,,,,,,,,,,,,,,,,,,,,,,a,1,1.2832,"[""0.199"",""0.506"",""0.760"",""0.263""]","[1,1,1,0]",0,60,60,60,1,0,1,,,1,FALSE,,,,,,,,,,,,,,,,,,,,,,,,,,,,,,,
,615a0ad2ba1d3d321beadca5,627c6db9dc4071b885002cbf,2022-05-11_21h15.33.517,classification_task,2021.2.3,MacIntel,59.99880002,627c6715c52fd12f31907bd0,,,,,,,,,,,,,,,,,,,,,,,a,1,2.6315,"[""0.316"",""0.415"",""0.875"",""0.584""]","[1,1,1,0]",0,61,61,61,1,0,0,,,1,FALSE,,,,,,,,,,,,,,,,,,,,,,,,,,,,,,,
,615a0ad2ba1d3d321beadca5,627c6db9dc4071b885002cbf,2022-05-11_21h15.33.517,classification_task,2021.2.3,MacIntel,59.99880002,627c6715c52fd12f31907bd0,,,,,,,,,,,,,,,,,,,,,,,l,1,1.4207,"[""0.725"",""0.144"",""0.543"",""0.679""]","[0,1,1,1]",0,62,62,62,1,1,0,,,1,FALSE,,,,,,,,,,,,,,,,,,,,,,,,,,,,,,,
,615a0ad2ba1d3d321beadca5,627c6db9dc4071b885002cbf,2022-05-11_21h15.33.517,classification_task,2021.2.3,MacIntel,59.99880002,627c6715c52fd12f31907bd0,,,,,,,,,,,,,,,,,,,,,,,l,1,1.215,"[""0.058"",""0.239"",""0.471"",""0.808""]","[1,0,1,1]",0,63,63,63,1,1,1,,,1,FALSE,,,,,,,,,,,,,,,,,,,,,,,,,,,,,,,
,615a0ad2ba1d3d321beadca5,627c6db9dc4071b885002cbf,2022-05-11_21h15.33.517,classification_task,2021.2.3,MacIntel,59.99880002,627c6715c52fd12f31907bd0,,,,,,,,,,,,,,,,,,,,,,,,,,,,,,,,,,,,,,,0, ,,0,4.969457305,204.0641,0,1,1,1,1,2,2,,,,,,,,,,,,,,,,,,
,615a0ad2ba1d3d321beadca5,627c6db9dc4071b885002cbf,2022-05-11_21h15.33.517,classification_task,2021.2.3,MacIntel,59.99880002,627c6715c52fd12f31907bd0,,,,,,,,,,,,,,,,,,,,,,,,,,,,,,,,,,,,,,,1,  ,,0,10,206.8032,0,1,1,1,1,2,2,,,,,,,,,,,,,,,,,,
,615a0ad2ba1d3d321beadca5,627c6db9dc4071b885002cbf,2022-05-11_21h15.33.517,classification_task,2021.2.3,MacIntel,59.99880002,627c6715c52fd12f31907bd0,,,,,,,,,,,,,,,,,,,,,,,,,,,,,,,,,,,,,,,2,  ,,0,2.211773405,212.0701,0,1,1,1,1,2,2,,,,,,,,,,,,,,,,,,
,615a0ad2ba1d3d321beadca5,627c6db9dc4071b885002cbf,2022-05-11_21h15.33.517,classification_task,2021.2.3,MacIntel,59.99880002,627c6715c52fd12f31907bd0,,,,,,,,,,,,,,,,,,,,,,,,,,,,,,,,,,,,,,,,,,,,,0,1,1,1,1,,2,,,,,,,,,,,,,,,,,,
,615a0ad2ba1d3d321beadca5,627c6db9dc4071b885002cbf,2022-05-11_21h15.33.517,classification_task,2021.2.3,MacIntel,59.99880002,627c6715c52fd12f31907bd0,,,,,,,,,,,,,,,,,,,,,space,9.8754,a,1,1.7048,"[""0.199"",""0.506"",""0.760"",""0.625""]","[1,1,1,0]",0,0,0,0,1,0,1,,,1,FALSE,,,,,,,,,,,,,,,,,,,,,,,,,,,,,,,
,615a0ad2ba1d3d321beadca5,627c6db9dc4071b885002cbf,2022-05-11_21h15.33.517,classification_task,2021.2.3,MacIntel,59.99880002,627c6715c52fd12f31907bd0,,,,,,,,,,,,,,,,,,,,,,,l,0,2.4899,"[""0.713"",""0.506"",""0.760"",""0.949""]","[0,1,1,1]",0,1,1,1,1,0,1,,,1,FALSE,,,,,,,,,,,,,,,,,,,,,,,,,,,,,,,
,615a0ad2ba1d3d321beadca5,627c6db9dc4071b885002cbf,2022-05-11_21h15.33.517,classification_task,2021.2.3,MacIntel,59.99880002,627c6715c52fd12f31907bd0,,,,,,,,,,,,,,,,,,,,,,,l,1,3.0845,"[""0.103"",""0.144"",""0.617"",""0.679""]","[1,1,0,1]",0,2,2,2,1,1,0,,,1,FALSE,,,,,,,,,,,,,,,,,,,,,,,,,,,,,,,
,615a0ad2ba1d3d321beadca5,627c6db9dc4071b885002cbf,2022-05-11_21h15.33.517,classification_task,2021.2.3,MacIntel,59.99880002,627c6715c52fd12f31907bd0,,,,,,,,,,,,,,,,,,,,,,,l,1,1.8881,"[""0.277"",""0.352"",""0.471"",""0.808""]","[0,1,1,1]",0,3,3,3,1,1,1,,,1,FALSE,,,,,,,,,,,,,,,,,,,,,,,,,,,,,,,
,615a0ad2ba1d3d321beadca5,627c6db9dc4071b885002cbf,2022-05-11_21h15.33.517,classification_task,2021.2.3,MacIntel,59.99880002,627c6715c52fd12f31907bd0,,,,,,,,,,,,,,,,,,,,,,,a,1,1.415,"[""0.316"",""0.415"",""0.633"",""0.909""]","[1,1,0,1]",0,4,4,4,1,0,0,,,1,FALSE,,,,,,,,,,,,,,,,,,,,,,,,,,,,,,,
,615a0ad2ba1d3d321beadca5,627c6db9dc4071b885002cbf,2022-05-11_21h15.33.517,classification_task,2021.2.3,MacIntel,59.99880002,627c6715c52fd12f31907bd0,,,,,,,,,,,,,,,,,,,,,,,l,1,1.0561,"[""0.058"",""0.352"",""0.717"",""0.808""]","[1,1,0,1]",0,5,5,5,1,1,1,,,1,FALSE,,,,,,,,,,,,,,,,,,,,,,,,,,,,,,,
,615a0ad2ba1d3d321beadca5,627c6db9dc4071b885002cbf,2022-05-11_21h15.33.517,classification_task,2021.2.3,MacIntel,59.99880002,627c6715c52fd12f31907bd0,,,,,,,,,,,,,,,,,,,,,,,a,1,3.3497,"[""0.316"",""0.415"",""0.875"",""0.277""]","[1,1,1,0]",0,6,6,6,1,0,0,,,1,FALSE,,,,,,,,,,,,,,,,,,,,,,,,,,,,,,,
,615a0ad2ba1d3d321beadca5,627c6db9dc4071b885002cbf,2022-05-11_21h15.33.517,classification_task,2021.2.3,MacIntel,59.99880002,627c6715c52fd12f31907bd0,,,,,,,,,,,,,,,,,,,,,,,l,1,3.1234,"[""0.103"",""0.633"",""0.543"",""0.679""]","[1,0,1,1]",0,7,7,7,1,1,0,,,1,FALSE,,,,,,,,,,,,,,,,,,,,,,,,,,,,,,,
,615a0ad2ba1d3d321beadca5,627c6db9dc4071b885002cbf,2022-05-11_21h15.33.517,classification_task,2021.2.3,MacIntel,59.99880002,627c6715c52fd12f31907bd0,,,,,,,,,,,,,,,,,,,,,,,l,1,0.6401,"[""0.103"",""0.144"",""0.543"",""0.275""]","[1,1,1,0]",0,8,8,8,1,1,0,,,1,FALSE,,,,,,,,,,,,,,,,,,,,,,,,,,,,,,,
,615a0ad2ba1d3d321beadca5,627c6db9dc4071b885002cbf,2022-05-11_21h15.33.517,classification_task,2021.2.3,MacIntel,59.99880002,627c6715c52fd12f31907bd0,,,,,,,,,,,,,,,,,,,,,,,a,1,1.3835,"[""0.316"",""0.584"",""0.875"",""0.909""]","[1,0,1,1]",0,9,9,9,1,0,0,,,1,FALSE,,,,,,,,,,,,,,,,,,,,,,,,,,,,,,,
,615a0ad2ba1d3d321beadca5,627c6db9dc4071b885002cbf,2022-05-11_21h15.33.517,classification_task,2021.2.3,MacIntel,59.99880002,627c6715c52fd12f31907bd0,,,,,,,,,,,,,,,,,,,,,,,a,0,1.9916,"[""0.725"",""0.144"",""0.543"",""0.679""]","[0,1,1,1]",0,10,10,10,1,1,0,,,1,FALSE,,,,,,,,,,,,,,,,,,,,,,,,,,,,,,,
,615a0ad2ba1d3d321beadca5,627c6db9dc4071b885002cbf,2022-05-11_21h15.33.517,classification_task,2021.2.3,MacIntel,59.99880002,627c6715c52fd12f31907bd0,,,,,,,,,,,,,,,,,,,,,,,a,1,1.3157,"[""0.199"",""0.263"",""0.760"",""0.949""]","[1,0,1,1]",0,11,11,11,1,0,1,,,1,FALSE,,,,,,,,,,,,,,,,,,,,,,,,,,,,,,,
,615a0ad2ba1d3d321beadca5,627c6db9dc4071b885002cbf,2022-05-11_21h15.33.517,classification_task,2021.2.3,MacIntel,59.99880002,627c6715c52fd12f31907bd0,,,,,,,,,,,,,,,,,,,,,,,l,1,0.816,"[""0.058"",""0.617"",""0.471"",""0.808""]","[1,0,1,1]",0,12,12,12,1,1,1,,,1,FALSE,,,,,,,,,,,,,,,,,,,,,,,,,,,,,,,
,615a0ad2ba1d3d321beadca5,627c6db9dc4071b885002cbf,2022-05-11_21h15.33.517,classification_task,2021.2.3,MacIntel,59.99880002,627c6715c52fd12f31907bd0,,,,,,,,,,,,,,,,,,,,,,,l,1,0.799,"[""0.058"",""0.352"",""0.471"",""0.717""]","[1,1,1,0]",0,13,13,13,1,1,1,,,1,FALSE,,,,,,,,,,,,,,,,,,,,,,,,,,,,,,,
,615a0ad2ba1d3d321beadca5,627c6db9dc4071b885002cbf,2022-05-11_21h15.33.517,classification_task,2021.2.3,MacIntel,59.99880002,627c6715c52fd12f31907bd0,,,,,,,,,,,,,,,,,,,,,,,a,1,1.4881,"[""0.199"",""0.506"",""0.239"",""0.949""]","[1,1,0,1]",0,14,14,14,1,0,1,,,1,FALSE,,,,,,,,,,,,,,,,,,,,,,,,,,,,,,,
,615a0ad2ba1d3d321beadca5,627c6db9dc4071b885002cbf,2022-05-11_21h15.33.517,classification_task,2021.2.3,MacIntel,59.99880002,627c6715c52fd12f31907bd0,,,,,,,,,,,,,,,,,,,,,,,l,0,2.3144,"[""0.717"",""0.415"",""0.875"",""0.909""]","[0,1,1,1]",0,15,15,15,1,0,0,,,1,FALSE,,,,,,,,,,,,,,,,,,,,,,,,,,,,,,,
,615a0ad2ba1d3d321beadca5,627c6db9dc4071b885002cbf,2022-05-11_21h15.33.517,classification_task,2021.2.3,MacIntel,59.99880002,627c6715c52fd12f31907bd0,,,,,,,,,,,,,,,,,,,,,,,l,1,1.3258,"[""0.103"",""0.144"",""0.543"",""0.244""]","[1,1,1,0]",0,16,16,16,1,1,0,,,1,FALSE,,,,,,,,,,,,,,,,,,,,,,,,,,,,,,,
,615a0ad2ba1d3d321beadca5,627c6db9dc4071b885002cbf,2022-05-11_21h15.33.517,classification_task,2021.2.3,MacIntel,59.99880002,627c6715c52fd12f31907bd0,,,,,,,,,,,,,,,,,,,,,,,l,1,3.302,"[""0.239"",""0.352"",""0.471"",""0.808""]","[0,1,1,1]",0,17,17,17,1,1,1,,,1,FALSE,,,,,,,,,,,,,,,,,,,,,,,,,,,,,,,
,615a0ad2ba1d3d321beadca5,627c6db9dc4071b885002cbf,2022-05-11_21h15.33.517,classification_task,2021.2.3,MacIntel,59.99880002,627c6715c52fd12f31907bd0,,,,,,,,,,,,,,,,,,,,,,,a,1,1.738,"[""0.316"",""0.589"",""0.875"",""0.909""]","[1,0,1,1]",0,18,18,18,1,0,0,,,1,FALSE,,,,,,,,,,,,,,,,,,,,,,,,,,,,,,,
,615a0ad2ba1d3d321beadca5,627c6db9dc4071b885002cbf,2022-05-11_21h15.33.517,classification_task,2021.2.3,MacIntel,59.99880002,627c6715c52fd12f31907bd0,,,,,,,,,,,,,,,,,,,,,,,l,1,1.1901,"[""0.058"",""0.352"",""0.269"",""0.808""]","[1,1,0,1]",0,19,19,19,1,1,1,,,1,FALSE,,,,,,,,,,,,,,,,,,,,,,,,,,,,,,,
,615a0ad2ba1d3d321beadca5,627c6db9dc4071b885002cbf,2022-05-11_21h15.33.517,classification_task,2021.2.3,MacIntel,59.99880002,627c6715c52fd12f31907bd0,,,,,,,,,,,,,,,,,,,,,,,l,1,0.9544,"[""0.058"",""0.625"",""0.471"",""0.808""]","[1,0,1,1]",0,20,20,20,1,1,1,,,1,FALSE,,,,,,,,,,,,,,,,,,,,,,,,,,,,,,,
,615a0ad2ba1d3d321beadca5,627c6db9dc4071b885002cbf,2022-05-11_21h15.33.517,classification_task,2021.2.3,MacIntel,59.99880002,627c6715c52fd12f31907bd0,,,,,,,,,,,,,,,,,,,,,,,l,1,1.3981,"[""0.103"",""0.239"",""0.543"",""0.679""]","[1,0,1,1]",0,21,21,21,1,1,0,,,1,FALSE,,,,,,,,,,,,,,,,,,,,,,,,,,,,,,,
,615a0ad2ba1d3d321beadca5,627c6db9dc4071b885002cbf,2022-05-11_21h15.33.517,classification_task,2021.2.3,MacIntel,59.99880002,627c6715c52fd12f31907bd0,,,,,,,,,,,,,,,,,,,,,,,a,1,2.0814,"[""0.316"",""0.415"",""0.633"",""0.909""]","[1,1,0,1]",0,22,22,22,1,0,0,,,1,FALSE,,,,,,,,,,,,,,,,,,,,,,,,,,,,,,,
,615a0ad2ba1d3d321beadca5,627c6db9dc4071b885002cbf,2022-05-11_21h15.33.517,classification_task,2021.2.3,MacIntel,59.99880002,627c6715c52fd12f31907bd0,,,,,,,,,,,,,,,,,,,,,,,a,1,2.0531,"[""0.199"",""0.506"",""0.760"",""0.263""]","[1,1,1,0]",0,23,23,23,1,0,1,,,1,FALSE,,,,,,,,,,,,,,,,,,,,,,,,,,,,,,,
,615a0ad2ba1d3d321beadca5,627c6db9dc4071b885002cbf,2022-05-11_21h15.33.517,classification_task,2021.2.3,MacIntel,59.99880002,627c6715c52fd12f31907bd0,,,,,,,,,,,,,,,,,,,,,,,a,1,0.8336,"[""0.199"",""0.275"",""0.760"",""0.949""]","[1,0,1,1]",0,24,24,24,1,0,1,,,1,FALSE,,,,,,,,,,,,,,,,,,,,,,,,,,,,,,,
,615a0ad2ba1d3d321beadca5,627c6db9dc4071b885002cbf,2022-05-11_21h15.33.517,classification_task,2021.2.3,MacIntel,59.99880002,627c6715c52fd12f31907bd0,,,,,,,,,,,,,,,,,,,,,,,a,1,0.9029,"[""0.199"",""0.506"",""0.584"",""0.949""]","[1,1,0,1]",0,25,25,25,1,0,1,,,1,FALSE,,,,,,,,,,,,,,,,,,,,,,,,,,,,,,,
,615a0ad2ba1d3d321beadca5,627c6db9dc4071b885002cbf,2022-05-11_21h15.33.517,classification_task,2021.2.3,MacIntel,59.99880002,627c6715c52fd12f31907bd0,,,,,,,,,,,,,,,,,,,,,,,l,1,1.2837,"[""0.103"",""0.144"",""0.277"",""0.679""]","[1,1,0,1]",0,26,26,26,1,1,0,,,1,FALSE,,,,,,,,,,,,,,,,,,,,,,,,,,,,,,,
,615a0ad2ba1d3d321beadca5,627c6db9dc4071b885002cbf,2022-05-11_21h15.33.517,classification_task,2021.2.3,MacIntel,59.99880002,627c6715c52fd12f31907bd0,,,,,,,,,,,,,,,,,,,,,,,l,1,2.3539,"[""0.589"",""0.144"",""0.543"",""0.679""]","[0,1,1,1]",0,27,27,27,1,1,0,,,1,FALSE,,,,,,,,,,,,,,,,,,,,,,,,,,,,,,,
,615a0ad2ba1d3d321beadca5,627c6db9dc4071b885002cbf,2022-05-11_21h15.33.517,classification_task,2021.2.3,MacIntel,59.99880002,627c6715c52fd12f31907bd0,,,,,,,,,,,,,,,,,,,,,,,a,1,2.2865,"[""0.263"",""0.415"",""0.875"",""0.909""]","[0,1,1,1]",0,28,28,28,1,0,0,,,1,FALSE,,,,,,,,,,,,,,,,,,,,,,,,,,,,,,,
,615a0ad2ba1d3d321beadca5,627c6db9dc4071b885002cbf,2022-05-11_21h15.33.517,classification_task,2021.2.3,MacIntel,59.99880002,627c6715c52fd12f31907bd0,,,,,,,,,,,,,,,,,,,,,,,a,1,0.9221,"[""0.316"",""0.415"",""0.875"",""0.633""]","[1,1,1,0]",0,29,29,29,1,0,0,,,1,FALSE,,,,,,,,,,,,,,,,,,,,,,,,,,,,,,,
,615a0ad2ba1d3d321beadca5,627c6db9dc4071b885002cbf,2022-05-11_21h15.33.517,classification_task,2021.2.3,MacIntel,59.99880002,627c6715c52fd12f31907bd0,,,,,,,,,,,,,,,,,,,,,,,a,1,1.251,"[""0.277"",""0.506"",""0.760"",""0.949""]","[0,1,1,1]",0,30,30,30,1,0,1,,,1,FALSE,,,,,,,,,,,,,,,,,,,,,,,,,,,,,,,
,615a0ad2ba1d3d321beadca5,627c6db9dc4071b885002cbf,2022-05-11_21h15.33.517,classification_task,2021.2.3,MacIntel,59.99880002,627c6715c52fd12f31907bd0,,,,,,,,,,,,,,,,,,,,,,,l,1,0.8916,"[""0.058"",""0.352"",""0.471"",""0.713""]","[1,1,1,0]",0,31,31,31,1,1,1,,,1,FALSE,,,,,,,,,,,,,,,,,,,,,,,,,,,,,,,
,615a0ad2ba1d3d321beadca5,627c6db9dc4071b885002cbf,2022-05-11_21h15.33.517,classification_task,2021.2.3,MacIntel,59.99880002,627c6715c52fd12f31907bd0,,,,,,,,,,,,,,,,,,,,,,,a,1,3.1302,"[""0.199"",""0.506"",""0.760"",""0.277""]","[1,1,1,0]",0,32,32,32,1,0,1,,,1,FALSE,,,,,,,,,,,,,,,,,,,,,,,,,,,,,,,
,615a0ad2ba1d3d321beadca5,627c6db9dc4071b885002cbf,2022-05-11_21h15.33.517,classification_task,2021.2.3,MacIntel,59.99880002,627c6715c52fd12f31907bd0,,,,,,,,,,,,,,,,,,,,,,,a,1,1.9888,"[""0.316"",""0.415"",""0.875"",""0.725""]","[1,1,1,0]",0,33,33,33,1,0,0,,,1,FALSE,,,,,,,,,,,,,,,,,,,,,,,,,,,,,,,
,615a0ad2ba1d3d321beadca5,627c6db9dc4071b885002cbf,2022-05-11_21h15.33.517,classification_task,2021.2.3,MacIntel,59.99880002,627c6715c52fd12f31907bd0,,,,,,,,,,,,,,,,,,,,,,,l,1,1.0015,"[""0.103"",""0.609"",""0.543"",""0.679""]","[1,0,1,1]",0,34,34,34,1,1,0,,,1,FALSE,,,,,,,,,,,,,,,,,,,,,,,,,,,,,,,
,615a0ad2ba1d3d321beadca5,627c6db9dc4071b885002cbf,2022-05-11_21h15.33.517,classification_task,2021.2.3,MacIntel,59.99880002,627c6715c52fd12f31907bd0,,,,,,,,,,,,,,,,,,,,,,,l,1,0.9577,"[""0.058"",""0.352"",""0.713"",""0.808""]","[1,1,0,1]",0,35,35,35,1,1,1,,,1,FALSE,,,,,,,,,,,,,,,,,,,,,,,,,,,,,,,
,615a0ad2ba1d3d321beadca5,627c6db9dc4071b885002cbf,2022-05-11_21h15.33.517,classification_task,2021.2.3,MacIntel,59.99880002,627c6715c52fd12f31907bd0,,,,,,,,,,,,,,,,,,,,,,,l,1,0.7991,"[""0.058"",""0.352"",""0.471"",""0.625""]","[1,1,1,0]",0,36,36,36,1,1,1,,,1,FALSE,,,,,,,,,,,,,,,,,,,,,,,,,,,,,,,
,615a0ad2ba1d3d321beadca5,627c6db9dc4071b885002cbf,2022-05-11_21h15.33.517,classification_task,2021.2.3,MacIntel,59.99880002,627c6715c52fd12f31907bd0,,,,,,,,,,,,,,,,,,,,,,,l,0,3.669,"[""0.625"",""0.506"",""0.760"",""0.949""]","[0,1,1,1]",0,37,37,37,1,0,1,,,1,FALSE,,,,,,,,,,,,,,,,,,,,,,,,,,,,,,,
,615a0ad2ba1d3d321beadca5,627c6db9dc4071b885002cbf,2022-05-11_21h15.33.517,classification_task,2021.2.3,MacIntel,59.99880002,627c6715c52fd12f31907bd0,,,,,,,,,,,,,,,,,,,,,,,a,0,1.7017,"[""0.633"",""0.352"",""0.471"",""0.808""]","[0,1,1,1]",0,38,38,38,1,1,1,,,1,FALSE,,,,,,,,,,,,,,,,,,,,,,,,,,,,,,,
,615a0ad2ba1d3d321beadca5,627c6db9dc4071b885002cbf,2022-05-11_21h15.33.517,classification_task,2021.2.3,MacIntel,59.99880002,627c6715c52fd12f31907bd0,,,,,,,,,,,,,,,,,,,,,,,l,1,1.7726,"[""0.617"",""0.144"",""0.543"",""0.679""]","[0,1,1,1]",0,39,39,39,1,1,0,,,1,FALSE,,,,,,,,,,,,,,,,,,,,,,,,,,,,,,,
,615a0ad2ba1d3d321beadca5,627c6db9dc4071b885002cbf,2022-05-11_21h15.33.517,classification_task,2021.2.3,MacIntel,59.99880002,627c6715c52fd12f31907bd0,,,,,,,,,,,,,,,,,,,,,,,l,1,1.0803,"[""0.058"",""0.725"",""0.471"",""0.808""]","[1,0,1,1]",0,40,40,40,1,1,1,,,1,FALSE,,,,,,,,,,,,,,,,,,,,,,,,,,,,,,,
,615a0ad2ba1d3d321beadca5,627c6db9dc4071b885002cbf,2022-05-11_21h15.33.517,classification_task,2021.2.3,MacIntel,59.99880002,627c6715c52fd12f31907bd0,,,,,,,,,,,,,,,,,,,,,,,l,0,1.715,"[""0.609"",""0.415"",""0.875"",""0.909""]","[0,1,1,1]",0,41,41,41,1,0,0,,,1,FALSE,,,,,,,,,,,,,,,,,,,,,,,,,,,,,,,
,615a0ad2ba1d3d321beadca5,627c6db9dc4071b885002cbf,2022-05-11_21h15.33.517,classification_task,2021.2.3,MacIntel,59.99880002,627c6715c52fd12f31907bd0,,,,,,,,,,,,,,,,,,,,,,,a,1,1.0699,"[""0.316"",""0.263"",""0.875"",""0.909""]","[1,0,1,1]",0,42,42,42,1,0,0,,,1,FALSE,,,,,,,,,,,,,,,,,,,,,,,,,,,,,,,
,615a0ad2ba1d3d321beadca5,627c6db9dc4071b885002cbf,2022-05-11_21h15.33.517,classification_task,2021.2.3,MacIntel,59.99880002,627c6715c52fd12f31907bd0,,,,,,,,,,,,,,,,,,,,,,,a,1,1.3769,"[""0.199"",""0.609"",""0.760"",""0.949""]","[1,0,1,1]",0,43,43,43,1,0,1,,,1,FALSE,,,,,,,,,,,,,,,,,,,,,,,,,,,,,,,
,615a0ad2ba1d3d321beadca5,627c6db9dc4071b885002cbf,2022-05-11_21h15.33.517,classification_task,2021.2.3,MacIntel,59.99880002,627c6715c52fd12f31907bd0,,,,,,,,,,,,,,,,,,,,,,,a,1,1.1986,"[""0.316"",""0.415"",""0.584"",""0.909""]","[1,1,0,1]",0,44,44,44,1,0,0,,,1,FALSE,,,,,,,,,,,,,,,,,,,,,,,,,,,,,,,
,615a0ad2ba1d3d321beadca5,627c6db9dc4071b885002cbf,2022-05-11_21h15.33.517,classification_task,2021.2.3,MacIntel,59.99880002,627c6715c52fd12f31907bd0,,,,,,,,,,,,,,,,,,,,,,,l,1,1.2329,"[""0.103"",""0.144"",""0.584"",""0.679""]","[1,1,0,1]",0,45,45,45,1,1,0,,,1,FALSE,,,,,,,,,,,,,,,,,,,,,,,,,,,,,,,
,615a0ad2ba1d3d321beadca5,627c6db9dc4071b885002cbf,2022-05-11_21h15.33.517,classification_task,2021.2.3,MacIntel,59.99880002,627c6715c52fd12f31907bd0,,,,,,,,,,,,,,,,,,,,,,,l,1,0.616,"[""0.103"",""0.144"",""0.543"",""0.263""]","[1,1,1,0]",0,46,46,46,1,1,0,,,1,FALSE,,,,,,,,,,,,,,,,,,,,,,,,,,,,,,,
,615a0ad2ba1d3d321beadca5,627c6db9dc4071b885002cbf,2022-05-11_21h15.33.517,classification_task,2021.2.3,MacIntel,59.99880002,627c6715c52fd12f31907bd0,,,,,,,,,,,,,,,,,,,,,,,a,1,2.1345,"[""0.199"",""0.506"",""0.584"",""0.949""]","[1,1,0,1]",0,47,47,47,1,0,1,,,1,FALSE,,,,,,,,,,,,,,,,,,,,,,,,,,,,,,,
,615a0ad2ba1d3d321beadca5,627c6db9dc4071b885002cbf,2022-05-11_21h15.33.517,classification_task,2021.2.3,MacIntel,59.99880002,627c6715c52fd12f31907bd0,,,,,,,,,,,,,,,,,,,,,,,a,1,0.8239,"[""0.199"",""0.506"",""0.760"",""0.239""]","[1,1,1,0]",0,48,48,48,1,0,1,,,1,FALSE,,,,,,,,,,,,,,,,,,,,,,,,,,,,,,,
,615a0ad2ba1d3d321beadca5,627c6db9dc4071b885002cbf,2022-05-11_21h15.33.517,classification_task,2021.2.3,MacIntel,59.99880002,627c6715c52fd12f31907bd0,,,,,,,,,,,,,,,,,,,,,,,l,1,1.0205,"[""0.058"",""0.352"",""0.471"",""0.275""]","[1,1,1,0]",0,49,49,49,1,1,1,,,1,FALSE,,,,,,,,,,,,,,,,,,,,,,,,,,,,,,,
,615a0ad2ba1d3d321beadca5,627c6db9dc4071b885002cbf,2022-05-11_21h15.33.517,classification_task,2021.2.3,MacIntel,59.99880002,627c6715c52fd12f31907bd0,,,,,,,,,,,,,,,,,,,,,,,a,1,1.2352,"[""0.316"",""0.415"",""0.717"",""0.909""]","[1,1,0,1]",0,50,50,50,1,0,0,,,1,FALSE,,,,,,,,,,,,,,,,,,,,,,,,,,,,,,,
,615a0ad2ba1d3d321beadca5,627c6db9dc4071b885002cbf,2022-05-11_21h15.33.517,classification_task,2021.2.3,MacIntel,59.99880002,627c6715c52fd12f31907bd0,,,,,,,,,,,,,,,,,,,,,,,a,1,1.369,"[""0.199"",""0.506"",""0.244"",""0.949""]","[1,1,0,1]",0,51,51,51,1,0,1,,,1,FALSE,,,,,,,,,,,,,,,,,,,,,,,,,,,,,,,
,615a0ad2ba1d3d321beadca5,627c6db9dc4071b885002cbf,2022-05-11_21h15.33.517,classification_task,2021.2.3,MacIntel,59.99880002,627c6715c52fd12f31907bd0,,,,,,,,,,,,,,,,,,,,,,,a,1,1.0674,"[""0.316"",""0.589"",""0.875"",""0.909""]","[1,0,1,1]",0,52,52,52,1,0,0,,,1,FALSE,,,,,,,,,,,,,,,,,,,,,,,,,,,,,,,
,615a0ad2ba1d3d321beadca5,627c6db9dc4071b885002cbf,2022-05-11_21h15.33.517,classification_task,2021.2.3,MacIntel,59.99880002,627c6715c52fd12f31907bd0,,,,,,,,,,,,,,,,,,,,,,,l,1,0.9662,"[""0.103"",""0.584"",""0.543"",""0.679""]","[1,0,1,1]",0,53,53,53,1,1,0,,,1,FALSE,,,,,,,,,,,,,,,,,,,,,,,,,,,,,,,
,615a0ad2ba1d3d321beadca5,627c6db9dc4071b885002cbf,2022-05-11_21h15.33.517,classification_task,2021.2.3,MacIntel,59.99880002,627c6715c52fd12f31907bd0,,,,,,,,,,,,,,,,,,,,,,,l,0,1.3661,"[""0.244"",""0.506"",""0.760"",""0.949""]","[0,1,1,1]",0,54,54,54,1,0,1,,,1,FALSE,,,,,,,,,,,,,,,,,,,,,,,,,,,,,,,
,615a0ad2ba1d3d321beadca5,627c6db9dc4071b885002cbf,2022-05-11_21h15.33.517,classification_task,2021.2.3,MacIntel,59.99880002,627c6715c52fd12f31907bd0,,,,,,,,,,,,,,,,,,,,,,,l,1,0.9363,"[""0.103"",""0.144"",""0.244"",""0.679""]","[1,1,0,1]",0,55,55,55,1,1,0,,,1,FALSE,,,,,,,,,,,,,,,,,,,,,,,,,,,,,,,
,615a0ad2ba1d3d321beadca5,627c6db9dc4071b885002cbf,2022-05-11_21h15.33.517,classification_task,2021.2.3,MacIntel,59.99880002,627c6715c52fd12f31907bd0,,,,,,,,,,,,,,,,,,,,,,,l,1,0.8159,"[""0.103"",""0.144"",""0.543"",""0.277""]","[1,1,1,0]",0,56,56,56,1,1,0,,,1,FALSE,,,,,,,,,,,,,,,,,,,,,,,,,,,,,,,
,615a0ad2ba1d3d321beadca5,627c6db9dc4071b885002cbf,2022-05-11_21h15.33.517,classification_task,2021.2.3,MacIntel,59.99880002,627c6715c52fd12f31907bd0,,,,,,,,,,,,,,,,,,,,,,,l,1,0.9514,"[""0.058"",""0.352"",""0.263"",""0.808""]","[1,1,0,1]",0,57,57,57,1,1,1,,,1,FALSE,,,,,,,,,,,,,,,,,,,,,,,,,,,,,,,
,615a0ad2ba1d3d321beadca5,627c6db9dc4071b885002cbf,2022-05-11_21h15.33.517,classification_task,2021.2.3,MacIntel,59.99880002,627c6715c52fd12f31907bd0,,,,,,,,,,,,,,,,,,,,,,,l,1,0.7652,"[""0.058"",""0.275"",""0.471"",""0.808""]","[1,0,1,1]",0,58,58,58,1,1,1,,,1,FALSE,,,,,,,,,,,,,,,,,,,,,,,,,,,,,,,
,615a0ad2ba1d3d321beadca5,627c6db9dc4071b885002cbf,2022-05-11_21h15.33.517,classification_task,2021.2.3,MacIntel,59.99880002,627c6715c52fd12f31907bd0,,,,,,,,,,,,,,,,,,,,,,,a,0,1.4498,"[""0.277"",""0.352"",""0.471"",""0.808""]","[0,1,1,1]",0,59,59,59,1,1,1,,,1,FALSE,,,,,,,,,,,,,,,,,,,,,,,,,,,,,,,
,615a0ad2ba1d3d321beadca5,627c6db9dc4071b885002cbf,2022-05-11_21h15.33.517,classification_task,2021.2.3,MacIntel,59.99880002,627c6715c52fd12f31907bd0,,,,,,,,,,,,,,,,,,,,,,,l,0,1.4531,"[""0.316"",""0.415"",""0.875"",""0.263""]","[1,1,1,0]",0,60,60,60,1,0,0,,,1,FALSE,,,,,,,,,,,,,,,,,,,,,,,,,,,,,,,
,615a0ad2ba1d3d321beadca5,627c6db9dc4071b885002cbf,2022-05-11_21h15.33.517,classification_task,2021.2.3,MacIntel,59.99880002,627c6715c52fd12f31907bd0,,,,,,,,,,,,,,,,,,,,,,,l,1,1.3035,"[""0.633"",""0.144"",""0.543"",""0.679""]","[0,1,1,1]",0,61,61,61,1,1,0,,,1,FALSE,,,,,,,,,,,,,,,,,,,,,,,,,,,,,,,
,615a0ad2ba1d3d321beadca5,627c6db9dc4071b885002cbf,2022-05-11_21h15.33.517,classification_task,2021.2.3,MacIntel,59.99880002,627c6715c52fd12f31907bd0,,,,,,,,,,,,,,,,,,,,,,,a,1,1.0154,"[""0.199"",""0.584"",""0.760"",""0.949""]","[1,0,1,1]",0,62,62,62,1,0,1,,,1,FALSE,,,,,,,,,,,,,,,,,,,,,,,,,,,,,,,
,615a0ad2ba1d3d321beadca5,627c6db9dc4071b885002cbf,2022-05-11_21h15.33.517,classification_task,2021.2.3,MacIntel,59.99880002,627c6715c52fd12f31907bd0,,,,,,,,,,,,,,,,,,,,,,,l,0,1.2686,"[""0.239"",""0.415"",""0.875"",""0.909""]","[0,1,1,1]",0,63,63,63,1,0,0,,,1,FALSE,,,,,,,,,,,,,,,,,,,,,,,,,,,,,,,
,615a0ad2ba1d3d321beadca5,627c6db9dc4071b885002cbf,2022-05-11_21h15.33.517,classification_task,2021.2.3,MacIntel,59.99880002,627c6715c52fd12f31907bd0,,,,,,,,,,,,,,,,,,,,,,,,,,,,,,,,,,,,,,,0, ,,0,4.588247722,177.2256,0,2,2,2,1,2,3,,,,,,,,,,,,,,,,,,
,615a0ad2ba1d3d321beadca5,627c6db9dc4071b885002cbf,2022-05-11_21h15.33.517,classification_task,2021.2.3,MacIntel,59.99880002,627c6715c52fd12f31907bd0,,,,,,,,,,,,,,,,,,,,,,,,,,,,,,,,,,,,,,,1,  ,,0,10,180.4423,0,2,2,2,1,2,3,,,,,,,,,,,,,,,,,,
,615a0ad2ba1d3d321beadca5,627c6db9dc4071b885002cbf,2022-05-11_21h15.33.517,classification_task,2021.2.3,MacIntel,59.99880002,627c6715c52fd12f31907bd0,,,,,,,,,,,,,,,,,,,,,,,,,,,,,,,,,,,,,,,2,  ,,0,0.690264918,187.0724,0,2,2,2,1,2,3,,,,,,,,,,,,,,,,,,
,615a0ad2ba1d3d321beadca5,627c6db9dc4071b885002cbf,2022-05-11_21h15.33.517,classification_task,2021.2.3,MacIntel,59.99880002,627c6715c52fd12f31907bd0,,,,,,,,,,,,,,,,,,,,,,,,,,,,,,,,,,,,,,,,,,,,,0,2,2,2,1,,3,,,,,,,,,,,,,,,,,,
,615a0ad2ba1d3d321beadca5,627c6db9dc4071b885002cbf,2022-05-11_21h15.33.517,classification_task,2021.2.3,MacIntel,59.99880002,627c6715c52fd12f31907bd0,,,,,,,,,,,,,,,,,,,,,,,,,,,,,,,,,,,,,,,,,,,,,,,,,,,,,I believe the aid is a competent performer,,0.7,0,3,986.1361,0,0,0,0,1,0,,,,,
,615a0ad2ba1d3d321beadca5,627c6db9dc4071b885002cbf,2022-05-11_21h15.33.517,classification_task,2021.2.3,MacIntel,59.99880002,627c6715c52fd12f31907bd0,,,,,,,,,,,,,,,,,,,,,,,,,,,,,,,,,,,,,,,,,,,,,,,,,,,,,I trust the aid,,0.7,0,1,988.2618,0,0,0,0,1,0,,,,,
,615a0ad2ba1d3d321beadca5,627c6db9dc4071b885002cbf,2022-05-11_21h15.33.517,classification_task,2021.2.3,MacIntel,59.99880002,627c6715c52fd12f31907bd0,,,,,,,,,,,,,,,,,,,,,,,,,,,,,,,,,,,,,,,,,,,,,,,,,,,,,I have confidence in the advice given by the aid,,0.7,0,1,991.1402,0,0,0,0,1,0,,,,,
,615a0ad2ba1d3d321beadca5,627c6db9dc4071b885002cbf,2022-05-11_21h15.33.517,classification_task,2021.2.3,MacIntel,59.99880002,627c6715c52fd12f31907bd0,,,,,,,,,,,,,,,,,,,,,,,,,,,,,,,,,,,,,,,,,,,,,,,,,,,,,I can depend on the aid,,0.7,0,1,995.7339,0,0,0,0,1,0,,,,,
,615a0ad2ba1d3d321beadca5,627c6db9dc4071b885002cbf,2022-05-11_21h15.33.517,classification_task,2021.2.3,MacIntel,59.99880002,627c6715c52fd12f31907bd0,,,,,,,,,,,,,,,,,,,,,,,,,,,,,,,,,,,,,,,,,,,,,,,,,,,,,I can rely on the aid to behave in consistent ways,,0.7,0,1,1012.0042,0,0,0,0,1,0,,,,,
,615a0ad2ba1d3d321beadca5,627c6db9dc4071b885002cbf,2022-05-11_21h15.33.517,classification_task,2021.2.3,MacIntel,59.99880002,627c6715c52fd12f31907bd0,,,,,,,,,,,,,,,,,,,,,,,,,,,,,,,,,,,,,,,,,,,,,,,,,,,,,I can rely on the aid to do its best every time I take its advice,,0.7,0,1,999.7817,0,0,0,0,1,0,,,,,
,615a0ad2ba1d3d321beadca5,627c6db9dc4071b885002cbf,2022-05-11_21h15.33.517,classification_task,2021.2.3,MacIntel,59.99880002,627c6715c52fd12f31907bd0,,,,,,,,,,,,,,,,,,,,,,,,,,,,,,,,,,,,,,,,,,,,,,,,,,,,,"On trials you completed with assistance from the aid, how frequently did you think the aid was correct?",,0.7,0,50%,,0,0,0,0,1,0,,,,,
,615a0ad2ba1d3d321beadca5,627c6db9dc4071b885002cbf,2022-05-11_21h15.33.517,classification_task,2021.2.3,MacIntel,59.99880002,627c6715c52fd12f31907bd0,,,,,,,,,,,,,,,,,,,,,,,,,,,,,,,,,,,,,,,,,,,,,,,,,,,,,"On trials you completed without the aid, how frequently did you think you were correct?",,0.7,0,50%,,0,0,0,0,1,0,,,,,
,615a0ad2ba1d3d321beadca5,627c6db9dc4071b885002cbf,2022-05-11_21h15.33.517,classification_task,2021.2.3,MacIntel,59.99880002,627c6715c52fd12f31907bd0,,,,,,,,,,,,,,,,,,,,,,,,,,,,,,,,,,,,,,,,,,,,,,,,,,,,,,,,,,,0,0,0,0,1,,,,,,
,615a0ad2ba1d3d321beadca5,627c6db9dc4071b885002cbf,2022-05-11_21h15.33.517,classification_task,2021.2.3,MacIntel,59.99880002,627c6715c52fd12f31907bd0,,,,,,,,,,,,,,,,,,,,,,,,,,,,,,,,,,,,,,,,,,,,,,,,,,,,,,,,,,,,,,,,,space,11.5322,1037.7172,,
,615a0ad2ba1d3d321beadca5,627c6db9dc4071b885002cbf,2022-05-11_21h15.33.517,classification_task,2021.2.3,MacIntel,59.99880002,627c6715c52fd12f31907bd0,,,,,,,,,,,,,,,,,,,,,,,,,,,,,,,,,,,,,,,,,,,,,,,,,,,,,,,,,,,,,,,,,,,,"Mozilla/5.0 (Macintosh; Intel Mac OS X 10_14_6) AppleWebKit/537.36 (KHTML, like Gecko) Chrome/100.0.4896.75 Safari/537.36",
,615a0ad2ba1d3d321beadca5,627c6db9dc4071b885002cbf,2022-05-11_21h15.33.517,classification_task,2021.2.3,MacIntel,59.99880002,627c6715c52fd12f31907bd0,,,,,,,,,,,,,,,,,,,,,,,,,,,,,,,,,,,,,,,,,,,,,,,,,,,,,,,,,,,,,,,,,,,,,LOWLIGHT
