usingWebGL,participant,session,date,expName,psychopyVersion,OS,frameRate,PROLIFIC_PID,STUDY_ID,SESSION_ID,signatures_friend,signatures_foe,band_ranges_top,band_ranges_bottom,formitemText,formtype,formundefined,formitemWidth,formindex,formresponse,formrt,key_resp_2.keys,key_resp_2.rt,tute_resp.keys,tute_resp.rt,tutorial.thisRepN,tutorial.thisTrialN,tutorial.thisN,tutorial.thisIndex,tutorial.ran,key_resp_4.keys,key_resp_4.rt,key_resp.keys,key_resp.corr,key_resp.rt,lines_presented,is_signal_presented,trials.thisRepN,trials.thisTrialN,trials.thisN,trials.thisIndex,trials.ran,vessel,active_band,lines,is_signal,supported_pos,catch_trial,debrief_formindex,debrief_formitemText,debrief_formtype,debrief_formitemWidth,debrief_formresponse,debrief_formrt,phases.thisRepN,phases.thisTrialN,phases.thisN,phases.thisIndex,phases.ran,phases.order,phase,key_resp_3.keys,trustitemText,trusttype,trustitemWidth,trustindex,trustresponse,trustrt,support_status.thisRepN,support_status.thisTrialN,support_status.thisN,support_status.thisIndex,support_status.ran,support_status.order,key_resp_5.keys,key_resp_5.rt,globalClockTime,userAgent
TRUE,615b4d67bd21e66571f5581b,001,2022-04-28_20h17.01.580,classification_task,2021.2.3,MacIntel,60.0024001,615b4d67bd21e66571f5581b,626b377229c10585ec392f8a,626b3c7510b7b3eb45797a05,,,,,,,,,,,,,,,,,,,,,,,,,,,,,,,,,,,,,,,,,,,,,,,,,,,,,,,,,,,,,,,,,,,,
,615b4d67bd21e66571f5581b,001,2022-04-28_20h17.01.580,classification_task,2021.2.3,MacIntel,60.0024001,615b4d67bd21e66571f5581b,626b377229c10585ec392f8a,626b3c7510b7b3eb45797a05,"[[""0.317"",""0.530"",""0.890"",""0.929""],[""0.179"",""0.485"",""0.700"",""0.963""]]","[[""0.030"",""0.371"",""0.437"",""0.761""],[""0.144"",""0.250"",""0.597"",""0.843""]]","[1,10]","[100,1000]",Video game experience,,,0.7,0,,,,,,,,,,,,,,,,,,,,,,,,,,,,,,,,,,,,,,,,,,,,,,,,,,,,,,,,,,,
,615b4d67bd21e66571f5581b,001,2022-04-28_20h17.01.580,classification_task,2021.2.3,MacIntel,60.0024001,615b4d67bd21e66571f5581b,626b377229c10585ec392f8a,626b3c7510b7b3eb45797a05,,,,,Approximately how many hours did you spend playing video games in the last week?,,,0.7,0,2,,,,,,,,,,,,,,,,,,,,,,,,,,,,,,,,,,,,,,,,,,,,,,,,,,,,,,,,,,
,615b4d67bd21e66571f5581b,001,2022-04-28_20h17.01.580,classification_task,2021.2.3,MacIntel,60.0024001,615b4d67bd21e66571f5581b,626b377229c10585ec392f8a,626b3c7510b7b3eb45797a05,,,,,"Which game did you play the most this year? (Enter ""None"" if you didn't play any)",,,0.7,0,minecraft,,,,,,,,,,,,,,,,,,,,,,,,,,,,,,,,,,,,,,,,,,,,,,,,,,,,,,,,,,
,615b4d67bd21e66571f5581b,001,2022-04-28_20h17.01.580,classification_task,2021.2.3,MacIntel,60.0024001,615b4d67bd21e66571f5581b,626b377229c10585ec392f8a,626b3c7510b7b3eb45797a05,,,,,Visual perception,,,0.7,0,,,,,,,,,,,,,,,,,,,,,,,,,,,,,,,,,,,,,,,,,,,,,,,,,,,,,,,,,,,
,615b4d67bd21e66571f5581b,001,2022-04-28_20h17.01.580,classification_task,2021.2.3,MacIntel,60.0024001,615b4d67bd21e66571f5581b,626b377229c10585ec392f8a,626b3c7510b7b3eb45797a05,,,,,Do you have any form of color blindness?,,,0.7,0,No,24.4886,,,,,,,,,,,,,,,,,,,,,,,,,,,,,,,,,,,,,,,,,,,,,,,,,,,,,,,,,
,615b4d67bd21e66571f5581b,001,2022-04-28_20h17.01.580,classification_task,2021.2.3,MacIntel,60.0024001,615b4d67bd21e66571f5581b,626b377229c10585ec392f8a,626b3c7510b7b3eb45797a05,,,,,Do you use software to change the colour temperature of your screen (e.g. f.lux)?,,,0.7,0,No,27.878,,,,,,,,,,,,,,,,,,,,,,,,,,,,,,,,,,,,,,,,,,,,,,,,,,,,,,,,,
,615b4d67bd21e66571f5581b,001,2022-04-28_20h17.01.580,classification_task,2021.2.3,MacIntel,60.0024001,615b4d67bd21e66571f5581b,626b377229c10585ec392f8a,626b3c7510b7b3eb45797a05,,,,,,,,,,,,space,112.769,space,7.9097,0,0,0,0,1,,,,,,,,,,,,,,,,,,,,,,,,,,,,,,,,,,,,,,,,,,,,,,,,
,615b4d67bd21e66571f5581b,001,2022-04-28_20h17.01.580,classification_task,2021.2.3,MacIntel,60.0024001,615b4d67bd21e66571f5581b,626b377229c10585ec392f8a,626b3c7510b7b3eb45797a05,,,,,,,,,,,,,,space,9.8204,1,0,1,0,1,,,,,,,,,,,,,,,,,,,,,,,,,,,,,,,,,,,,,,,,,,,,,,,,
,615b4d67bd21e66571f5581b,001,2022-04-28_20h17.01.580,classification_task,2021.2.3,MacIntel,60.0024001,615b4d67bd21e66571f5581b,626b377229c10585ec392f8a,626b3c7510b7b3eb45797a05,,,,,,,,,,,,,,space,28.2992,2,0,2,0,1,,,,,,,,,,,,,,,,,,,,,,,,,,,,,,,,,,,,,,,,,,,,,,,,
,615b4d67bd21e66571f5581b,001,2022-04-28_20h17.01.580,classification_task,2021.2.3,MacIntel,60.0024001,615b4d67bd21e66571f5581b,626b377229c10585ec392f8a,626b3c7510b7b3eb45797a05,,,,,,,,,,,,,,space,29.5852,3,0,3,0,1,,,,,,,,,,,,,,,,,,,,,,,,,,,,,,,,,,,,,,,,,,,,,,,,
,615b4d67bd21e66571f5581b,001,2022-04-28_20h17.01.580,classification_task,2021.2.3,MacIntel,60.0024001,615b4d67bd21e66571f5581b,626b377229c10585ec392f8a,626b3c7510b7b3eb45797a05,,,,,,,,,,,,,,space,19.6812,4,0,4,0,1,,,,,,,,,,,,,,,,,,,,,,,,,,,,,,,,,,,,,,,,,,,,,,,,
,615b4d67bd21e66571f5581b,001,2022-04-28_20h17.01.580,classification_task,2021.2.3,MacIntel,60.0024001,615b4d67bd21e66571f5581b,626b377229c10585ec392f8a,626b3c7510b7b3eb45797a05,,,,,,,,,,,,,,,,,,,,,space,22.3073,l,1,7.3617,"[""0.144"",""0.250"",""0.283"",""0.843""]","[1,1,0,1]",0,0,0,0,1,1,1,,,1,FALSE,,,,,,,,,,,,,,,,,,,,,,,,,,,,,,
,615b4d67bd21e66571f5581b,001,2022-04-28_20h17.01.580,classification_task,2021.2.3,MacIntel,60.0024001,615b4d67bd21e66571f5581b,626b377229c10585ec392f8a,626b3c7510b7b3eb45797a05,,,,,,,,,,,,,,,,,,,,,,,l,1,5.7852,"[""0.144"",""0.250"",""0.597"",""0.215""]","[1,1,1,0]",0,1,1,1,1,1,1,,,1,FALSE,,,,,,,,,,,,,,,,,,,,,,,,,,,,,,
,615b4d67bd21e66571f5581b,001,2022-04-28_20h17.01.580,classification_task,2021.2.3,MacIntel,60.0024001,615b4d67bd21e66571f5581b,626b377229c10585ec392f8a,626b3c7510b7b3eb45797a05,,,,,,,,,,,,,,,,,,,,,,,a,1,4.834,"[""0.179"",""0.485"",""0.805"",""0.963""]","[1,1,0,1]",0,2,2,2,1,0,1,,,1,FALSE,,,,,,,,,,,,,,,,,,,,,,,,,,,,,,
,615b4d67bd21e66571f5581b,001,2022-04-28_20h17.01.580,classification_task,2021.2.3,MacIntel,60.0024001,615b4d67bd21e66571f5581b,626b377229c10585ec392f8a,626b3c7510b7b3eb45797a05,,,,,,,,,,,,,,,,,,,,,,,l,1,4.9153,"[""0.144"",""0.215"",""0.597"",""0.843""]","[1,0,1,1]",0,3,3,3,1,1,1,,,1,FALSE,,,,,,,,,,,,,,,,,,,,,,,,,,,,,,
,615b4d67bd21e66571f5581b,001,2022-04-28_20h17.01.580,classification_task,2021.2.3,MacIntel,60.0024001,615b4d67bd21e66571f5581b,626b377229c10585ec392f8a,626b3c7510b7b3eb45797a05,,,,,,,,,,,,,,,,,,,,,,,l,0,5.8951,"[""0.081"",""0.530"",""0.890"",""0.929""]","[0,1,1,1]",0,4,4,4,1,0,0,,,1,FALSE,,,,,,,,,,,,,,,,,,,,,,,,,,,,,,
,615b4d67bd21e66571f5581b,001,2022-04-28_20h17.01.580,classification_task,2021.2.3,MacIntel,60.0024001,615b4d67bd21e66571f5581b,626b377229c10585ec392f8a,626b3c7510b7b3eb45797a05,,,,,,,,,,,,,,,,,,,,,,,l,1,8.2327,"[""0.079"",""0.371"",""0.437"",""0.761""]","[0,1,1,1]",0,5,5,5,1,1,0,,,1,FALSE,,,,,,,,,,,,,,,,,,,,,,,,,,,,,,
,615b4d67bd21e66571f5581b,001,2022-04-28_20h17.01.580,classification_task,2021.2.3,MacIntel,60.0024001,615b4d67bd21e66571f5581b,626b377229c10585ec392f8a,626b3c7510b7b3eb45797a05,,,,,,,,,,,,,,,,,,,,,,,,0,,"[""0.317"",""0.530"",""0.283"",""0.929""]","[1,1,0,1]",0,6,6,6,1,0,0,,,1,FALSE,,,,,,,,,,,,,,,,,,,,,,,,,,,,,,
,615b4d67bd21e66571f5581b,001,2022-04-28_20h17.01.580,classification_task,2021.2.3,MacIntel,60.0024001,615b4d67bd21e66571f5581b,626b377229c10585ec392f8a,626b3c7510b7b3eb45797a05,,,,,,,,,,,,,,,,,,,,,,,l,0,2.7825,"[""0.317"",""0.079"",""0.890"",""0.929""]","[1,0,1,1]",0,7,7,7,1,0,0,,,1,FALSE,,,,,,,,,,,,,,,,,,,,,,,,,,,,,,
,615b4d67bd21e66571f5581b,001,2022-04-28_20h17.01.580,classification_task,2021.2.3,MacIntel,60.0024001,615b4d67bd21e66571f5581b,626b377229c10585ec392f8a,626b3c7510b7b3eb45797a05,,,,,,,,,,,,,,,,,,,,,,,a,1,3.7275,"[""0.317"",""0.530"",""0.890"",""0.283""]","[1,1,1,0]",0,8,8,8,1,0,0,,,1,FALSE,,,,,,,,,,,,,,,,,,,,,,,,,,,,,,
,615b4d67bd21e66571f5581b,001,2022-04-28_20h17.01.580,classification_task,2021.2.3,MacIntel,60.0024001,615b4d67bd21e66571f5581b,626b377229c10585ec392f8a,626b3c7510b7b3eb45797a05,,,,,,,,,,,,,,,,,,,,,,,l,1,4.5524,"[""0.030"",""0.371"",""0.437"",""0.653""]","[1,1,1,0]",0,9,9,9,1,1,0,,,1,FALSE,,,,,,,,,,,,,,,,,,,,,,,,,,,,,,
,615b4d67bd21e66571f5581b,001,2022-04-28_20h17.01.580,classification_task,2021.2.3,MacIntel,60.0024001,615b4d67bd21e66571f5581b,626b377229c10585ec392f8a,626b3c7510b7b3eb45797a05,,,,,,,,,,,,,,,,,,,,,,,a,1,8.6943,"[""0.283"",""0.485"",""0.700"",""0.963""]","[0,1,1,1]",0,10,10,10,1,0,1,,,1,FALSE,,,,,,,,,,,,,,,,,,,,,,,,,,,,,,
,615b4d67bd21e66571f5581b,001,2022-04-28_20h17.01.580,classification_task,2021.2.3,MacIntel,60.0024001,615b4d67bd21e66571f5581b,626b377229c10585ec392f8a,626b3c7510b7b3eb45797a05,,,,,,,,,,,,,,,,,,,,,,,a,1,7.2492,"[""0.179"",""0.485"",""0.700"",""0.283""]","[1,1,1,0]",0,11,11,11,1,0,1,,,1,FALSE,,,,,,,,,,,,,,,,,,,,,,,,,,,,,,
,615b4d67bd21e66571f5581b,001,2022-04-28_20h17.01.580,classification_task,2021.2.3,MacIntel,60.0024001,615b4d67bd21e66571f5581b,626b377229c10585ec392f8a,626b3c7510b7b3eb45797a05,,,,,,,,,,,,,,,,,,,,,,,l,1,5.7453,"[""0.030"",""0.662"",""0.437"",""0.761""]","[1,0,1,1]",0,12,12,12,1,1,0,,,1,FALSE,,,,,,,,,,,,,,,,,,,,,,,,,,,,,,
,615b4d67bd21e66571f5581b,001,2022-04-28_20h17.01.580,classification_task,2021.2.3,MacIntel,60.0024001,615b4d67bd21e66571f5581b,626b377229c10585ec392f8a,626b3c7510b7b3eb45797a05,,,,,,,,,,,,,,,,,,,,,,,a,1,4.7799,"[""0.179"",""0.083"",""0.700"",""0.963""]","[1,0,1,1]",0,13,13,13,1,0,1,,,1,FALSE,,,,,,,,,,,,,,,,,,,,,,,,,,,,,,
,615b4d67bd21e66571f5581b,001,2022-04-28_20h17.01.580,classification_task,2021.2.3,MacIntel,60.0024001,615b4d67bd21e66571f5581b,626b377229c10585ec392f8a,626b3c7510b7b3eb45797a05,,,,,,,,,,,,,,,,,,,,,,,l,1,5.7315,"[""0.030"",""0.371"",""0.803"",""0.761""]","[1,1,0,1]",0,14,14,14,1,1,0,,,1,FALSE,,,,,,,,,,,,,,,,,,,,,,,,,,,,,,
,615b4d67bd21e66571f5581b,001,2022-04-28_20h17.01.580,classification_task,2021.2.3,MacIntel,60.0024001,615b4d67bd21e66571f5581b,626b377229c10585ec392f8a,626b3c7510b7b3eb45797a05,,,,,,,,,,,,,,,,,,,,,,,l,1,7.0277,"[""0.093"",""0.250"",""0.597"",""0.843""]","[0,1,1,1]",0,15,15,15,1,1,1,,,1,FALSE,,,,,,,,,,,,,,,,,,,,,,,,,,,,,,
,615b4d67bd21e66571f5581b,001,2022-04-28_20h17.01.580,classification_task,2021.2.3,MacIntel,60.0024001,615b4d67bd21e66571f5581b,626b377229c10585ec392f8a,626b3c7510b7b3eb45797a05,,,,,,,,,,,,,,,,,,,,,,,a,1,4.6813,"[""0.179"",""0.093"",""0.700"",""0.963""]","[1,0,1,1]",0,16,16,16,1,0,1,,,1,FALSE,,,,,,,,,,,,,,,,,,,,,,,,,,,,,,
,615b4d67bd21e66571f5581b,001,2022-04-28_20h17.01.580,classification_task,2021.2.3,MacIntel,60.0024001,615b4d67bd21e66571f5581b,626b377229c10585ec392f8a,626b3c7510b7b3eb45797a05,,,,,,,,,,,,,,,,,,,,,,,l,1,9.0483,"[""0.030"",""0.371"",""0.437"",""0.083""]","[1,1,1,0]",0,17,17,17,1,1,0,,,1,FALSE,,,,,,,,,,,,,,,,,,,,,,,,,,,,,,
,615b4d67bd21e66571f5581b,001,2022-04-28_20h17.01.580,classification_task,2021.2.3,MacIntel,60.0024001,615b4d67bd21e66571f5581b,626b377229c10585ec392f8a,626b3c7510b7b3eb45797a05,,,,,,,,,,,,,,,,,,,,,,,l,0,4.293,"[""0.179"",""0.485"",""0.700"",""0.805""]","[1,1,1,0]",0,18,18,18,1,0,1,,,1,FALSE,,,,,,,,,,,,,,,,,,,,,,,,,,,,,,
,615b4d67bd21e66571f5581b,001,2022-04-28_20h17.01.580,classification_task,2021.2.3,MacIntel,60.0024001,615b4d67bd21e66571f5581b,626b377229c10585ec392f8a,626b3c7510b7b3eb45797a05,,,,,,,,,,,,,,,,,,,,,,,l,1,5.7993,"[""0.144"",""0.250"",""0.661"",""0.843""]","[1,1,0,1]",0,19,19,19,1,1,1,,,1,FALSE,,,,,,,,,,,,,,,,,,,,,,,,,,,,,,
,615b4d67bd21e66571f5581b,001,2022-04-28_20h17.01.580,classification_task,2021.2.3,MacIntel,60.0024001,615b4d67bd21e66571f5581b,626b377229c10585ec392f8a,626b3c7510b7b3eb45797a05,,,,,,,,,,,,,,,,,,,,,,,l,1,6.0146,"[""0.083"",""0.250"",""0.597"",""0.843""]","[0,1,1,1]",0,20,20,20,1,1,1,,,1,FALSE,,,,,,,,,,,,,,,,,,,,,,,,,,,,,,
,615b4d67bd21e66571f5581b,001,2022-04-28_20h17.01.580,classification_task,2021.2.3,MacIntel,60.0024001,615b4d67bd21e66571f5581b,626b377229c10585ec392f8a,626b3c7510b7b3eb45797a05,,,,,,,,,,,,,,,,,,,,,,,a,1,7.3955,"[""0.317"",""0.530"",""0.283"",""0.929""]","[1,1,0,1]",0,21,21,21,1,0,0,,,1,FALSE,,,,,,,,,,,,,,,,,,,,,,,,,,,,,,
,615b4d67bd21e66571f5581b,001,2022-04-28_20h17.01.580,classification_task,2021.2.3,MacIntel,60.0024001,615b4d67bd21e66571f5581b,626b377229c10585ec392f8a,626b3c7510b7b3eb45797a05,,,,,,,,,,,,,,,,,,,,,,,a,1,9.4329,"[""0.653"",""0.530"",""0.890"",""0.929""]","[0,1,1,1]",0,22,22,22,1,0,0,,,1,FALSE,,,,,,,,,,,,,,,,,,,,,,,,,,,,,,
,615b4d67bd21e66571f5581b,001,2022-04-28_20h17.01.580,classification_task,2021.2.3,MacIntel,60.0024001,615b4d67bd21e66571f5581b,626b377229c10585ec392f8a,626b3c7510b7b3eb45797a05,,,,,,,,,,,,,,,,,,,,,,,a,1,6.683,"[""0.317"",""0.631"",""0.890"",""0.929""]","[1,0,1,1]",0,23,23,23,1,0,0,,,1,FALSE,,,,,,,,,,,,,,,,,,,,,,,,,,,,,,
,615b4d67bd21e66571f5581b,001,2022-04-28_20h17.01.580,classification_task,2021.2.3,MacIntel,60.0024001,615b4d67bd21e66571f5581b,626b377229c10585ec392f8a,626b3c7510b7b3eb45797a05,,,,,,,,,,,,,,,,,,,,,,,l,1,6.462,"[""0.144"",""0.250"",""0.597"",""0.083""]","[1,1,1,0]",0,24,24,24,1,1,1,,,1,FALSE,,,,,,,,,,,,,,,,,,,,,,,,,,,,,,
,615b4d67bd21e66571f5581b,001,2022-04-28_20h17.01.580,classification_task,2021.2.3,MacIntel,60.0024001,615b4d67bd21e66571f5581b,626b377229c10585ec392f8a,626b3c7510b7b3eb45797a05,,,,,,,,,,,,,,,,,,,,,,,a,1,6.1997,"[""0.283"",""0.485"",""0.700"",""0.963""]","[0,1,1,1]",0,25,25,25,1,0,1,,,1,FALSE,,,,,,,,,,,,,,,,,,,,,,,,,,,,,,
,615b4d67bd21e66571f5581b,001,2022-04-28_20h17.01.580,classification_task,2021.2.3,MacIntel,60.0024001,615b4d67bd21e66571f5581b,626b377229c10585ec392f8a,626b3c7510b7b3eb45797a05,,,,,,,,,,,,,,,,,,,,,,,a,1,7.0983,"[""0.179"",""0.485"",""0.081"",""0.963""]","[1,1,0,1]",0,26,26,26,1,0,1,,,1,FALSE,,,,,,,,,,,,,,,,,,,,,,,,,,,,,,
,615b4d67bd21e66571f5581b,001,2022-04-28_20h17.01.580,classification_task,2021.2.3,MacIntel,60.0024001,615b4d67bd21e66571f5581b,626b377229c10585ec392f8a,626b3c7510b7b3eb45797a05,,,,,,,,,,,,,,,,,,,,,,,a,0,6.6307,"[""0.144"",""0.661"",""0.597"",""0.843""]","[1,0,1,1]",0,27,27,27,1,1,1,,,1,FALSE,,,,,,,,,,,,,,,,,,,,,,,,,,,,,,
,615b4d67bd21e66571f5581b,001,2022-04-28_20h17.01.580,classification_task,2021.2.3,MacIntel,60.0024001,615b4d67bd21e66571f5581b,626b377229c10585ec392f8a,626b3c7510b7b3eb45797a05,,,,,,,,,,,,,,,,,,,,,,,l,1,6.7308,"[""0.030"",""0.371"",""0.215"",""0.761""]","[1,1,0,1]",0,28,28,28,1,1,0,,,1,FALSE,,,,,,,,,,,,,,,,,,,,,,,,,,,,,,
,615b4d67bd21e66571f5581b,001,2022-04-28_20h17.01.580,classification_task,2021.2.3,MacIntel,60.0024001,615b4d67bd21e66571f5581b,626b377229c10585ec392f8a,626b3c7510b7b3eb45797a05,,,,,,,,,,,,,,,,,,,,,,,l,1,5.9323,"[""0.083"",""0.371"",""0.437"",""0.761""]","[0,1,1,1]",0,29,29,29,1,1,0,,,1,FALSE,,,,,,,,,,,,,,,,,,,,,,,,,,,,,,
,615b4d67bd21e66571f5581b,001,2022-04-28_20h17.01.580,classification_task,2021.2.3,MacIntel,60.0024001,615b4d67bd21e66571f5581b,626b377229c10585ec392f8a,626b3c7510b7b3eb45797a05,,,,,,,,,,,,,,,,,,,,,,,a,1,5.6507,"[""0.317"",""0.530"",""0.890"",""0.079""]","[1,1,1,0]",0,30,30,30,1,0,0,,,1,FALSE,,,,,,,,,,,,,,,,,,,,,,,,,,,,,,
,615b4d67bd21e66571f5581b,001,2022-04-28_20h17.01.580,classification_task,2021.2.3,MacIntel,60.0024001,615b4d67bd21e66571f5581b,626b377229c10585ec392f8a,626b3c7510b7b3eb45797a05,,,,,,,,,,,,,,,,,,,,,,,a,0,6.2159,"[""0.030"",""0.283"",""0.437"",""0.761""]","[1,0,1,1]",0,31,31,31,1,1,0,,,1,FALSE,,,,,,,,,,,,,,,,,,,,,,,,,,,,,,
,615b4d67bd21e66571f5581b,001,2022-04-28_20h17.01.580,classification_task,2021.2.3,MacIntel,60.0024001,615b4d67bd21e66571f5581b,626b377229c10585ec392f8a,626b3c7510b7b3eb45797a05,,,,,,,,,,,,,,,,,,,,,,,a,0,6.2249,"[""0.144"",""0.250"",""0.597"",""0.081""]","[1,1,1,0]",0,32,32,32,1,1,1,,,1,FALSE,,,,,,,,,,,,,,,,,,,,,,,,,,,,,,
,615b4d67bd21e66571f5581b,001,2022-04-28_20h17.01.580,classification_task,2021.2.3,MacIntel,60.0024001,615b4d67bd21e66571f5581b,626b377229c10585ec392f8a,626b3c7510b7b3eb45797a05,,,,,,,,,,,,,,,,,,,,,,,a,1,5.5657,"[""0.083"",""0.485"",""0.700"",""0.963""]","[0,1,1,1]",0,33,33,33,1,0,1,,,1,FALSE,,,,,,,,,,,,,,,,,,,,,,,,,,,,,,
,615b4d67bd21e66571f5581b,001,2022-04-28_20h17.01.580,classification_task,2021.2.3,MacIntel,60.0024001,615b4d67bd21e66571f5581b,626b377229c10585ec392f8a,626b3c7510b7b3eb45797a05,,,,,,,,,,,,,,,,,,,,,,,a,1,3.9476,"[""0.179"",""0.661"",""0.700"",""0.963""]","[1,0,1,1]",0,34,34,34,1,0,1,,,1,FALSE,,,,,,,,,,,,,,,,,,,,,,,,,,,,,,
,615b4d67bd21e66571f5581b,001,2022-04-28_20h17.01.580,classification_task,2021.2.3,MacIntel,60.0024001,615b4d67bd21e66571f5581b,626b377229c10585ec392f8a,626b3c7510b7b3eb45797a05,,,,,,,,,,,,,,,,,,,,,,,l,1,3.4802,"[""0.030"",""0.661"",""0.437"",""0.761""]","[1,0,1,1]",0,35,35,35,1,1,0,,,1,FALSE,,,,,,,,,,,,,,,,,,,,,,,,,,,,,,
,615b4d67bd21e66571f5581b,001,2022-04-28_20h17.01.580,classification_task,2021.2.3,MacIntel,60.0024001,615b4d67bd21e66571f5581b,626b377229c10585ec392f8a,626b3c7510b7b3eb45797a05,,,,,,,,,,,,,,,,,,,,,,,l,0,3.3973,"[""0.317"",""0.093"",""0.890"",""0.929""]","[1,0,1,1]",0,36,36,36,1,0,0,,,1,FALSE,,,,,,,,,,,,,,,,,,,,,,,,,,,,,,
,615b4d67bd21e66571f5581b,001,2022-04-28_20h17.01.580,classification_task,2021.2.3,MacIntel,60.0024001,615b4d67bd21e66571f5581b,626b377229c10585ec392f8a,626b3c7510b7b3eb45797a05,,,,,,,,,,,,,,,,,,,,,,,l,1,2.3641,"[""0.809"",""0.250"",""0.597"",""0.843""]","[0,1,1,1]",0,37,37,37,1,1,1,,,1,FALSE,,,,,,,,,,,,,,,,,,,,,,,,,,,,,,
,615b4d67bd21e66571f5581b,001,2022-04-28_20h17.01.580,classification_task,2021.2.3,MacIntel,60.0024001,615b4d67bd21e66571f5581b,626b377229c10585ec392f8a,626b3c7510b7b3eb45797a05,,,,,,,,,,,,,,,,,,,,,,,l,0,3.4307,"[""0.179"",""0.485"",""0.700"",""0.083""]","[1,1,1,0]",0,38,38,38,1,0,1,,,1,FALSE,,,,,,,,,,,,,,,,,,,,,,,,,,,,,,
,615b4d67bd21e66571f5581b,001,2022-04-28_20h17.01.580,classification_task,2021.2.3,MacIntel,60.0024001,615b4d67bd21e66571f5581b,626b377229c10585ec392f8a,626b3c7510b7b3eb45797a05,,,,,,,,,,,,,,,,,,,,,,,a,0,3.1519,"[""0.030"",""0.371"",""0.437"",""0.653""]","[1,1,1,0]",0,39,39,39,1,1,0,,,1,FALSE,,,,,,,,,,,,,,,,,,,,,,,,,,,,,,
,615b4d67bd21e66571f5581b,001,2022-04-28_20h17.01.580,classification_task,2021.2.3,MacIntel,60.0024001,615b4d67bd21e66571f5581b,626b377229c10585ec392f8a,626b3c7510b7b3eb45797a05,,,,,,,,,,,,,,,,,,,,,,,a,0,1.2029,"[""0.661"",""0.371"",""0.437"",""0.761""]","[0,1,1,1]",0,40,40,40,1,1,0,,,1,FALSE,,,,,,,,,,,,,,,,,,,,,,,,,,,,,,
,615b4d67bd21e66571f5581b,001,2022-04-28_20h17.01.580,classification_task,2021.2.3,MacIntel,60.0024001,615b4d67bd21e66571f5581b,626b377229c10585ec392f8a,626b3c7510b7b3eb45797a05,,,,,,,,,,,,,,,,,,,,,,,a,1,1.726,"[""0.803"",""0.530"",""0.890"",""0.929""]","[0,1,1,1]",0,41,41,41,1,0,0,,,1,FALSE,,,,,,,,,,,,,,,,,,,,,,,,,,,,,,
,615b4d67bd21e66571f5581b,001,2022-04-28_20h17.01.580,classification_task,2021.2.3,MacIntel,60.0024001,615b4d67bd21e66571f5581b,626b377229c10585ec392f8a,626b3c7510b7b3eb45797a05,,,,,,,,,,,,,,,,,,,,,,,l,0,1.8994,"[""0.317"",""0.530"",""0.661"",""0.929""]","[1,1,0,1]",0,42,42,42,1,0,0,,,1,FALSE,,,,,,,,,,,,,,,,,,,,,,,,,,,,,,
,615b4d67bd21e66571f5581b,001,2022-04-28_20h17.01.580,classification_task,2021.2.3,MacIntel,60.0024001,615b4d67bd21e66571f5581b,626b377229c10585ec392f8a,626b3c7510b7b3eb45797a05,,,,,,,,,,,,,,,,,,,,,,,a,1,1.4206,"[""0.317"",""0.530"",""0.890"",""0.650""]","[1,1,1,0]",0,43,43,43,1,0,0,,,1,FALSE,,,,,,,,,,,,,,,,,,,,,,,,,,,,,,
,615b4d67bd21e66571f5581b,001,2022-04-28_20h17.01.580,classification_task,2021.2.3,MacIntel,60.0024001,615b4d67bd21e66571f5581b,626b377229c10585ec392f8a,626b3c7510b7b3eb45797a05,,,,,,,,,,,,,,,,,,,,,,,a,1,1.3642,"[""0.179"",""0.485"",""0.083"",""0.963""]","[1,1,0,1]",0,44,44,44,1,0,1,,,1,FALSE,,,,,,,,,,,,,,,,,,,,,,,,,,,,,,
,615b4d67bd21e66571f5581b,001,2022-04-28_20h17.01.580,classification_task,2021.2.3,MacIntel,60.0024001,615b4d67bd21e66571f5581b,626b377229c10585ec392f8a,626b3c7510b7b3eb45797a05,,,,,,,,,,,,,,,,,,,,,,,l,1,1.6771,"[""0.144"",""0.809"",""0.597"",""0.843""]","[1,0,1,1]",0,45,45,45,1,1,1,,,1,FALSE,,,,,,,,,,,,,,,,,,,,,,,,,,,,,,
,615b4d67bd21e66571f5581b,001,2022-04-28_20h17.01.580,classification_task,2021.2.3,MacIntel,60.0024001,615b4d67bd21e66571f5581b,626b377229c10585ec392f8a,626b3c7510b7b3eb45797a05,,,,,,,,,,,,,,,,,,,,,,,l,1,3.102,"[""0.144"",""0.250"",""0.631"",""0.843""]","[1,1,0,1]",0,46,46,46,1,1,1,,,1,FALSE,,,,,,,,,,,,,,,,,,,,,,,,,,,,,,
,615b4d67bd21e66571f5581b,001,2022-04-28_20h17.01.580,classification_task,2021.2.3,MacIntel,60.0024001,615b4d67bd21e66571f5581b,626b377229c10585ec392f8a,626b3c7510b7b3eb45797a05,,,,,,,,,,,,,,,,,,,,,,,l,1,4.215,"[""0.030"",""0.371"",""0.662"",""0.761""]","[1,1,0,1]",0,47,47,47,1,1,0,,,1,FALSE,,,,,,,,,,,,,,,,,,,,,,,,,,,,,,
,615b4d67bd21e66571f5581b,001,2022-04-28_20h17.01.580,classification_task,2021.2.3,MacIntel,60.0024001,615b4d67bd21e66571f5581b,626b377229c10585ec392f8a,626b3c7510b7b3eb45797a05,,,,,,,,,,,,,,,,,,,,,,,a,0,2.2962,"[""0.030"",""0.371"",""0.437"",""0.653""]","[1,1,1,0]",0,48,48,48,1,1,0,,,1,FALSE,,,,,,,,,,,,,,,,,,,,,,,,,,,,,,
,615b4d67bd21e66571f5581b,001,2022-04-28_20h17.01.580,classification_task,2021.2.3,MacIntel,60.0024001,615b4d67bd21e66571f5581b,626b377229c10585ec392f8a,626b3c7510b7b3eb45797a05,,,,,,,,,,,,,,,,,,,,,,,a,0,2.3137,"[""0.653"",""0.371"",""0.437"",""0.761""]","[0,1,1,1]",0,49,49,49,1,1,0,,,1,FALSE,,,,,,,,,,,,,,,,,,,,,,,,,,,,,,
,615b4d67bd21e66571f5581b,001,2022-04-28_20h17.01.580,classification_task,2021.2.3,MacIntel,60.0024001,615b4d67bd21e66571f5581b,626b377229c10585ec392f8a,626b3c7510b7b3eb45797a05,,,,,,,,,,,,,,,,,,,,,,,a,1,1.7495,"[""0.317"",""0.530"",""0.662"",""0.929""]","[1,1,0,1]",0,50,50,50,1,0,0,,,1,FALSE,,,,,,,,,,,,,,,,,,,,,,,,,,,,,,
,615b4d67bd21e66571f5581b,001,2022-04-28_20h17.01.580,classification_task,2021.2.3,MacIntel,60.0024001,615b4d67bd21e66571f5581b,626b377229c10585ec392f8a,626b3c7510b7b3eb45797a05,,,,,,,,,,,,,,,,,,,,,,,a,1,1.4465,"[""0.179"",""0.661"",""0.700"",""0.963""]","[1,0,1,1]",0,51,51,51,1,0,1,,,1,FALSE,,,,,,,,,,,,,,,,,,,,,,,,,,,,,,
,615b4d67bd21e66571f5581b,001,2022-04-28_20h17.01.580,classification_task,2021.2.3,MacIntel,60.0024001,615b4d67bd21e66571f5581b,626b377229c10585ec392f8a,626b3c7510b7b3eb45797a05,,,,,,,,,,,,,,,,,,,,,,,a,1,1.4013,"[""0.317"",""0.081"",""0.890"",""0.929""]","[1,0,1,1]",0,52,52,52,1,0,0,,,1,FALSE,,,,,,,,,,,,,,,,,,,,,,,,,,,,,,
,615b4d67bd21e66571f5581b,001,2022-04-28_20h17.01.580,classification_task,2021.2.3,MacIntel,60.0024001,615b4d67bd21e66571f5581b,626b377229c10585ec392f8a,626b3c7510b7b3eb45797a05,,,,,,,,,,,,,,,,,,,,,,,a,1,1.3408,"[""0.179"",""0.485"",""0.653"",""0.963""]","[1,1,0,1]",0,53,53,53,1,0,1,,,1,FALSE,,,,,,,,,,,,,,,,,,,,,,,,,,,,,,
,615b4d67bd21e66571f5581b,001,2022-04-28_20h17.01.580,classification_task,2021.2.3,MacIntel,60.0024001,615b4d67bd21e66571f5581b,626b377229c10585ec392f8a,626b3c7510b7b3eb45797a05,,,,,,,,,,,,,,,,,,,,,,,l,1,0.8962,"[""0.144"",""0.250"",""0.597"",""0.093""]","[1,1,1,0]",0,54,54,54,1,1,1,,,1,FALSE,,,,,,,,,,,,,,,,,,,,,,,,,,,,,,
,615b4d67bd21e66571f5581b,001,2022-04-28_20h17.01.580,classification_task,2021.2.3,MacIntel,60.0024001,615b4d67bd21e66571f5581b,626b377229c10585ec392f8a,626b3c7510b7b3eb45797a05,,,,,,,,,,,,,,,,,,,,,,,l,1,1.2702,"[""0.144"",""0.250"",""0.093"",""0.843""]","[1,1,0,1]",0,55,55,55,1,1,1,,,1,FALSE,,,,,,,,,,,,,,,,,,,,,,,,,,,,,,
,615b4d67bd21e66571f5581b,001,2022-04-28_20h17.01.580,classification_task,2021.2.3,MacIntel,60.0024001,615b4d67bd21e66571f5581b,626b377229c10585ec392f8a,626b3c7510b7b3eb45797a05,,,,,,,,,,,,,,,,,,,,,,,l,1,0.9853,"[""0.030"",""0.803"",""0.437"",""0.761""]","[1,0,1,1]",0,56,56,56,1,1,0,,,1,FALSE,,,,,,,,,,,,,,,,,,,,,,,,,,,,,,
,615b4d67bd21e66571f5581b,001,2022-04-28_20h17.01.580,classification_task,2021.2.3,MacIntel,60.0024001,615b4d67bd21e66571f5581b,626b377229c10585ec392f8a,626b3c7510b7b3eb45797a05,,,,,,,,,,,,,,,,,,,,,,,a,1,1.5142,"[""0.317"",""0.530"",""0.890"",""0.653""]","[1,1,1,0]",0,57,57,57,1,0,0,,,1,FALSE,,,,,,,,,,,,,,,,,,,,,,,,,,,,,,
,615b4d67bd21e66571f5581b,001,2022-04-28_20h17.01.580,classification_task,2021.2.3,MacIntel,60.0024001,615b4d67bd21e66571f5581b,626b377229c10585ec392f8a,626b3c7510b7b3eb45797a05,,,,,,,,,,,,,,,,,,,,,,,a,1,1.2441,"[""0.083"",""0.530"",""0.890"",""0.929""]","[0,1,1,1]",0,58,58,58,1,0,0,,,1,FALSE,,,,,,,,,,,,,,,,,,,,,,,,,,,,,,
,615b4d67bd21e66571f5581b,001,2022-04-28_20h17.01.580,classification_task,2021.2.3,MacIntel,60.0024001,615b4d67bd21e66571f5581b,626b377229c10585ec392f8a,626b3c7510b7b3eb45797a05,,,,,,,,,,,,,,,,,,,,,,,l,0,1.4815,"[""0.179"",""0.485"",""0.700"",""0.093""]","[1,1,1,0]",0,59,59,59,1,0,1,,,1,FALSE,,,,,,,,,,,,,,,,,,,,,,,,,,,,,,
,615b4d67bd21e66571f5581b,001,2022-04-28_20h17.01.580,classification_task,2021.2.3,MacIntel,60.0024001,615b4d67bd21e66571f5581b,626b377229c10585ec392f8a,626b3c7510b7b3eb45797a05,,,,,,,,,,,,,,,,,,,,,,,a,1,1.0879,"[""0.653"",""0.485"",""0.700"",""0.963""]","[0,1,1,1]",0,60,60,60,1,0,1,,,1,FALSE,,,,,,,,,,,,,,,,,,,,,,,,,,,,,,
,615b4d67bd21e66571f5581b,001,2022-04-28_20h17.01.580,classification_task,2021.2.3,MacIntel,60.0024001,615b4d67bd21e66571f5581b,626b377229c10585ec392f8a,626b3c7510b7b3eb45797a05,,,,,,,,,,,,,,,,,,,,,,,l,1,1.8276,"[""0.661"",""0.250"",""0.597"",""0.843""]","[0,1,1,1]",0,61,61,61,1,1,1,,,1,FALSE,,,,,,,,,,,,,,,,,,,,,,,,,,,,,,
,615b4d67bd21e66571f5581b,001,2022-04-28_20h17.01.580,classification_task,2021.2.3,MacIntel,60.0024001,615b4d67bd21e66571f5581b,626b377229c10585ec392f8a,626b3c7510b7b3eb45797a05,,,,,,,,,,,,,,,,,,,,,,,l,1,1.6262,"[""0.144"",""0.083"",""0.597"",""0.843""]","[1,0,1,1]",0,62,62,62,1,1,1,,,1,FALSE,,,,,,,,,,,,,,,,,,,,,,,,,,,,,,
,615b4d67bd21e66571f5581b,001,2022-04-28_20h17.01.580,classification_task,2021.2.3,MacIntel,60.0024001,615b4d67bd21e66571f5581b,626b377229c10585ec392f8a,626b3c7510b7b3eb45797a05,,,,,,,,,,,,,,,,,,,,,,,a,0,2.5148,"[""0.030"",""0.371"",""0.803"",""0.761""]","[1,1,0,1]",0,63,63,63,1,1,0,,,1,FALSE,,,,,,,,,,,,,,,,,,,,,,,,,,,,,,
,615b4d67bd21e66571f5581b,001,2022-04-28_20h17.01.580,classification_task,2021.2.3,MacIntel,60.0024001,615b4d67bd21e66571f5581b,626b377229c10585ec392f8a,626b3c7510b7b3eb45797a05,,,,,,,,,,,,,,,,,,,,,,,,,,,,,,,,,,,,,,,0, ,,0,3.180002328,640.2062,0,0,0,0,1,2,1,,,,,,,,,,,,,,,,,
,615b4d67bd21e66571f5581b,001,2022-04-28_20h17.01.580,classification_task,2021.2.3,MacIntel,60.0024001,615b4d67bd21e66571f5581b,626b377229c10585ec392f8a,626b3c7510b7b3eb45797a05,,,,,,,,,,,,,,,,,,,,,,,,,,,,,,,,,,,,,,,1,  ,,0,10,643.8545,0,0,0,0,1,2,1,,,,,,,,,,,,,,,,,
,615b4d67bd21e66571f5581b,001,2022-04-28_20h17.01.580,classification_task,2021.2.3,MacIntel,60.0024001,615b4d67bd21e66571f5581b,626b377229c10585ec392f8a,626b3c7510b7b3eb45797a05,,,,,,,,,,,,,,,,,,,,,,,,,,,,,,,,,,,,,,,2,  ,,0,3.094791724,649.1368,0,0,0,0,1,2,1,,,,,,,,,,,,,,,,,
,615b4d67bd21e66571f5581b,001,2022-04-28_20h17.01.580,classification_task,2021.2.3,MacIntel,60.0024001,615b4d67bd21e66571f5581b,626b377229c10585ec392f8a,626b3c7510b7b3eb45797a05,,,,,,,,,,,,,,,,,,,,,,,,,,,,,,,,,,,,,,,,,,,,,0,0,0,0,1,,1,,,,,,,,,,,,,,,,,
,615b4d67bd21e66571f5581b,001,2022-04-28_20h17.01.580,classification_task,2021.2.3,MacIntel,60.0024001,615b4d67bd21e66571f5581b,626b377229c10585ec392f8a,626b3c7510b7b3eb45797a05,,,,,,,,,,,,,,,,,,,,,space,88.5747,a,1,4.158,"[""0.317"",""0.530"",""0.890"",""0.081""]","[1,1,1,0]",0,0,0,0,1,0,0,,,1,FALSE,,,,,,,,,,,,,,,,,,,,,,,,,,,,,,
,615b4d67bd21e66571f5581b,001,2022-04-28_20h17.01.580,classification_task,2021.2.3,MacIntel,60.0024001,615b4d67bd21e66571f5581b,626b377229c10585ec392f8a,626b3c7510b7b3eb45797a05,,,,,,,,,,,,,,,,,,,,,,,a,1,6.4962,"[""0.179"",""0.283"",""0.700"",""0.963""]","[1,0,1,1]",0,1,1,1,1,0,1,,,1,FALSE,,,,,,,,,,,,,,,,,,,,,,,,,,,,,,
,615b4d67bd21e66571f5581b,001,2022-04-28_20h17.01.580,classification_task,2021.2.3,MacIntel,60.0024001,615b4d67bd21e66571f5581b,626b377229c10585ec392f8a,626b3c7510b7b3eb45797a05,,,,,,,,,,,,,,,,,,,,,,,a,1,4.0117,"[""0.317"",""0.081"",""0.890"",""0.929""]","[1,0,1,1]",0,2,2,2,1,0,0,,,1,FALSE,,,,,,,,,,,,,,,,,,,,,,,,,,,,,,
,615b4d67bd21e66571f5581b,001,2022-04-28_20h17.01.580,classification_task,2021.2.3,MacIntel,60.0024001,615b4d67bd21e66571f5581b,626b377229c10585ec392f8a,626b3c7510b7b3eb45797a05,,,,,,,,,,,,,,,,,,,,,,,l,1,4.543,"[""0.215"",""0.250"",""0.597"",""0.843""]","[0,1,1,1]",0,3,3,3,1,1,1,,,1,FALSE,,,,,,,,,,,,,,,,,,,,,,,,,,,,,,
,615b4d67bd21e66571f5581b,001,2022-04-28_20h17.01.580,classification_task,2021.2.3,MacIntel,60.0024001,615b4d67bd21e66571f5581b,626b377229c10585ec392f8a,626b3c7510b7b3eb45797a05,,,,,,,,,,,,,,,,,,,,,,,l,0,2.5771,"[""0.317"",""0.530"",""0.083"",""0.929""]","[1,1,0,1]",0,4,4,4,1,0,0,,,1,FALSE,,,,,,,,,,,,,,,,,,,,,,,,,,,,,,
,615b4d67bd21e66571f5581b,001,2022-04-28_20h17.01.580,classification_task,2021.2.3,MacIntel,60.0024001,615b4d67bd21e66571f5581b,626b377229c10585ec392f8a,626b3c7510b7b3eb45797a05,,,,,,,,,,,,,,,,,,,,,,,l,1,2.6231,"[""0.144"",""0.653"",""0.597"",""0.843""]","[1,0,1,1]",0,5,5,5,1,1,1,,,1,FALSE,,,,,,,,,,,,,,,,,,,,,,,,,,,,,,
,615b4d67bd21e66571f5581b,001,2022-04-28_20h17.01.580,classification_task,2021.2.3,MacIntel,60.0024001,615b4d67bd21e66571f5581b,626b377229c10585ec392f8a,626b3c7510b7b3eb45797a05,,,,,,,,,,,,,,,,,,,,,,,a,1,3.8277,"[""0.179"",""0.485"",""0.661"",""0.963""]","[1,1,0,1]",0,6,6,6,1,0,1,,,1,FALSE,,,,,,,,,,,,,,,,,,,,,,,,,,,,,,
,615b4d67bd21e66571f5581b,001,2022-04-28_20h17.01.580,classification_task,2021.2.3,MacIntel,60.0024001,615b4d67bd21e66571f5581b,626b377229c10585ec392f8a,626b3c7510b7b3eb45797a05,,,,,,,,,,,,,,,,,,,,,,,l,1,2.1257,"[""0.030"",""0.083"",""0.437"",""0.761""]","[1,0,1,1]",0,7,7,7,1,1,0,,,1,FALSE,,,,,,,,,,,,,,,,,,,,,,,,,,,,,,
,615b4d67bd21e66571f5581b,001,2022-04-28_20h17.01.580,classification_task,2021.2.3,MacIntel,60.0024001,615b4d67bd21e66571f5581b,626b377229c10585ec392f8a,626b3c7510b7b3eb45797a05,,,,,,,,,,,,,,,,,,,,,,,l,1,3.7359,"[""0.144"",""0.250"",""0.597"",""0.081""]","[1,1,1,0]",0,8,8,8,1,1,1,,,1,FALSE,,,,,,,,,,,,,,,,,,,,,,,,,,,,,,
,615b4d67bd21e66571f5581b,001,2022-04-28_20h17.01.580,classification_task,2021.2.3,MacIntel,60.0024001,615b4d67bd21e66571f5581b,626b377229c10585ec392f8a,626b3c7510b7b3eb45797a05,,,,,,,,,,,,,,,,,,,,,,,l,1,1.5281,"[""0.030"",""0.371"",""0.437"",""0.079""]","[1,1,1,0]",0,9,9,9,1,1,0,,,1,FALSE,,,,,,,,,,,,,,,,,,,,,,,,,,,,,,
,615b4d67bd21e66571f5581b,001,2022-04-28_20h17.01.580,classification_task,2021.2.3,MacIntel,60.0024001,615b4d67bd21e66571f5581b,626b377229c10585ec392f8a,626b3c7510b7b3eb45797a05,,,,,,,,,,,,,,,,,,,,,,,a,1,1.0511,"[""0.179"",""0.485"",""0.700"",""0.083""]","[1,1,1,0]",0,10,10,10,1,0,1,,,1,FALSE,,,,,,,,,,,,,,,,,,,,,,,,,,,,,,
,615b4d67bd21e66571f5581b,001,2022-04-28_20h17.01.580,classification_task,2021.2.3,MacIntel,60.0024001,615b4d67bd21e66571f5581b,626b377229c10585ec392f8a,626b3c7510b7b3eb45797a05,,,,,,,,,,,,,,,,,,,,,,,a,1,1.6373,"[""0.650"",""0.530"",""0.890"",""0.929""]","[0,1,1,1]",0,11,11,11,1,0,0,,,1,FALSE,,,,,,,,,,,,,,,,,,,,,,,,,,,,,,
,615b4d67bd21e66571f5581b,001,2022-04-28_20h17.01.580,classification_task,2021.2.3,MacIntel,60.0024001,615b4d67bd21e66571f5581b,626b377229c10585ec392f8a,626b3c7510b7b3eb45797a05,,,,,,,,,,,,,,,,,,,,,,,l,1,1.8877,"[""0.030"",""0.371"",""0.083"",""0.761""]","[1,1,0,1]",0,12,12,12,1,1,0,,,1,FALSE,,,,,,,,,,,,,,,,,,,,,,,,,,,,,,
,615b4d67bd21e66571f5581b,001,2022-04-28_20h17.01.580,classification_task,2021.2.3,MacIntel,60.0024001,615b4d67bd21e66571f5581b,626b377229c10585ec392f8a,626b3c7510b7b3eb45797a05,,,,,,,,,,,,,,,,,,,,,,,a,1,2.0735,"[""0.650"",""0.485"",""0.700"",""0.963""]","[0,1,1,1]",0,13,13,13,1,0,1,,,1,FALSE,,,,,,,,,,,,,,,,,,,,,,,,,,,,,,
,615b4d67bd21e66571f5581b,001,2022-04-28_20h17.01.580,classification_task,2021.2.3,MacIntel,60.0024001,615b4d67bd21e66571f5581b,626b377229c10585ec392f8a,626b3c7510b7b3eb45797a05,,,,,,,,,,,,,,,,,,,,,,,l,1,1.5662,"[""0.653"",""0.371"",""0.437"",""0.761""]","[0,1,1,1]",0,14,14,14,1,1,0,,,1,FALSE,,,,,,,,,,,,,,,,,,,,,,,,,,,,,,
,615b4d67bd21e66571f5581b,001,2022-04-28_20h17.01.580,classification_task,2021.2.3,MacIntel,60.0024001,615b4d67bd21e66571f5581b,626b377229c10585ec392f8a,626b3c7510b7b3eb45797a05,,,,,,,,,,,,,,,,,,,,,,,l,1,1.3808,"[""0.144"",""0.250"",""0.653"",""0.843""]","[1,1,0,1]",0,15,15,15,1,1,1,,,1,FALSE,,,,,,,,,,,,,,,,,,,,,,,,,,,,,,
,615b4d67bd21e66571f5581b,001,2022-04-28_20h17.01.580,classification_task,2021.2.3,MacIntel,60.0024001,615b4d67bd21e66571f5581b,626b377229c10585ec392f8a,626b3c7510b7b3eb45797a05,,,,,,,,,,,,,,,,,,,,,,,a,1,1.1527,"[""0.283"",""0.530"",""0.890"",""0.929""]","[0,1,1,1]",0,16,16,16,1,0,0,,,1,FALSE,,,,,,,,,,,,,,,,,,,,,,,,,,,,,,
,615b4d67bd21e66571f5581b,001,2022-04-28_20h17.01.580,classification_task,2021.2.3,MacIntel,60.0024001,615b4d67bd21e66571f5581b,626b377229c10585ec392f8a,626b3c7510b7b3eb45797a05,,,,,,,,,,,,,,,,,,,,,,,a,1,0.8574,"[""0.317"",""0.650"",""0.890"",""0.929""]","[1,0,1,1]",0,17,17,17,1,0,0,,,1,FALSE,,,,,,,,,,,,,,,,,,,,,,,,,,,,,,
,615b4d67bd21e66571f5581b,001,2022-04-28_20h17.01.580,classification_task,2021.2.3,MacIntel,60.0024001,615b4d67bd21e66571f5581b,626b377229c10585ec392f8a,626b3c7510b7b3eb45797a05,,,,,,,,,,,,,,,,,,,,,,,l,1,1.4009,"[""0.030"",""0.371"",""0.437"",""0.653""]","[1,1,1,0]",0,18,18,18,1,1,0,,,1,FALSE,,,,,,,,,,,,,,,,,,,,,,,,,,,,,,
,615b4d67bd21e66571f5581b,001,2022-04-28_20h17.01.580,classification_task,2021.2.3,MacIntel,60.0024001,615b4d67bd21e66571f5581b,626b377229c10585ec392f8a,626b3c7510b7b3eb45797a05,,,,,,,,,,,,,,,,,,,,,,,a,1,1.132,"[""0.317"",""0.530"",""0.650"",""0.929""]","[1,1,0,1]",0,19,19,19,1,0,0,,,1,FALSE,,,,,,,,,,,,,,,,,,,,,,,,,,,,,,
,615b4d67bd21e66571f5581b,001,2022-04-28_20h17.01.580,classification_task,2021.2.3,MacIntel,60.0024001,615b4d67bd21e66571f5581b,626b377229c10585ec392f8a,626b3c7510b7b3eb45797a05,,,,,,,,,,,,,,,,,,,,,,,a,1,1.3327,"[""0.179"",""0.661"",""0.700"",""0.963""]","[1,0,1,1]",0,20,20,20,1,0,1,,,1,FALSE,,,,,,,,,,,,,,,,,,,,,,,,,,,,,,
,615b4d67bd21e66571f5581b,001,2022-04-28_20h17.01.580,classification_task,2021.2.3,MacIntel,60.0024001,615b4d67bd21e66571f5581b,626b377229c10585ec392f8a,626b3c7510b7b3eb45797a05,,,,,,,,,,,,,,,,,,,,,,,l,1,0.8361,"[""0.144"",""0.661"",""0.597"",""0.843""]","[1,0,1,1]",0,21,21,21,1,1,1,,,1,FALSE,,,,,,,,,,,,,,,,,,,,,,,,,,,,,,
,615b4d67bd21e66571f5581b,001,2022-04-28_20h17.01.580,classification_task,2021.2.3,MacIntel,60.0024001,615b4d67bd21e66571f5581b,626b377229c10585ec392f8a,626b3c7510b7b3eb45797a05,,,,,,,,,,,,,,,,,,,,,,,l,1,1.1515,"[""0.030"",""0.371"",""0.083"",""0.761""]","[1,1,0,1]",0,22,22,22,1,1,0,,,1,FALSE,,,,,,,,,,,,,,,,,,,,,,,,,,,,,,
,615b4d67bd21e66571f5581b,001,2022-04-28_20h17.01.580,classification_task,2021.2.3,MacIntel,60.0024001,615b4d67bd21e66571f5581b,626b377229c10585ec392f8a,626b3c7510b7b3eb45797a05,,,,,,,,,,,,,,,,,,,,,,,l,1,1.2652,"[""0.803"",""0.250"",""0.597"",""0.843""]","[0,1,1,1]",0,23,23,23,1,1,1,,,1,FALSE,,,,,,,,,,,,,,,,,,,,,,,,,,,,,,
,615b4d67bd21e66571f5581b,001,2022-04-28_20h17.01.580,classification_task,2021.2.3,MacIntel,60.0024001,615b4d67bd21e66571f5581b,626b377229c10585ec392f8a,626b3c7510b7b3eb45797a05,,,,,,,,,,,,,,,,,,,,,,,a,1,0.6973,"[""0.179"",""0.485"",""0.700"",""0.081""]","[1,1,1,0]",0,24,24,24,1,0,1,,,1,FALSE,,,,,,,,,,,,,,,,,,,,,,,,,,,,,,
,615b4d67bd21e66571f5581b,001,2022-04-28_20h17.01.580,classification_task,2021.2.3,MacIntel,60.0024001,615b4d67bd21e66571f5581b,626b377229c10585ec392f8a,626b3c7510b7b3eb45797a05,,,,,,,,,,,,,,,,,,,,,,,a,1,0.81,"[""0.179"",""0.485"",""0.093"",""0.963""]","[1,1,0,1]",0,25,25,25,1,0,1,,,1,FALSE,,,,,,,,,,,,,,,,,,,,,,,,,,,,,,
,615b4d67bd21e66571f5581b,001,2022-04-28_20h17.01.580,classification_task,2021.2.3,MacIntel,60.0024001,615b4d67bd21e66571f5581b,626b377229c10585ec392f8a,626b3c7510b7b3eb45797a05,,,,,,,,,,,,,,,,,,,,,,,l,1,1.9956,"[""0.030"",""0.803"",""0.437"",""0.761""]","[1,0,1,1]",0,26,26,26,1,1,0,,,1,FALSE,,,,,,,,,,,,,,,,,,,,,,,,,,,,,,
,615b4d67bd21e66571f5581b,001,2022-04-28_20h17.01.580,classification_task,2021.2.3,MacIntel,60.0024001,615b4d67bd21e66571f5581b,626b377229c10585ec392f8a,626b3c7510b7b3eb45797a05,,,,,,,,,,,,,,,,,,,,,,,l,1,1.5087,"[""0.144"",""0.250"",""0.597"",""0.650""]","[1,1,1,0]",0,27,27,27,1,1,1,,,1,FALSE,,,,,,,,,,,,,,,,,,,,,,,,,,,,,,
,615b4d67bd21e66571f5581b,001,2022-04-28_20h17.01.580,classification_task,2021.2.3,MacIntel,60.0024001,615b4d67bd21e66571f5581b,626b377229c10585ec392f8a,626b3c7510b7b3eb45797a05,,,,,,,,,,,,,,,,,,,,,,,l,1,4.6182,"[""0.093"",""0.371"",""0.437"",""0.761""]","[0,1,1,1]",0,28,28,28,1,1,0,,,1,FALSE,,,,,,,,,,,,,,,,,,,,,,,,,,,,,,
,615b4d67bd21e66571f5581b,001,2022-04-28_20h17.01.580,classification_task,2021.2.3,MacIntel,60.0024001,615b4d67bd21e66571f5581b,626b377229c10585ec392f8a,626b3c7510b7b3eb45797a05,,,,,,,,,,,,,,,,,,,,,,,l,1,2.0436,"[""0.144"",""0.250"",""0.661"",""0.843""]","[1,1,0,1]",0,29,29,29,1,1,1,,,1,FALSE,,,,,,,,,,,,,,,,,,,,,,,,,,,,,,
,615b4d67bd21e66571f5581b,001,2022-04-28_20h17.01.580,classification_task,2021.2.3,MacIntel,60.0024001,615b4d67bd21e66571f5581b,626b377229c10585ec392f8a,626b3c7510b7b3eb45797a05,,,,,,,,,,,,,,,,,,,,,,,a,1,1.3665,"[""0.317"",""0.530"",""0.890"",""0.083""]","[1,1,1,0]",0,30,30,30,1,0,0,,,1,FALSE,,,,,,,,,,,,,,,,,,,,,,,,,,,,,,
,615b4d67bd21e66571f5581b,001,2022-04-28_20h17.01.580,classification_task,2021.2.3,MacIntel,60.0024001,615b4d67bd21e66571f5581b,626b377229c10585ec392f8a,626b3c7510b7b3eb45797a05,,,,,,,,,,,,,,,,,,,,,,,a,1,1.4802,"[""0.215"",""0.485"",""0.700"",""0.963""]","[0,1,1,1]",0,31,31,31,1,0,1,,,1,FALSE,,,,,,,,,,,,,,,,,,,,,,,,,,,,,,
,615b4d67bd21e66571f5581b,001,2022-04-28_20h17.01.580,classification_task,2021.2.3,MacIntel,60.0024001,615b4d67bd21e66571f5581b,626b377229c10585ec392f8a,626b3c7510b7b3eb45797a05,,,,,,,,,,,,,,,,,,,,,,,l,1,1.3511,"[""0.144"",""0.250"",""0.597"",""0.215""]","[1,1,1,0]",0,32,32,32,1,1,1,,,1,FALSE,,,,,,,,,,,,,,,,,,,,,,,,,,,,,,
,615b4d67bd21e66571f5581b,001,2022-04-28_20h17.01.580,classification_task,2021.2.3,MacIntel,60.0024001,615b4d67bd21e66571f5581b,626b377229c10585ec392f8a,626b3c7510b7b3eb45797a05,,,,,,,,,,,,,,,,,,,,,,,l,1,1.4629,"[""0.030"",""0.371"",""0.079"",""0.761""]","[1,1,0,1]",0,33,33,33,1,1,0,,,1,FALSE,,,,,,,,,,,,,,,,,,,,,,,,,,,,,,
,615b4d67bd21e66571f5581b,001,2022-04-28_20h17.01.580,classification_task,2021.2.3,MacIntel,60.0024001,615b4d67bd21e66571f5581b,626b377229c10585ec392f8a,626b3c7510b7b3eb45797a05,,,,,,,,,,,,,,,,,,,,,,,l,1,1.5467,"[""0.144"",""0.250"",""0.079"",""0.843""]","[1,1,0,1]",0,34,34,34,1,1,1,,,1,FALSE,,,,,,,,,,,,,,,,,,,,,,,,,,,,,,
,615b4d67bd21e66571f5581b,001,2022-04-28_20h17.01.580,classification_task,2021.2.3,MacIntel,60.0024001,615b4d67bd21e66571f5581b,626b377229c10585ec392f8a,626b3c7510b7b3eb45797a05,,,,,,,,,,,,,,,,,,,,,,,a,1,1.7471,"[""0.179"",""0.485"",""0.283"",""0.963""]","[1,1,0,1]",0,35,35,35,1,0,1,,,1,FALSE,,,,,,,,,,,,,,,,,,,,,,,,,,,,,,
,615b4d67bd21e66571f5581b,001,2022-04-28_20h17.01.580,classification_task,2021.2.3,MacIntel,60.0024001,615b4d67bd21e66571f5581b,626b377229c10585ec392f8a,626b3c7510b7b3eb45797a05,,,,,,,,,,,,,,,,,,,,,,,a,1,2.7009,"[""0.317"",""0.530"",""0.631"",""0.929""]","[1,1,0,1]",0,36,36,36,1,0,0,,,1,FALSE,,,,,,,,,,,,,,,,,,,,,,,,,,,,,,
,615b4d67bd21e66571f5581b,001,2022-04-28_20h17.01.580,classification_task,2021.2.3,MacIntel,60.0024001,615b4d67bd21e66571f5581b,626b377229c10585ec392f8a,626b3c7510b7b3eb45797a05,,,,,,,,,,,,,,,,,,,,,,,l,1,0.9299,"[""0.030"",""0.653"",""0.437"",""0.761""]","[1,0,1,1]",0,37,37,37,1,1,0,,,1,FALSE,,,,,,,,,,,,,,,,,,,,,,,,,,,,,,
,615b4d67bd21e66571f5581b,001,2022-04-28_20h17.01.580,classification_task,2021.2.3,MacIntel,60.0024001,615b4d67bd21e66571f5581b,626b377229c10585ec392f8a,626b3c7510b7b3eb45797a05,,,,,,,,,,,,,,,,,,,,,,,a,1,0.7004,"[""0.179"",""0.083"",""0.700"",""0.963""]","[1,0,1,1]",0,38,38,38,1,0,1,,,1,FALSE,,,,,,,,,,,,,,,,,,,,,,,,,,,,,,
,615b4d67bd21e66571f5581b,001,2022-04-28_20h17.01.580,classification_task,2021.2.3,MacIntel,60.0024001,615b4d67bd21e66571f5581b,626b377229c10585ec392f8a,626b3c7510b7b3eb45797a05,,,,,,,,,,,,,,,,,,,,,,,a,1,1.37,"[""0.317"",""0.809"",""0.890"",""0.929""]","[1,0,1,1]",0,39,39,39,1,0,0,,,1,FALSE,,,,,,,,,,,,,,,,,,,,,,,,,,,,,,
,615b4d67bd21e66571f5581b,001,2022-04-28_20h17.01.580,classification_task,2021.2.3,MacIntel,60.0024001,615b4d67bd21e66571f5581b,626b377229c10585ec392f8a,626b3c7510b7b3eb45797a05,,,,,,,,,,,,,,,,,,,,,,,a,1,0.7512,"[""0.809"",""0.485"",""0.700"",""0.963""]","[0,1,1,1]",0,40,40,40,1,0,1,,,1,FALSE,,,,,,,,,,,,,,,,,,,,,,,,,,,,,,
,615b4d67bd21e66571f5581b,001,2022-04-28_20h17.01.580,classification_task,2021.2.3,MacIntel,60.0024001,615b4d67bd21e66571f5581b,626b377229c10585ec392f8a,626b3c7510b7b3eb45797a05,,,,,,,,,,,,,,,,,,,,,,,l,1,0.8858,"[""0.803"",""0.371"",""0.437"",""0.761""]","[0,1,1,1]",0,41,41,41,1,1,0,,,1,FALSE,,,,,,,,,,,,,,,,,,,,,,,,,,,,,,
,615b4d67bd21e66571f5581b,001,2022-04-28_20h17.01.580,classification_task,2021.2.3,MacIntel,60.0024001,615b4d67bd21e66571f5581b,626b377229c10585ec392f8a,626b3c7510b7b3eb45797a05,,,,,,,,,,,,,,,,,,,,,,,a,1,0.9201,"[""0.650"",""0.530"",""0.890"",""0.929""]","[0,1,1,1]",0,42,42,42,1,0,0,,,1,FALSE,,,,,,,,,,,,,,,,,,,,,,,,,,,,,,
,615b4d67bd21e66571f5581b,001,2022-04-28_20h17.01.580,classification_task,2021.2.3,MacIntel,60.0024001,615b4d67bd21e66571f5581b,626b377229c10585ec392f8a,626b3c7510b7b3eb45797a05,,,,,,,,,,,,,,,,,,,,,,,l,1,0.7864,"[""0.030"",""0.371"",""0.437"",""0.661""]","[1,1,1,0]",0,43,43,43,1,1,0,,,1,FALSE,,,,,,,,,,,,,,,,,,,,,,,,,,,,,,
,615b4d67bd21e66571f5581b,001,2022-04-28_20h17.01.580,classification_task,2021.2.3,MacIntel,60.0024001,615b4d67bd21e66571f5581b,626b377229c10585ec392f8a,626b3c7510b7b3eb45797a05,,,,,,,,,,,,,,,,,,,,,,,l,1,1.1197,"[""0.653"",""0.250"",""0.597"",""0.843""]","[0,1,1,1]",0,44,44,44,1,1,1,,,1,FALSE,,,,,,,,,,,,,,,,,,,,,,,,,,,,,,
,615b4d67bd21e66571f5581b,001,2022-04-28_20h17.01.580,classification_task,2021.2.3,MacIntel,60.0024001,615b4d67bd21e66571f5581b,626b377229c10585ec392f8a,626b3c7510b7b3eb45797a05,,,,,,,,,,,,,,,,,,,,,,,a,1,0.7844,"[""0.179"",""0.485"",""0.700"",""0.083""]","[1,1,1,0]",0,45,45,45,1,0,1,,,1,FALSE,,,,,,,,,,,,,,,,,,,,,,,,,,,,,,
,615b4d67bd21e66571f5581b,001,2022-04-28_20h17.01.580,classification_task,2021.2.3,MacIntel,60.0024001,615b4d67bd21e66571f5581b,626b377229c10585ec392f8a,626b3c7510b7b3eb45797a05,,,,,,,,,,,,,,,,,,,,,,,a,0,0.5818,"[""0.144"",""0.215"",""0.597"",""0.843""]","[1,0,1,1]",0,46,46,46,1,1,1,,,1,FALSE,,,,,,,,,,,,,,,,,,,,,,,,,,,,,,
,615b4d67bd21e66571f5581b,001,2022-04-28_20h17.01.580,classification_task,2021.2.3,MacIntel,60.0024001,615b4d67bd21e66571f5581b,626b377229c10585ec392f8a,626b3c7510b7b3eb45797a05,,,,,,,,,,,,,,,,,,,,,,,a,1,1.518,"[""0.317"",""0.530"",""0.890"",""0.661""]","[1,1,1,0]",0,47,47,47,1,0,0,,,1,FALSE,,,,,,,,,,,,,,,,,,,,,,,,,,,,,,
,615b4d67bd21e66571f5581b,001,2022-04-28_20h17.01.580,classification_task,2021.2.3,MacIntel,60.0024001,615b4d67bd21e66571f5581b,626b377229c10585ec392f8a,626b3c7510b7b3eb45797a05,,,,,,,,,,,,,,,,,,,,,,,a,1,1.0208,"[""0.317"",""0.079"",""0.890"",""0.929""]","[1,0,1,1]",0,48,48,48,1,0,0,,,1,FALSE,,,,,,,,,,,,,,,,,,,,,,,,,,,,,,
,615b4d67bd21e66571f5581b,001,2022-04-28_20h17.01.580,classification_task,2021.2.3,MacIntel,60.0024001,615b4d67bd21e66571f5581b,626b377229c10585ec392f8a,626b3c7510b7b3eb45797a05,,,,,,,,,,,,,,,,,,,,,,,l,1,0.8513,"[""0.144"",""0.250"",""0.083"",""0.843""]","[1,1,0,1]",0,49,49,49,1,1,1,,,1,FALSE,,,,,,,,,,,,,,,,,,,,,,,,,,,,,,
,615b4d67bd21e66571f5581b,001,2022-04-28_20h17.01.580,classification_task,2021.2.3,MacIntel,60.0024001,615b4d67bd21e66571f5581b,626b377229c10585ec392f8a,626b3c7510b7b3eb45797a05,,,,,,,,,,,,,,,,,,,,,,,l,1,1.0854,"[""0.030"",""0.650"",""0.437"",""0.761""]","[1,0,1,1]",0,50,50,50,1,1,0,,,1,FALSE,,,,,,,,,,,,,,,,,,,,,,,,,,,,,,
,615b4d67bd21e66571f5581b,001,2022-04-28_20h17.01.580,classification_task,2021.2.3,MacIntel,60.0024001,615b4d67bd21e66571f5581b,626b377229c10585ec392f8a,626b3c7510b7b3eb45797a05,,,,,,,,,,,,,,,,,,,,,,,l,1,0.8408,"[""0.650"",""0.371"",""0.437"",""0.761""]","[0,1,1,1]",0,51,51,51,1,1,0,,,1,FALSE,,,,,,,,,,,,,,,,,,,,,,,,,,,,,,
,615b4d67bd21e66571f5581b,001,2022-04-28_20h17.01.580,classification_task,2021.2.3,MacIntel,60.0024001,615b4d67bd21e66571f5581b,626b377229c10585ec392f8a,626b3c7510b7b3eb45797a05,,,,,,,,,,,,,,,,,,,,,,,a,1,0.6859,"[""0.317"",""0.530"",""0.805"",""0.929""]","[1,1,0,1]",0,52,52,52,1,0,0,,,1,FALSE,,,,,,,,,,,,,,,,,,,,,,,,,,,,,,
,615b4d67bd21e66571f5581b,001,2022-04-28_20h17.01.580,classification_task,2021.2.3,MacIntel,60.0024001,615b4d67bd21e66571f5581b,626b377229c10585ec392f8a,626b3c7510b7b3eb45797a05,,,,,,,,,,,,,,,,,,,,,,,a,1,0.837,"[""0.317"",""0.530"",""0.890"",""0.215""]","[1,1,1,0]",0,53,53,53,1,0,0,,,1,FALSE,,,,,,,,,,,,,,,,,,,,,,,,,,,,,,
,615b4d67bd21e66571f5581b,001,2022-04-28_20h17.01.580,classification_task,2021.2.3,MacIntel,60.0024001,615b4d67bd21e66571f5581b,626b377229c10585ec392f8a,626b3c7510b7b3eb45797a05,,,,,,,,,,,,,,,,,,,,,,,a,1,0.8009,"[""0.653"",""0.485"",""0.700"",""0.963""]","[0,1,1,1]",0,54,54,54,1,0,1,,,1,FALSE,,,,,,,,,,,,,,,,,,,,,,,,,,,,,,
,615b4d67bd21e66571f5581b,001,2022-04-28_20h17.01.580,classification_task,2021.2.3,MacIntel,60.0024001,615b4d67bd21e66571f5581b,626b377229c10585ec392f8a,626b3c7510b7b3eb45797a05,,,,,,,,,,,,,,,,,,,,,,,l,1,1.2835,"[""0.030"",""0.371"",""0.653"",""0.761""]","[1,1,0,1]",0,55,55,55,1,1,0,,,1,FALSE,,,,,,,,,,,,,,,,,,,,,,,,,,,,,,
,615b4d67bd21e66571f5581b,001,2022-04-28_20h17.01.580,classification_task,2021.2.3,MacIntel,60.0024001,615b4d67bd21e66571f5581b,626b377229c10585ec392f8a,626b3c7510b7b3eb45797a05,,,,,,,,,,,,,,,,,,,,,,,a,1,1.8164,"[""0.179"",""0.485"",""0.700"",""0.083""]","[1,1,1,0]",0,56,56,56,1,0,1,,,1,FALSE,,,,,,,,,,,,,,,,,,,,,,,,,,,,,,
,615b4d67bd21e66571f5581b,001,2022-04-28_20h17.01.580,classification_task,2021.2.3,MacIntel,60.0024001,615b4d67bd21e66571f5581b,626b377229c10585ec392f8a,626b3c7510b7b3eb45797a05,,,,,,,,,,,,,,,,,,,,,,,l,1,1.5995,"[""0.144"",""0.250"",""0.597"",""0.083""]","[1,1,1,0]",0,57,57,57,1,1,1,,,1,FALSE,,,,,,,,,,,,,,,,,,,,,,,,,,,,,,
,615b4d67bd21e66571f5581b,001,2022-04-28_20h17.01.580,classification_task,2021.2.3,MacIntel,60.0024001,615b4d67bd21e66571f5581b,626b377229c10585ec392f8a,626b3c7510b7b3eb45797a05,,,,,,,,,,,,,,,,,,,,,,,a,1,1.1476,"[""0.179"",""0.653"",""0.700"",""0.963""]","[1,0,1,1]",0,58,58,58,1,0,1,,,1,FALSE,,,,,,,,,,,,,,,,,,,,,,,,,,,,,,
,615b4d67bd21e66571f5581b,001,2022-04-28_20h17.01.580,classification_task,2021.2.3,MacIntel,60.0024001,615b4d67bd21e66571f5581b,626b377229c10585ec392f8a,626b3c7510b7b3eb45797a05,,,,,,,,,,,,,,,,,,,,,,,l,1,2.088,"[""0.653"",""0.250"",""0.597"",""0.843""]","[0,1,1,1]",0,59,59,59,1,1,1,,,1,FALSE,,,,,,,,,,,,,,,,,,,,,,,,,,,,,,
,615b4d67bd21e66571f5581b,001,2022-04-28_20h17.01.580,classification_task,2021.2.3,MacIntel,60.0024001,615b4d67bd21e66571f5581b,626b377229c10585ec392f8a,626b3c7510b7b3eb45797a05,,,,,,,,,,,,,,,,,,,,,,,l,1,1.6311,"[""0.030"",""0.371"",""0.437"",""0.805""]","[1,1,1,0]",0,60,60,60,1,1,0,,,1,FALSE,,,,,,,,,,,,,,,,,,,,,,,,,,,,,,
,615b4d67bd21e66571f5581b,001,2022-04-28_20h17.01.580,classification_task,2021.2.3,MacIntel,60.0024001,615b4d67bd21e66571f5581b,626b377229c10585ec392f8a,626b3c7510b7b3eb45797a05,,,,,,,,,,,,,,,,,,,,,,,a,0,0.6604,"[""0.144"",""0.653"",""0.597"",""0.843""]","[1,0,1,1]",0,61,61,61,1,1,1,,,1,FALSE,,,,,,,,,,,,,,,,,,,,,,,,,,,,,,
,615b4d67bd21e66571f5581b,001,2022-04-28_20h17.01.580,classification_task,2021.2.3,MacIntel,60.0024001,615b4d67bd21e66571f5581b,626b377229c10585ec392f8a,626b3c7510b7b3eb45797a05,,,,,,,,,,,,,,,,,,,,,,,a,1,0.7855,"[""0.179"",""0.485"",""0.215"",""0.963""]","[1,1,0,1]",0,62,62,62,1,0,1,,,1,FALSE,,,,,,,,,,,,,,,,,,,,,,,,,,,,,,
,615b4d67bd21e66571f5581b,001,2022-04-28_20h17.01.580,classification_task,2021.2.3,MacIntel,60.0024001,615b4d67bd21e66571f5581b,626b377229c10585ec392f8a,626b3c7510b7b3eb45797a05,,,,,,,,,,,,,,,,,,,,,,,a,1,1.2839,"[""0.809"",""0.530"",""0.890"",""0.929""]","[0,1,1,1]",0,63,63,63,1,0,0,,,1,FALSE,,,,,,,,,,,,,,,,,,,,,,,,,,,,,,
,615b4d67bd21e66571f5581b,001,2022-04-28_20h17.01.580,classification_task,2021.2.3,MacIntel,60.0024001,615b4d67bd21e66571f5581b,626b377229c10585ec392f8a,626b3c7510b7b3eb45797a05,,,,,,,,,,,,,,,,,,,,,,,,,,,,,,,,,,,,,,,0, ,,0,2.514959534,282.7266,0,1,1,1,1,2,2,,,,,,,,,,,,,,,,,
,615b4d67bd21e66571f5581b,001,2022-04-28_20h17.01.580,classification_task,2021.2.3,MacIntel,60.0024001,615b4d67bd21e66571f5581b,626b377229c10585ec392f8a,626b3c7510b7b3eb45797a05,,,,,,,,,,,,,,,,,,,,,,,,,,,,,,,,,,,,,,,1,  ,,0,7.676431072,286.176,0,1,1,1,1,2,2,,,,,,,,,,,,,,,,,
,615b4d67bd21e66571f5581b,001,2022-04-28_20h17.01.580,classification_task,2021.2.3,MacIntel,60.0024001,615b4d67bd21e66571f5581b,626b377229c10585ec392f8a,626b3c7510b7b3eb45797a05,,,,,,,,,,,,,,,,,,,,,,,,,,,,,,,,,,,,,,,2,  ,,0,2.813376954,288.2103,0,1,1,1,1,2,2,,,,,,,,,,,,,,,,,
,615b4d67bd21e66571f5581b,001,2022-04-28_20h17.01.580,classification_task,2021.2.3,MacIntel,60.0024001,615b4d67bd21e66571f5581b,626b377229c10585ec392f8a,626b3c7510b7b3eb45797a05,,,,,,,,,,,,,,,,,,,,,,,,,,,,,,,,,,,,,,,,,,,,,0,1,1,1,1,,2,,,,,,,,,,,,,,,,,
,615b4d67bd21e66571f5581b,001,2022-04-28_20h17.01.580,classification_task,2021.2.3,MacIntel,60.0024001,615b4d67bd21e66571f5581b,626b377229c10585ec392f8a,626b3c7510b7b3eb45797a05,,,,,,,,,,,,,,,,,,,,,space,13.4018,l,1,2.8486,"[""0.030"",""0.371"",""0.653"",""0.761""]","[1,1,0,1]",0,0,0,0,1,1,0,,,1,FALSE,,,,,,,,,,,,,,,,,,,,,,,,,,,,,,
,615b4d67bd21e66571f5581b,001,2022-04-28_20h17.01.580,classification_task,2021.2.3,MacIntel,60.0024001,615b4d67bd21e66571f5581b,626b377229c10585ec392f8a,626b3c7510b7b3eb45797a05,,,,,,,,,,,,,,,,,,,,,,,a,1,0.8948,"[""0.317"",""0.809"",""0.890"",""0.929""]","[1,0,1,1]",0,1,1,1,1,0,0,,,1,FALSE,,,,,,,,,,,,,,,,,,,,,,,,,,,,,,
,615b4d67bd21e66571f5581b,001,2022-04-28_20h17.01.580,classification_task,2021.2.3,MacIntel,60.0024001,615b4d67bd21e66571f5581b,626b377229c10585ec392f8a,626b3c7510b7b3eb45797a05,,,,,,,,,,,,,,,,,,,,,,,l,0,4.4712,"[""0.179"",""0.485"",""0.700"",""0.653""]","[1,1,1,0]",0,2,2,2,1,0,1,,,1,FALSE,,,,,,,,,,,,,,,,,,,,,,,,,,,,,,
,615b4d67bd21e66571f5581b,001,2022-04-28_20h17.01.580,classification_task,2021.2.3,MacIntel,60.0024001,615b4d67bd21e66571f5581b,626b377229c10585ec392f8a,626b3c7510b7b3eb45797a05,,,,,,,,,,,,,,,,,,,,,,,a,1,1.1838,"[""0.631"",""0.530"",""0.890"",""0.929""]","[0,1,1,1]",0,3,3,3,1,0,0,,,1,FALSE,,,,,,,,,,,,,,,,,,,,,,,,,,,,,,
,615b4d67bd21e66571f5581b,001,2022-04-28_20h17.01.580,classification_task,2021.2.3,MacIntel,60.0024001,615b4d67bd21e66571f5581b,626b377229c10585ec392f8a,626b3c7510b7b3eb45797a05,,,,,,,,,,,,,,,,,,,,,,,l,1,1.0474,"[""0.661"",""0.371"",""0.437"",""0.761""]","[0,1,1,1]",0,4,4,4,1,1,0,,,1,FALSE,,,,,,,,,,,,,,,,,,,,,,,,,,,,,,
,615b4d67bd21e66571f5581b,001,2022-04-28_20h17.01.580,classification_task,2021.2.3,MacIntel,60.0024001,615b4d67bd21e66571f5581b,626b377229c10585ec392f8a,626b3c7510b7b3eb45797a05,,,,,,,,,,,,,,,,,,,,,,,a,1,2.4105,"[""0.317"",""0.530"",""0.083"",""0.929""]","[1,1,0,1]",0,5,5,5,1,0,0,,,1,FALSE,,,,,,,,,,,,,,,,,,,,,,,,,,,,,,
,615b4d67bd21e66571f5581b,001,2022-04-28_20h17.01.580,classification_task,2021.2.3,MacIntel,60.0024001,615b4d67bd21e66571f5581b,626b377229c10585ec392f8a,626b3c7510b7b3eb45797a05,,,,,,,,,,,,,,,,,,,,,,,l,1,2.3968,"[""0.653"",""0.250"",""0.597"",""0.843""]","[0,1,1,1]",0,6,6,6,1,1,1,,,1,FALSE,,,,,,,,,,,,,,,,,,,,,,,,,,,,,,
,615b4d67bd21e66571f5581b,001,2022-04-28_20h17.01.580,classification_task,2021.2.3,MacIntel,60.0024001,615b4d67bd21e66571f5581b,626b377229c10585ec392f8a,626b3c7510b7b3eb45797a05,,,,,,,,,,,,,,,,,,,,,,,l,1,1.2184,"[""0.030"",""0.371"",""0.437"",""0.631""]","[1,1,1,0]",0,7,7,7,1,1,0,,,1,FALSE,,,,,,,,,,,,,,,,,,,,,,,,,,,,,,
,615b4d67bd21e66571f5581b,001,2022-04-28_20h17.01.580,classification_task,2021.2.3,MacIntel,60.0024001,615b4d67bd21e66571f5581b,626b377229c10585ec392f8a,626b3c7510b7b3eb45797a05,,,,,,,,,,,,,,,,,,,,,,,l,1,1.1804,"[""0.030"",""0.662"",""0.437"",""0.761""]","[1,0,1,1]",0,8,8,8,1,1,0,,,1,FALSE,,,,,,,,,,,,,,,,,,,,,,,,,,,,,,
,615b4d67bd21e66571f5581b,001,2022-04-28_20h17.01.580,classification_task,2021.2.3,MacIntel,60.0024001,615b4d67bd21e66571f5581b,626b377229c10585ec392f8a,626b3c7510b7b3eb45797a05,,,,,,,,,,,,,,,,,,,,,,,a,0,2.8088,"[""0.144"",""0.250"",""0.597"",""0.093""]","[1,1,1,0]",0,9,9,9,1,1,1,,,1,FALSE,,,,,,,,,,,,,,,,,,,,,,,,,,,,,,
,615b4d67bd21e66571f5581b,001,2022-04-28_20h17.01.580,classification_task,2021.2.3,MacIntel,60.0024001,615b4d67bd21e66571f5581b,626b377229c10585ec392f8a,626b3c7510b7b3eb45797a05,,,,,,,,,,,,,,,,,,,,,,,a,1,1.0167,"[""0.083"",""0.485"",""0.700"",""0.963""]","[0,1,1,1]",0,10,10,10,1,0,1,,,1,FALSE,,,,,,,,,,,,,,,,,,,,,,,,,,,,,,
,615b4d67bd21e66571f5581b,001,2022-04-28_20h17.01.580,classification_task,2021.2.3,MacIntel,60.0024001,615b4d67bd21e66571f5581b,626b377229c10585ec392f8a,626b3c7510b7b3eb45797a05,,,,,,,,,,,,,,,,,,,,,,,a,1,0.9334,"[""0.179"",""0.485"",""0.215"",""0.963""]","[1,1,0,1]",0,11,11,11,1,0,1,,,1,FALSE,,,,,,,,,,,,,,,,,,,,,,,,,,,,,,
,615b4d67bd21e66571f5581b,001,2022-04-28_20h17.01.580,classification_task,2021.2.3,MacIntel,60.0024001,615b4d67bd21e66571f5581b,626b377229c10585ec392f8a,626b3c7510b7b3eb45797a05,,,,,,,,,,,,,,,,,,,,,,,a,1,1.4279,"[""0.317"",""0.530"",""0.890"",""0.081""]","[1,1,1,0]",0,12,12,12,1,0,0,,,1,FALSE,,,,,,,,,,,,,,,,,,,,,,,,,,,,,,
,615b4d67bd21e66571f5581b,001,2022-04-28_20h17.01.580,classification_task,2021.2.3,MacIntel,60.0024001,615b4d67bd21e66571f5581b,626b377229c10585ec392f8a,626b3c7510b7b3eb45797a05,,,,,,,,,,,,,,,,,,,,,,,l,1,0.9937,"[""0.144"",""0.631"",""0.597"",""0.843""]","[1,0,1,1]",0,13,13,13,1,1,1,,,1,FALSE,,,,,,,,,,,,,,,,,,,,,,,,,,,,,,
,615b4d67bd21e66571f5581b,001,2022-04-28_20h17.01.580,classification_task,2021.2.3,MacIntel,60.0024001,615b4d67bd21e66571f5581b,626b377229c10585ec392f8a,626b3c7510b7b3eb45797a05,,,,,,,,,,,,,,,,,,,,,,,a,1,0.9256,"[""0.179"",""0.215"",""0.700"",""0.963""]","[1,0,1,1]",0,14,14,14,1,0,1,,,1,FALSE,,,,,,,,,,,,,,,,,,,,,,,,,,,,,,
,615b4d67bd21e66571f5581b,001,2022-04-28_20h17.01.580,classification_task,2021.2.3,MacIntel,60.0024001,615b4d67bd21e66571f5581b,626b377229c10585ec392f8a,626b3c7510b7b3eb45797a05,,,,,,,,,,,,,,,,,,,,,,,l,1,1.6096,"[""0.144"",""0.250"",""0.215"",""0.843""]","[1,1,0,1]",0,15,15,15,1,1,1,,,1,FALSE,,,,,,,,,,,,,,,,,,,,,,,,,,,,,,
,615b4d67bd21e66571f5581b,001,2022-04-28_20h17.01.580,classification_task,2021.2.3,MacIntel,60.0024001,615b4d67bd21e66571f5581b,626b377229c10585ec392f8a,626b3c7510b7b3eb45797a05,,,,,,,,,,,,,,,,,,,,,,,a,1,1.0886,"[""0.179"",""0.485"",""0.661"",""0.963""]","[1,1,0,1]",0,16,16,16,1,0,1,,,1,FALSE,,,,,,,,,,,,,,,,,,,,,,,,,,,,,,
,615b4d67bd21e66571f5581b,001,2022-04-28_20h17.01.580,classification_task,2021.2.3,MacIntel,60.0024001,615b4d67bd21e66571f5581b,626b377229c10585ec392f8a,626b3c7510b7b3eb45797a05,,,,,,,,,,,,,,,,,,,,,,,l,1,1.7297,"[""0.030"",""0.631"",""0.437"",""0.761""]","[1,0,1,1]",0,17,17,17,1,1,0,,,1,FALSE,,,,,,,,,,,,,,,,,,,,,,,,,,,,,,
,615b4d67bd21e66571f5581b,001,2022-04-28_20h17.01.580,classification_task,2021.2.3,MacIntel,60.0024001,615b4d67bd21e66571f5581b,626b377229c10585ec392f8a,626b3c7510b7b3eb45797a05,,,,,,,,,,,,,,,,,,,,,,,a,1,0.6498,"[""0.662"",""0.530"",""0.890"",""0.929""]","[0,1,1,1]",0,18,18,18,1,0,0,,,1,FALSE,,,,,,,,,,,,,,,,,,,,,,,,,,,,,,
,615b4d67bd21e66571f5581b,001,2022-04-28_20h17.01.580,classification_task,2021.2.3,MacIntel,60.0024001,615b4d67bd21e66571f5581b,626b377229c10585ec392f8a,626b3c7510b7b3eb45797a05,,,,,,,,,,,,,,,,,,,,,,,l,1,1.385,"[""0.144"",""0.250"",""0.597"",""0.083""]","[1,1,1,0]",0,19,19,19,1,1,1,,,1,FALSE,,,,,,,,,,,,,,,,,,,,,,,,,,,,,,
,615b4d67bd21e66571f5581b,001,2022-04-28_20h17.01.580,classification_task,2021.2.3,MacIntel,60.0024001,615b4d67bd21e66571f5581b,626b377229c10585ec392f8a,626b3c7510b7b3eb45797a05,,,,,,,,,,,,,,,,,,,,,,,a,1,0.7376,"[""0.317"",""0.653"",""0.890"",""0.929""]","[1,0,1,1]",0,20,20,20,1,0,0,,,1,FALSE,,,,,,,,,,,,,,,,,,,,,,,,,,,,,,
,615b4d67bd21e66571f5581b,001,2022-04-28_20h17.01.580,classification_task,2021.2.3,MacIntel,60.0024001,615b4d67bd21e66571f5581b,626b377229c10585ec392f8a,626b3c7510b7b3eb45797a05,,,,,,,,,,,,,,,,,,,,,,,a,1,2.6937,"[""0.317"",""0.530"",""0.653"",""0.929""]","[1,1,0,1]",0,21,21,21,1,0,0,,,1,FALSE,,,,,,,,,,,,,,,,,,,,,,,,,,,,,,
,615b4d67bd21e66571f5581b,001,2022-04-28_20h17.01.580,classification_task,2021.2.3,MacIntel,60.0024001,615b4d67bd21e66571f5581b,626b377229c10585ec392f8a,626b3c7510b7b3eb45797a05,,,,,,,,,,,,,,,,,,,,,,,l,1,1.7642,"[""0.144"",""0.661"",""0.597"",""0.843""]","[1,0,1,1]",0,22,22,22,1,1,1,,,1,FALSE,,,,,,,,,,,,,,,,,,,,,,,,,,,,,,
,615b4d67bd21e66571f5581b,001,2022-04-28_20h17.01.580,classification_task,2021.2.3,MacIntel,60.0024001,615b4d67bd21e66571f5581b,626b377229c10585ec392f8a,626b3c7510b7b3eb45797a05,,,,,,,,,,,,,,,,,,,,,,,l,1,1.4762,"[""0.030"",""0.371"",""0.093"",""0.761""]","[1,1,0,1]",0,23,23,23,1,1,0,,,1,FALSE,,,,,,,,,,,,,,,,,,,,,,,,,,,,,,
,615b4d67bd21e66571f5581b,001,2022-04-28_20h17.01.580,classification_task,2021.2.3,MacIntel,60.0024001,615b4d67bd21e66571f5581b,626b377229c10585ec392f8a,626b3c7510b7b3eb45797a05,,,,,,,,,,,,,,,,,,,,,,,l,1,2.1358,"[""0.093"",""0.250"",""0.597"",""0.843""]","[0,1,1,1]",0,24,24,24,1,1,1,,,1,FALSE,,,,,,,,,,,,,,,,,,,,,,,,,,,,,,
,615b4d67bd21e66571f5581b,001,2022-04-28_20h17.01.580,classification_task,2021.2.3,MacIntel,60.0024001,615b4d67bd21e66571f5581b,626b377229c10585ec392f8a,626b3c7510b7b3eb45797a05,,,,,,,,,,,,,,,,,,,,,,,a,1,0.6833,"[""0.631"",""0.485"",""0.700"",""0.963""]","[0,1,1,1]",0,25,25,25,1,0,1,,,1,FALSE,,,,,,,,,,,,,,,,,,,,,,,,,,,,,,
,615b4d67bd21e66571f5581b,001,2022-04-28_20h17.01.580,classification_task,2021.2.3,MacIntel,60.0024001,615b4d67bd21e66571f5581b,626b377229c10585ec392f8a,626b3c7510b7b3eb45797a05,,,,,,,,,,,,,,,,,,,,,,,l,1,0.9068,"[""0.083"",""0.371"",""0.437"",""0.761""]","[0,1,1,1]",0,26,26,26,1,1,0,,,1,FALSE,,,,,,,,,,,,,,,,,,,,,,,,,,,,,,
,615b4d67bd21e66571f5581b,001,2022-04-28_20h17.01.580,classification_task,2021.2.3,MacIntel,60.0024001,615b4d67bd21e66571f5581b,626b377229c10585ec392f8a,626b3c7510b7b3eb45797a05,,,,,,,,,,,,,,,,,,,,,,,l,1,1.4936,"[""0.030"",""0.371"",""0.437"",""0.083""]","[1,1,1,0]",0,27,27,27,1,1,0,,,1,FALSE,,,,,,,,,,,,,,,,,,,,,,,,,,,,,,
,615b4d67bd21e66571f5581b,001,2022-04-28_20h17.01.580,classification_task,2021.2.3,MacIntel,60.0024001,615b4d67bd21e66571f5581b,626b377229c10585ec392f8a,626b3c7510b7b3eb45797a05,,,,,,,,,,,,,,,,,,,,,,,a,1,0.7941,"[""0.317"",""0.530"",""0.890"",""0.809""]","[1,1,1,0]",0,28,28,28,1,0,0,,,1,FALSE,,,,,,,,,,,,,,,,,,,,,,,,,,,,,,
,615b4d67bd21e66571f5581b,001,2022-04-28_20h17.01.580,classification_task,2021.2.3,MacIntel,60.0024001,615b4d67bd21e66571f5581b,626b377229c10585ec392f8a,626b3c7510b7b3eb45797a05,,,,,,,,,,,,,,,,,,,,,,,a,1,1.5363,"[""0.179"",""0.485"",""0.700"",""0.631""]","[1,1,1,0]",0,29,29,29,1,0,1,,,1,FALSE,,,,,,,,,,,,,,,,,,,,,,,,,,,,,,
,615b4d67bd21e66571f5581b,001,2022-04-28_20h17.01.580,classification_task,2021.2.3,MacIntel,60.0024001,615b4d67bd21e66571f5581b,626b377229c10585ec392f8a,626b3c7510b7b3eb45797a05,,,,,,,,,,,,,,,,,,,,,,,l,1,1.0793,"[""0.144"",""0.250"",""0.079"",""0.843""]","[1,1,0,1]",0,30,30,30,1,1,1,,,1,FALSE,,,,,,,,,,,,,,,,,,,,,,,,,,,,,,
,615b4d67bd21e66571f5581b,001,2022-04-28_20h17.01.580,classification_task,2021.2.3,MacIntel,60.0024001,615b4d67bd21e66571f5581b,626b377229c10585ec392f8a,626b3c7510b7b3eb45797a05,,,,,,,,,,,,,,,,,,,,,,,a,1,0.7899,"[""0.179"",""0.803"",""0.700"",""0.963""]","[1,0,1,1]",0,31,31,31,1,0,1,,,1,FALSE,,,,,,,,,,,,,,,,,,,,,,,,,,,,,,
,615b4d67bd21e66571f5581b,001,2022-04-28_20h17.01.580,classification_task,2021.2.3,MacIntel,60.0024001,615b4d67bd21e66571f5581b,626b377229c10585ec392f8a,626b3c7510b7b3eb45797a05,,,,,,,,,,,,,,,,,,,,,,,l,1,1.1784,"[""0.215"",""0.371"",""0.437"",""0.761""]","[0,1,1,1]",0,32,32,32,1,1,0,,,1,FALSE,,,,,,,,,,,,,,,,,,,,,,,,,,,,,,
,615b4d67bd21e66571f5581b,001,2022-04-28_20h17.01.580,classification_task,2021.2.3,MacIntel,60.0024001,615b4d67bd21e66571f5581b,626b377229c10585ec392f8a,626b3c7510b7b3eb45797a05,,,,,,,,,,,,,,,,,,,,,,,l,1,2.7365,"[""0.661"",""0.250"",""0.597"",""0.843""]","[0,1,1,1]",0,33,33,33,1,1,1,,,1,FALSE,,,,,,,,,,,,,,,,,,,,,,,,,,,,,,
,615b4d67bd21e66571f5581b,001,2022-04-28_20h17.01.580,classification_task,2021.2.3,MacIntel,60.0024001,615b4d67bd21e66571f5581b,626b377229c10585ec392f8a,626b3c7510b7b3eb45797a05,,,,,,,,,,,,,,,,,,,,,,,l,1,1.1648,"[""0.030"",""0.371"",""0.437"",""0.662""]","[1,1,1,0]",0,34,34,34,1,1,0,,,1,FALSE,,,,,,,,,,,,,,,,,,,,,,,,,,,,,,
,615b4d67bd21e66571f5581b,001,2022-04-28_20h17.01.580,classification_task,2021.2.3,MacIntel,60.0024001,615b4d67bd21e66571f5581b,626b377229c10585ec392f8a,626b3c7510b7b3eb45797a05,,,,,,,,,,,,,,,,,,,,,,,l,1,1.0908,"[""0.144"",""0.250"",""0.650"",""0.843""]","[1,1,0,1]",0,35,35,35,1,1,1,,,1,FALSE,,,,,,,,,,,,,,,,,,,,,,,,,,,,,,
,615b4d67bd21e66571f5581b,001,2022-04-28_20h17.01.580,classification_task,2021.2.3,MacIntel,60.0024001,615b4d67bd21e66571f5581b,626b377229c10585ec392f8a,626b3c7510b7b3eb45797a05,,,,,,,,,,,,,,,,,,,,,,,a,1,0.968,"[""0.317"",""0.530"",""0.215"",""0.929""]","[1,1,0,1]",0,36,36,36,1,0,0,,,1,FALSE,,,,,,,,,,,,,,,,,,,,,,,,,,,,,,
,615b4d67bd21e66571f5581b,001,2022-04-28_20h17.01.580,classification_task,2021.2.3,MacIntel,60.0024001,615b4d67bd21e66571f5581b,626b377229c10585ec392f8a,626b3c7510b7b3eb45797a05,,,,,,,,,,,,,,,,,,,,,,,l,1,0.8401,"[""0.030"",""0.371"",""0.662"",""0.761""]","[1,1,0,1]",0,37,37,37,1,1,0,,,1,FALSE,,,,,,,,,,,,,,,,,,,,,,,,,,,,,,
,615b4d67bd21e66571f5581b,001,2022-04-28_20h17.01.580,classification_task,2021.2.3,MacIntel,60.0024001,615b4d67bd21e66571f5581b,626b377229c10585ec392f8a,626b3c7510b7b3eb45797a05,,,,,,,,,,,,,,,,,,,,,,,a,1,0.8469,"[""0.179"",""0.485"",""0.805"",""0.963""]","[1,1,0,1]",0,38,38,38,1,0,1,,,1,FALSE,,,,,,,,,,,,,,,,,,,,,,,,,,,,,,
,615b4d67bd21e66571f5581b,001,2022-04-28_20h17.01.580,classification_task,2021.2.3,MacIntel,60.0024001,615b4d67bd21e66571f5581b,626b377229c10585ec392f8a,626b3c7510b7b3eb45797a05,,,,,,,,,,,,,,,,,,,,,,,l,1,0.8287,"[""0.144"",""0.283"",""0.597"",""0.843""]","[1,0,1,1]",0,39,39,39,1,1,1,,,1,FALSE,,,,,,,,,,,,,,,,,,,,,,,,,,,,,,
,615b4d67bd21e66571f5581b,001,2022-04-28_20h17.01.580,classification_task,2021.2.3,MacIntel,60.0024001,615b4d67bd21e66571f5581b,626b377229c10585ec392f8a,626b3c7510b7b3eb45797a05,,,,,,,,,,,,,,,,,,,,,,,l,1,1.2809,"[""0.144"",""0.250"",""0.597"",""0.661""]","[1,1,1,0]",0,40,40,40,1,1,1,,,1,FALSE,,,,,,,,,,,,,,,,,,,,,,,,,,,,,,
,615b4d67bd21e66571f5581b,001,2022-04-28_20h17.01.580,classification_task,2021.2.3,MacIntel,60.0024001,615b4d67bd21e66571f5581b,626b377229c10585ec392f8a,626b3c7510b7b3eb45797a05,,,,,,,,,,,,,,,,,,,,,,,a,1,0.5742,"[""0.179"",""0.805"",""0.700"",""0.963""]","[1,0,1,1]",0,41,41,41,1,0,1,,,1,FALSE,,,,,,,,,,,,,,,,,,,,,,,,,,,,,,
,615b4d67bd21e66571f5581b,001,2022-04-28_20h17.01.580,classification_task,2021.2.3,MacIntel,60.0024001,615b4d67bd21e66571f5581b,626b377229c10585ec392f8a,626b3c7510b7b3eb45797a05,,,,,,,,,,,,,,,,,,,,,,,a,1,0.8841,"[""0.317"",""0.093"",""0.890"",""0.929""]","[1,0,1,1]",0,42,42,42,1,0,0,,,1,FALSE,,,,,,,,,,,,,,,,,,,,,,,,,,,,,,
,615b4d67bd21e66571f5581b,001,2022-04-28_20h17.01.580,classification_task,2021.2.3,MacIntel,60.0024001,615b4d67bd21e66571f5581b,626b377229c10585ec392f8a,626b3c7510b7b3eb45797a05,,,,,,,,,,,,,,,,,,,,,,,a,1,0.5792,"[""0.317"",""0.530"",""0.890"",""0.079""]","[1,1,1,0]",0,43,43,43,1,0,0,,,1,FALSE,,,,,,,,,,,,,,,,,,,,,,,,,,,,,,
,615b4d67bd21e66571f5581b,001,2022-04-28_20h17.01.580,classification_task,2021.2.3,MacIntel,60.0024001,615b4d67bd21e66571f5581b,626b377229c10585ec392f8a,626b3c7510b7b3eb45797a05,,,,,,,,,,,,,,,,,,,,,,,a,1,0.5819,"[""0.093"",""0.530"",""0.890"",""0.929""]","[0,1,1,1]",0,44,44,44,1,0,0,,,1,FALSE,,,,,,,,,,,,,,,,,,,,,,,,,,,,,,
,615b4d67bd21e66571f5581b,001,2022-04-28_20h17.01.580,classification_task,2021.2.3,MacIntel,60.0024001,615b4d67bd21e66571f5581b,626b377229c10585ec392f8a,626b3c7510b7b3eb45797a05,,,,,,,,,,,,,,,,,,,,,,,l,1,0.6916,"[""0.030"",""0.809"",""0.437"",""0.761""]","[1,0,1,1]",0,45,45,45,1,1,0,,,1,FALSE,,,,,,,,,,,,,,,,,,,,,,,,,,,,,,
,615b4d67bd21e66571f5581b,001,2022-04-28_20h17.01.580,classification_task,2021.2.3,MacIntel,60.0024001,615b4d67bd21e66571f5581b,626b377229c10585ec392f8a,626b3c7510b7b3eb45797a05,,,,,,,,,,,,,,,,,,,,,,,a,1,2.6942,"[""0.179"",""0.485"",""0.700"",""0.650""]","[1,1,1,0]",0,46,46,46,1,0,1,,,1,FALSE,,,,,,,,,,,,,,,,,,,,,,,,,,,,,,
,615b4d67bd21e66571f5581b,001,2022-04-28_20h17.01.580,classification_task,2021.2.3,MacIntel,60.0024001,615b4d67bd21e66571f5581b,626b377229c10585ec392f8a,626b3c7510b7b3eb45797a05,,,,,,,,,,,,,,,,,,,,,,,a,1,0.851,"[""0.083"",""0.485"",""0.700"",""0.963""]","[0,1,1,1]",0,47,47,47,1,0,1,,,1,FALSE,,,,,,,,,,,,,,,,,,,,,,,,,,,,,,
,615b4d67bd21e66571f5581b,001,2022-04-28_20h17.01.580,classification_task,2021.2.3,MacIntel,60.0024001,615b4d67bd21e66571f5581b,626b377229c10585ec392f8a,626b3c7510b7b3eb45797a05,,,,,,,,,,,,,,,,,,,,,,,l,1,0.9871,"[""0.030"",""0.371"",""0.437"",""0.805""]","[1,1,1,0]",0,48,48,48,1,1,0,,,1,FALSE,,,,,,,,,,,,,,,,,,,,,,,,,,,,,,
,615b4d67bd21e66571f5581b,001,2022-04-28_20h17.01.580,classification_task,2021.2.3,MacIntel,60.0024001,615b4d67bd21e66571f5581b,626b377229c10585ec392f8a,626b3c7510b7b3eb45797a05,,,,,,,,,,,,,,,,,,,,,,,a,1,0.8205,"[""0.081"",""0.485"",""0.700"",""0.963""]","[0,1,1,1]",0,49,49,49,1,0,1,,,1,FALSE,,,,,,,,,,,,,,,,,,,,,,,,,,,,,,
,615b4d67bd21e66571f5581b,001,2022-04-28_20h17.01.580,classification_task,2021.2.3,MacIntel,60.0024001,615b4d67bd21e66571f5581b,626b377229c10585ec392f8a,626b3c7510b7b3eb45797a05,,,,,,,,,,,,,,,,,,,,,,,l,1,2.9962,"[""0.144"",""0.283"",""0.597"",""0.843""]","[1,0,1,1]",0,50,50,50,1,1,1,,,1,FALSE,,,,,,,,,,,,,,,,,,,,,,,,,,,,,,
,615b4d67bd21e66571f5581b,001,2022-04-28_20h17.01.580,classification_task,2021.2.3,MacIntel,60.0024001,615b4d67bd21e66571f5581b,626b377229c10585ec392f8a,626b3c7510b7b3eb45797a05,,,,,,,,,,,,,,,,,,,,,,,a,1,0.7657,"[""0.179"",""0.083"",""0.700"",""0.963""]","[1,0,1,1]",0,51,51,51,1,0,1,,,1,FALSE,,,,,,,,,,,,,,,,,,,,,,,,,,,,,,
,615b4d67bd21e66571f5581b,001,2022-04-28_20h17.01.580,classification_task,2021.2.3,MacIntel,60.0024001,615b4d67bd21e66571f5581b,626b377229c10585ec392f8a,626b3c7510b7b3eb45797a05,,,,,,,,,,,,,,,,,,,,,,,a,1,0.7772,"[""0.661"",""0.530"",""0.890"",""0.929""]","[0,1,1,1]",0,52,52,52,1,0,0,,,1,FALSE,,,,,,,,,,,,,,,,,,,,,,,,,,,,,,
,615b4d67bd21e66571f5581b,001,2022-04-28_20h17.01.580,classification_task,2021.2.3,MacIntel,60.0024001,615b4d67bd21e66571f5581b,626b377229c10585ec392f8a,626b3c7510b7b3eb45797a05,,,,,,,,,,,,,,,,,,,,,,,l,1,0.8949,"[""0.030"",""0.631"",""0.437"",""0.761""]","[1,0,1,1]",0,53,53,53,1,1,0,,,1,FALSE,,,,,,,,,,,,,,,,,,,,,,,,,,,,,,
,615b4d67bd21e66571f5581b,001,2022-04-28_20h17.01.580,classification_task,2021.2.3,MacIntel,60.0024001,615b4d67bd21e66571f5581b,626b377229c10585ec392f8a,626b3c7510b7b3eb45797a05,,,,,,,,,,,,,,,,,,,,,,,a,1,0.9219,"[""0.317"",""0.530"",""0.081"",""0.929""]","[1,1,0,1]",0,54,54,54,1,0,0,,,1,FALSE,,,,,,,,,,,,,,,,,,,,,,,,,,,,,,
,615b4d67bd21e66571f5581b,001,2022-04-28_20h17.01.580,classification_task,2021.2.3,MacIntel,60.0024001,615b4d67bd21e66571f5581b,626b377229c10585ec392f8a,626b3c7510b7b3eb45797a05,,,,,,,,,,,,,,,,,,,,,,,l,1,1.0704,"[""0.144"",""0.250"",""0.215"",""0.843""]","[1,1,0,1]",0,55,55,55,1,1,1,,,1,FALSE,,,,,,,,,,,,,,,,,,,,,,,,,,,,,,
,615b4d67bd21e66571f5581b,001,2022-04-28_20h17.01.580,classification_task,2021.2.3,MacIntel,60.0024001,615b4d67bd21e66571f5581b,626b377229c10585ec392f8a,626b3c7510b7b3eb45797a05,,,,,,,,,,,,,,,,,,,,,,,a,1,0.7874,"[""0.317"",""0.530"",""0.890"",""0.803""]","[1,1,1,0]",0,56,56,56,1,0,0,,,1,FALSE,,,,,,,,,,,,,,,,,,,,,,,,,,,,,,
,615b4d67bd21e66571f5581b,001,2022-04-28_20h17.01.580,classification_task,2021.2.3,MacIntel,60.0024001,615b4d67bd21e66571f5581b,626b377229c10585ec392f8a,626b3c7510b7b3eb45797a05,,,,,,,,,,,,,,,,,,,,,,,a,1,0.8381,"[""0.179"",""0.485"",""0.662"",""0.963""]","[1,1,0,1]",0,57,57,57,1,0,1,,,1,FALSE,,,,,,,,,,,,,,,,,,,,,,,,,,,,,,
,615b4d67bd21e66571f5581b,001,2022-04-28_20h17.01.580,classification_task,2021.2.3,MacIntel,60.0024001,615b4d67bd21e66571f5581b,626b377229c10585ec392f8a,626b3c7510b7b3eb45797a05,,,,,,,,,,,,,,,,,,,,,,,l,1,0.8128,"[""0.653"",""0.371"",""0.437"",""0.761""]","[0,1,1,1]",0,58,58,58,1,1,0,,,1,FALSE,,,,,,,,,,,,,,,,,,,,,,,,,,,,,,
,615b4d67bd21e66571f5581b,001,2022-04-28_20h17.01.580,classification_task,2021.2.3,MacIntel,60.0024001,615b4d67bd21e66571f5581b,626b377229c10585ec392f8a,626b3c7510b7b3eb45797a05,,,,,,,,,,,,,,,,,,,,,,,l,1,1.2865,"[""0.662"",""0.250"",""0.597"",""0.843""]","[0,1,1,1]",0,59,59,59,1,1,1,,,1,FALSE,,,,,,,,,,,,,,,,,,,,,,,,,,,,,,
,615b4d67bd21e66571f5581b,001,2022-04-28_20h17.01.580,classification_task,2021.2.3,MacIntel,60.0024001,615b4d67bd21e66571f5581b,626b377229c10585ec392f8a,626b3c7510b7b3eb45797a05,,,,,,,,,,,,,,,,,,,,,,,a,0,0.8507,"[""0.030"",""0.371"",""0.093"",""0.761""]","[1,1,0,1]",0,60,60,60,1,1,0,,,1,FALSE,,,,,,,,,,,,,,,,,,,,,,,,,,,,,,
,615b4d67bd21e66571f5581b,001,2022-04-28_20h17.01.580,classification_task,2021.2.3,MacIntel,60.0024001,615b4d67bd21e66571f5581b,626b377229c10585ec392f8a,626b3c7510b7b3eb45797a05,,,,,,,,,,,,,,,,,,,,,,,a,0,1.3488,"[""0.144"",""0.250"",""0.597"",""0.653""]","[1,1,1,0]",0,61,61,61,1,1,1,,,1,FALSE,,,,,,,,,,,,,,,,,,,,,,,,,,,,,,
,615b4d67bd21e66571f5581b,001,2022-04-28_20h17.01.580,classification_task,2021.2.3,MacIntel,60.0024001,615b4d67bd21e66571f5581b,626b377229c10585ec392f8a,626b3c7510b7b3eb45797a05,,,,,,,,,,,,,,,,,,,,,,,a,1,0.7449,"[""0.317"",""0.093"",""0.890"",""0.929""]","[1,0,1,1]",0,62,62,62,1,0,0,,,1,FALSE,,,,,,,,,,,,,,,,,,,,,,,,,,,,,,
,615b4d67bd21e66571f5581b,001,2022-04-28_20h17.01.580,classification_task,2021.2.3,MacIntel,60.0024001,615b4d67bd21e66571f5581b,626b377229c10585ec392f8a,626b3c7510b7b3eb45797a05,,,,,,,,,,,,,,,,,,,,,,,l,0,0.6388,"[""0.179"",""0.485"",""0.700"",""0.283""]","[1,1,1,0]",0,63,63,63,1,0,1,,,1,FALSE,,,,,,,,,,,,,,,,,,,,,,,,,,,,,,
,615b4d67bd21e66571f5581b,001,2022-04-28_20h17.01.580,classification_task,2021.2.3,MacIntel,60.0024001,615b4d67bd21e66571f5581b,626b377229c10585ec392f8a,626b3c7510b7b3eb45797a05,,,,,,,,,,,,,,,,,,,,,,,,,,,,,,,,,,,,,,,0, ,,0,2.494871037,173.3732,0,2,2,2,1,2,3,,,,,,,,,,,,,,,,,
,615b4d67bd21e66571f5581b,001,2022-04-28_20h17.01.580,classification_task,2021.2.3,MacIntel,60.0024001,615b4d67bd21e66571f5581b,626b377229c10585ec392f8a,626b3c7510b7b3eb45797a05,,,,,,,,,,,,,,,,,,,,,,,,,,,,,,,,,,,,,,,1,  ,,0,5.321702996,177.2111,0,2,2,2,1,2,3,,,,,,,,,,,,,,,,,
,615b4d67bd21e66571f5581b,001,2022-04-28_20h17.01.580,classification_task,2021.2.3,MacIntel,60.0024001,615b4d67bd21e66571f5581b,626b377229c10585ec392f8a,626b3c7510b7b3eb45797a05,,,,,,,,,,,,,,,,,,,,,,,,,,,,,,,,,,,,,,,2,  ,,0,3.517816309,178.6598,0,2,2,2,1,2,3,,,,,,,,,,,,,,,,,
,615b4d67bd21e66571f5581b,001,2022-04-28_20h17.01.580,classification_task,2021.2.3,MacIntel,60.0024001,615b4d67bd21e66571f5581b,626b377229c10585ec392f8a,626b3c7510b7b3eb45797a05,,,,,,,,,,,,,,,,,,,,,,,,,,,,,,,,,,,,,,,,,,,,,0,2,2,2,1,,3,,,,,,,,,,,,,,,,,
,615b4d67bd21e66571f5581b,001,2022-04-28_20h17.01.580,classification_task,2021.2.3,MacIntel,60.0024001,615b4d67bd21e66571f5581b,626b377229c10585ec392f8a,626b3c7510b7b3eb45797a05,,,,,,,,,,,,,,,,,,,,,,,,,,,,,,,,,,,,,,,,,,,,,,,,,,,,,I believe the aid is a competent performer,,0.7,0,3,1134.9715,0,0,0,0,1,0,,,,
,615b4d67bd21e66571f5581b,001,2022-04-28_20h17.01.580,classification_task,2021.2.3,MacIntel,60.0024001,615b4d67bd21e66571f5581b,626b377229c10585ec392f8a,626b3c7510b7b3eb45797a05,,,,,,,,,,,,,,,,,,,,,,,,,,,,,,,,,,,,,,,,,,,,,,,,,,,,,I trust the aid,,0.7,0,3,1138.0375,0,0,0,0,1,0,,,,
,615b4d67bd21e66571f5581b,001,2022-04-28_20h17.01.580,classification_task,2021.2.3,MacIntel,60.0024001,615b4d67bd21e66571f5581b,626b377229c10585ec392f8a,626b3c7510b7b3eb45797a05,,,,,,,,,,,,,,,,,,,,,,,,,,,,,,,,,,,,,,,,,,,,,,,,,,,,,I have confidence in the advice given by the aid,,0.7,0,4,1142.6298,0,0,0,0,1,0,,,,
,615b4d67bd21e66571f5581b,001,2022-04-28_20h17.01.580,classification_task,2021.2.3,MacIntel,60.0024001,615b4d67bd21e66571f5581b,626b377229c10585ec392f8a,626b3c7510b7b3eb45797a05,,,,,,,,,,,,,,,,,,,,,,,,,,,,,,,,,,,,,,,,,,,,,,,,,,,,,I can depend on the aid,,0.7,0,4,1146.0184,0,0,0,0,1,0,,,,
,615b4d67bd21e66571f5581b,001,2022-04-28_20h17.01.580,classification_task,2021.2.3,MacIntel,60.0024001,615b4d67bd21e66571f5581b,626b377229c10585ec392f8a,626b3c7510b7b3eb45797a05,,,,,,,,,,,,,,,,,,,,,,,,,,,,,,,,,,,,,,,,,,,,,,,,,,,,,I can rely on the aid to behave in consistent ways,,0.7,0,3,1148.9852,0,0,0,0,1,0,,,,
,615b4d67bd21e66571f5581b,001,2022-04-28_20h17.01.580,classification_task,2021.2.3,MacIntel,60.0024001,615b4d67bd21e66571f5581b,626b377229c10585ec392f8a,626b3c7510b7b3eb45797a05,,,,,,,,,,,,,,,,,,,,,,,,,,,,,,,,,,,,,,,,,,,,,,,,,,,,,I can rely on the aid to do its best every time I take its advice,,0.7,0,3,1150.3643,0,0,0,0,1,0,,,,
,615b4d67bd21e66571f5581b,001,2022-04-28_20h17.01.580,classification_task,2021.2.3,MacIntel,60.0024001,615b4d67bd21e66571f5581b,626b377229c10585ec392f8a,626b3c7510b7b3eb45797a05,,,,,,,,,,,,,,,,,,,,,,,,,,,,,,,,,,,,,,,,,,,,,,,,,,,,,"On trials you completed with assistance from the aid, how frequently did you think the aid was correct?",,0.7,0,80%,,0,0,0,0,1,0,,,,
,615b4d67bd21e66571f5581b,001,2022-04-28_20h17.01.580,classification_task,2021.2.3,MacIntel,60.0024001,615b4d67bd21e66571f5581b,626b377229c10585ec392f8a,626b3c7510b7b3eb45797a05,,,,,,,,,,,,,,,,,,,,,,,,,,,,,,,,,,,,,,,,,,,,,,,,,,,,,"On trials you completed without the aid, how frequently did you think you were correct?",,0.7,0,85%,,0,0,0,0,1,0,,,,
,615b4d67bd21e66571f5581b,001,2022-04-28_20h17.01.580,classification_task,2021.2.3,MacIntel,60.0024001,615b4d67bd21e66571f5581b,626b377229c10585ec392f8a,626b3c7510b7b3eb45797a05,,,,,,,,,,,,,,,,,,,,,,,,,,,,,,,,,,,,,,,,,,,,,,,,,,,,,,,,,,,0,0,0,0,1,,,,,
,615b4d67bd21e66571f5581b,001,2022-04-28_20h17.01.580,classification_task,2021.2.3,MacIntel,60.0024001,615b4d67bd21e66571f5581b,626b377229c10585ec392f8a,626b3c7510b7b3eb45797a05,,,,,,,,,,,,,,,,,,,,,,,,,,,,,,,,,,,,,,,,,,,,,,,,,,,,,,,,,,,,,,,,,space,10.5048,1188.6062,
,615b4d67bd21e66571f5581b,001,2022-04-28_20h17.01.580,classification_task,2021.2.3,MacIntel,60.0024001,615b4d67bd21e66571f5581b,626b377229c10585ec392f8a,626b3c7510b7b3eb45797a05,,,,,,,,,,,,,,,,,,,,,,,,,,,,,,,,,,,,,,,,,,,,,,,,,,,,,,,,,,,,,,,,,,,,"Mozilla/5.0 (Macintosh; Intel Mac OS X 10_15_7) AppleWebKit/537.36 (KHTML, like Gecko) Chrome/100.0.4896.127 Safari/537.36"
