usingWebGL,participant,session,date,expName,psychopyVersion,OS,frameRate,PROLIFIC_PID,STUDY_ID,SESSION_ID,signatures_friend,signatures_foe,band_ranges_top,band_ranges_bottom,formitemText,formtype,formundefined,formitemWidth,formindex,formresponse,formrt,key_resp_2.keys,key_resp_2.rt,tute_resp.keys,tute_resp.rt,tutorial.thisRepN,tutorial.thisTrialN,tutorial.thisN,tutorial.thisIndex,tutorial.ran,key_resp_4.keys,key_resp_4.rt,key_resp.keys,key_resp.corr,lines_presented,is_signal_presented,trials.thisRepN,trials.thisTrialN,trials.thisN,trials.thisIndex,trials.ran,vessel,active_band,lines,is_signal,supported_pos,catch_trial,key_resp.rt,debrief_formindex,debrief_formitemText,debrief_formtype,debrief_formitemWidth,debrief_formresponse,debrief_formrt,phases.thisRepN,phases.thisTrialN,phases.thisN,phases.thisIndex,phases.ran,phases.order,phase,key_resp_3.keys,trustitemText,trusttype,trustitemWidth,trustindex,trustresponse,trustrt,support_status.thisRepN,support_status.thisTrialN,support_status.thisN,support_status.thisIndex,support_status.ran,support_status.order,key_resp_5.keys,key_resp_5.rt,globalClockTime,userAgent
TRUE,615c5d74156deea8ee2aa187,001,2022-04-29_03h08.45.164,classification_task,2021.2.3,Win32,59.94844434,615c5d74156deea8ee2aa187,626b377229c10585ec392f8a,626b3ae9c196c376183b7dbf,,,,,,,,,,,,,,,,,,,,,,,,,,,,,,,,,,,,,,,,,,,,,,,,,,,,,,,,,,,,,,,,,,,,
,615c5d74156deea8ee2aa187,001,2022-04-29_03h08.45.164,classification_task,2021.2.3,Win32,59.94844434,615c5d74156deea8ee2aa187,626b377229c10585ec392f8a,626b3ae9c196c376183b7dbf,"[[""0.232"",""0.361"",""0.819"",""0.896""],[""0.191"",""0.480"",""0.597"",""0.944""]]","[[""0.139"",""0.294"",""0.545"",""0.770""],[""0.050"",""0.090"",""0.634"",""0.697""]]","[1,10]","[100,1000]",Video game experience,,,0.7,0,,,,,,,,,,,,,,,,,,,,,,,,,,,,,,,,,,,,,,,,,,,,,,,,,,,,,,,,,,,
,615c5d74156deea8ee2aa187,001,2022-04-29_03h08.45.164,classification_task,2021.2.3,Win32,59.94844434,615c5d74156deea8ee2aa187,626b377229c10585ec392f8a,626b3ae9c196c376183b7dbf,,,,,Approximately how many hours did you spend playing video games in the last week?,,,0.7,0,15,,,,,,,,,,,,,,,,,,,,,,,,,,,,,,,,,,,,,,,,,,,,,,,,,,,,,,,,,,
,615c5d74156deea8ee2aa187,001,2022-04-29_03h08.45.164,classification_task,2021.2.3,Win32,59.94844434,615c5d74156deea8ee2aa187,626b377229c10585ec392f8a,626b3ae9c196c376183b7dbf,,,,,"Which game did you play the most this year? (Enter ""None"" if you didn't play any)",,,0.7,0,Fifa,,,,,,,,,,,,,,,,,,,,,,,,,,,,,,,,,,,,,,,,,,,,,,,,,,,,,,,,,,
,615c5d74156deea8ee2aa187,001,2022-04-29_03h08.45.164,classification_task,2021.2.3,Win32,59.94844434,615c5d74156deea8ee2aa187,626b377229c10585ec392f8a,626b3ae9c196c376183b7dbf,,,,,Visual perception,,,0.7,0,,,,,,,,,,,,,,,,,,,,,,,,,,,,,,,,,,,,,,,,,,,,,,,,,,,,,,,,,,,
,615c5d74156deea8ee2aa187,001,2022-04-29_03h08.45.164,classification_task,2021.2.3,Win32,59.94844434,615c5d74156deea8ee2aa187,626b377229c10585ec392f8a,626b3ae9c196c376183b7dbf,,,,,Do you have any form of color blindness?,,,0.7,0,No,28.0655,,,,,,,,,,,,,,,,,,,,,,,,,,,,,,,,,,,,,,,,,,,,,,,,,,,,,,,,,
,615c5d74156deea8ee2aa187,001,2022-04-29_03h08.45.164,classification_task,2021.2.3,Win32,59.94844434,615c5d74156deea8ee2aa187,626b377229c10585ec392f8a,626b3ae9c196c376183b7dbf,,,,,Do you use software to change the colour temperature of your screen (e.g. f.lux)?,,,0.7,0,No,35.8717,,,,,,,,,,,,,,,,,,,,,,,,,,,,,,,,,,,,,,,,,,,,,,,,,,,,,,,,,
,615c5d74156deea8ee2aa187,001,2022-04-29_03h08.45.164,classification_task,2021.2.3,Win32,59.94844434,615c5d74156deea8ee2aa187,626b377229c10585ec392f8a,626b3ae9c196c376183b7dbf,,,,,,,,,,,,space,49.5116,space,12.4238,0,0,0,0,1,,,,,,,,,,,,,,,,,,,,,,,,,,,,,,,,,,,,,,,,,,,,,,,,
,615c5d74156deea8ee2aa187,001,2022-04-29_03h08.45.164,classification_task,2021.2.3,Win32,59.94844434,615c5d74156deea8ee2aa187,626b377229c10585ec392f8a,626b3ae9c196c376183b7dbf,,,,,,,,,,,,,,space,28.1955,1,0,1,0,1,,,,,,,,,,,,,,,,,,,,,,,,,,,,,,,,,,,,,,,,,,,,,,,,
,615c5d74156deea8ee2aa187,001,2022-04-29_03h08.45.164,classification_task,2021.2.3,Win32,59.94844434,615c5d74156deea8ee2aa187,626b377229c10585ec392f8a,626b3ae9c196c376183b7dbf,,,,,,,,,,,,,,space,89.503,2,0,2,0,1,,,,,,,,,,,,,,,,,,,,,,,,,,,,,,,,,,,,,,,,,,,,,,,,
,615c5d74156deea8ee2aa187,001,2022-04-29_03h08.45.164,classification_task,2021.2.3,Win32,59.94844434,615c5d74156deea8ee2aa187,626b377229c10585ec392f8a,626b3ae9c196c376183b7dbf,,,,,,,,,,,,,,space,8.91,3,0,3,0,1,,,,,,,,,,,,,,,,,,,,,,,,,,,,,,,,,,,,,,,,,,,,,,,,
,615c5d74156deea8ee2aa187,001,2022-04-29_03h08.45.164,classification_task,2021.2.3,Win32,59.94844434,615c5d74156deea8ee2aa187,626b377229c10585ec392f8a,626b3ae9c196c376183b7dbf,,,,,,,,,,,,,,space,15.3776,4,0,4,0,1,,,,,,,,,,,,,,,,,,,,,,,,,,,,,,,,,,,,,,,,,,,,,,,,
,615c5d74156deea8ee2aa187,001,2022-04-29_03h08.45.164,classification_task,2021.2.3,Win32,59.94844434,615c5d74156deea8ee2aa187,626b377229c10585ec392f8a,626b3ae9c196c376183b7dbf,,,,,,,,,,,,,,,,,,,,,space,30.7399,,0,"[""0.139"",""0.294"",""0.545"",""0.854""]","[1,1,1,0]",0,0,0,0,1,1,0,,,0,FALSE,,,,,,,,,,,,,,,,,,,,,,,,,,,,,,,
,615c5d74156deea8ee2aa187,001,2022-04-29_03h08.45.164,classification_task,2021.2.3,Win32,59.94844434,615c5d74156deea8ee2aa187,626b377229c10585ec392f8a,626b3ae9c196c376183b7dbf,,,,,,,,,,,,,,,,,,,,,,,a,1,"[""0.232"",""0.442"",""0.819"",""0.896""]","[1,0,1,1]",0,1,1,1,1,0,0,,,0,FALSE,7.9199,,,,,,,,,,,,,,,,,,,,,,,,,,,,,,
,615c5d74156deea8ee2aa187,001,2022-04-29_03h08.45.164,classification_task,2021.2.3,Win32,59.94844434,615c5d74156deea8ee2aa187,626b377229c10585ec392f8a,626b3ae9c196c376183b7dbf,,,,,,,,,,,,,,,,,,,,,,,,0,"[""0.139"",""0.735"",""0.545"",""0.770""]","[1,0,1,1]",0,2,2,2,1,1,0,,,0,FALSE,,,,,,,,,,,,,,,,,,,,,,,,,,,,,,,
,615c5d74156deea8ee2aa187,001,2022-04-29_03h08.45.164,classification_task,2021.2.3,Win32,59.94844434,615c5d74156deea8ee2aa187,626b377229c10585ec392f8a,626b3ae9c196c376183b7dbf,,,,,,,,,,,,,,,,,,,,,,,a,1,"[""0.191"",""0.854"",""0.597"",""0.944""]","[1,0,1,1]",0,3,3,3,1,0,1,,,0,FALSE,6.3372,,,,,,,,,,,,,,,,,,,,,,,,,,,,,,
,615c5d74156deea8ee2aa187,001,2022-04-29_03h08.45.164,classification_task,2021.2.3,Win32,59.94844434,615c5d74156deea8ee2aa187,626b377229c10585ec392f8a,626b3ae9c196c376183b7dbf,,,,,,,,,,,,,,,,,,,,,,,l,0,"[""0.232"",""0.361"",""0.819"",""0.442""]","[1,1,1,0]",0,4,4,4,1,0,0,,,0,FALSE,4.8569,,,,,,,,,,,,,,,,,,,,,,,,,,,,,,
,615c5d74156deea8ee2aa187,001,2022-04-29_03h08.45.164,classification_task,2021.2.3,Win32,59.94844434,615c5d74156deea8ee2aa187,626b377229c10585ec392f8a,626b3ae9c196c376183b7dbf,,,,,,,,,,,,,,,,,,,,,,,a,1,"[""0.858"",""0.480"",""0.597"",""0.944""]","[0,1,1,1]",0,5,5,5,1,0,1,,,0,FALSE,5.488,,,,,,,,,,,,,,,,,,,,,,,,,,,,,,
,615c5d74156deea8ee2aa187,001,2022-04-29_03h08.45.164,classification_task,2021.2.3,Win32,59.94844434,615c5d74156deea8ee2aa187,626b377229c10585ec392f8a,626b3ae9c196c376183b7dbf,,,,,,,,,,,,,,,,,,,,,,,l,1,"[""0.139"",""0.294"",""0.426"",""0.770""]","[1,1,0,1]",0,6,6,6,1,1,0,,,0,FALSE,4.4761,,,,,,,,,,,,,,,,,,,,,,,,,,,,,,
,615c5d74156deea8ee2aa187,001,2022-04-29_03h08.45.164,classification_task,2021.2.3,Win32,59.94844434,615c5d74156deea8ee2aa187,626b377229c10585ec392f8a,626b3ae9c196c376183b7dbf,,,,,,,,,,,,,,,,,,,,,,,,0,"[""0.191"",""0.480"",""0.597"",""0.442""]","[1,1,1,0]",0,7,7,7,1,0,1,,,0,FALSE,,,,,,,,,,,,,,,,,,,,,,,,,,,,,,,
,615c5d74156deea8ee2aa187,001,2022-04-29_03h08.45.164,classification_task,2021.2.3,Win32,59.94844434,615c5d74156deea8ee2aa187,626b377229c10585ec392f8a,626b3ae9c196c376183b7dbf,,,,,,,,,,,,,,,,,,,,,,,l,1,"[""0.050"",""0.090"",""0.426"",""0.697""]","[1,1,0,1]",0,8,8,8,1,1,1,,,0,FALSE,5.2206,,,,,,,,,,,,,,,,,,,,,,,,,,,,,,
,615c5d74156deea8ee2aa187,001,2022-04-29_03h08.45.164,classification_task,2021.2.3,Win32,59.94844434,615c5d74156deea8ee2aa187,626b377229c10585ec392f8a,626b3ae9c196c376183b7dbf,,,,,,,,,,,,,,,,,,,,,,,l,1,"[""0.412"",""0.090"",""0.634"",""0.697""]","[0,1,1,1]",0,9,9,9,1,1,1,,,0,FALSE,4.2009,,,,,,,,,,,,,,,,,,,,,,,,,,,,,,
,615c5d74156deea8ee2aa187,001,2022-04-29_03h08.45.164,classification_task,2021.2.3,Win32,59.94844434,615c5d74156deea8ee2aa187,626b377229c10585ec392f8a,626b3ae9c196c376183b7dbf,,,,,,,,,,,,,,,,,,,,,,,a,0,"[""0.426"",""0.294"",""0.545"",""0.770""]","[0,1,1,1]",0,10,10,10,1,1,0,,,0,FALSE,4.2771,,,,,,,,,,,,,,,,,,,,,,,,,,,,,,
,615c5d74156deea8ee2aa187,001,2022-04-29_03h08.45.164,classification_task,2021.2.3,Win32,59.94844434,615c5d74156deea8ee2aa187,626b377229c10585ec392f8a,626b3ae9c196c376183b7dbf,,,,,,,,,,,,,,,,,,,,,,,l,1,"[""0.050"",""0.411"",""0.634"",""0.697""]","[1,0,1,1]",0,11,11,11,1,1,1,,,0,FALSE,5.5093,,,,,,,,,,,,,,,,,,,,,,,,,,,,,,
,615c5d74156deea8ee2aa187,001,2022-04-29_03h08.45.164,classification_task,2021.2.3,Win32,59.94844434,615c5d74156deea8ee2aa187,626b377229c10585ec392f8a,626b3ae9c196c376183b7dbf,,,,,,,,,,,,,,,,,,,,,,,a,1,"[""0.232"",""0.361"",""0.854"",""0.896""]","[1,1,0,1]",0,12,12,12,1,0,0,,,0,FALSE,4.6041,,,,,,,,,,,,,,,,,,,,,,,,,,,,,,
,615c5d74156deea8ee2aa187,001,2022-04-29_03h08.45.164,classification_task,2021.2.3,Win32,59.94844434,615c5d74156deea8ee2aa187,626b377229c10585ec392f8a,626b3ae9c196c376183b7dbf,,,,,,,,,,,,,,,,,,,,,,,a,1,"[""0.411"",""0.361"",""0.819"",""0.896""]","[0,1,1,1]",0,13,13,13,1,0,0,,,0,FALSE,4.3314,,,,,,,,,,,,,,,,,,,,,,,,,,,,,,
,615c5d74156deea8ee2aa187,001,2022-04-29_03h08.45.164,classification_task,2021.2.3,Win32,59.94844434,615c5d74156deea8ee2aa187,626b377229c10585ec392f8a,626b3ae9c196c376183b7dbf,,,,,,,,,,,,,,,,,,,,,,,a,1,"[""0.191"",""0.480"",""0.408"",""0.944""]","[1,1,0,1]",0,14,14,14,1,0,1,,,0,FALSE,3.6238,,,,,,,,,,,,,,,,,,,,,,,,,,,,,,
,615c5d74156deea8ee2aa187,001,2022-04-29_03h08.45.164,classification_task,2021.2.3,Win32,59.94844434,615c5d74156deea8ee2aa187,626b377229c10585ec392f8a,626b3ae9c196c376183b7dbf,,,,,,,,,,,,,,,,,,,,,,,l,1,"[""0.050"",""0.090"",""0.634"",""0.421""]","[1,1,1,0]",0,15,15,15,1,1,1,,,0,FALSE,2.8334,,,,,,,,,,,,,,,,,,,,,,,,,,,,,,
,615c5d74156deea8ee2aa187,001,2022-04-29_03h08.45.164,classification_task,2021.2.3,Win32,59.94844434,615c5d74156deea8ee2aa187,626b377229c10585ec392f8a,626b3ae9c196c376183b7dbf,,,,,,,,,,,,,,,,,,,,,,,l,1,"[""0.854"",""0.090"",""0.634"",""0.697""]","[0,1,1,1]",0,16,16,16,1,1,1,,,0,FALSE,3.6665,,,,,,,,,,,,,,,,,,,,,,,,,,,,,,
,615c5d74156deea8ee2aa187,001,2022-04-29_03h08.45.164,classification_task,2021.2.3,Win32,59.94844434,615c5d74156deea8ee2aa187,626b377229c10585ec392f8a,626b3ae9c196c376183b7dbf,,,,,,,,,,,,,,,,,,,,,,,l,1,"[""0.442"",""0.294"",""0.545"",""0.770""]","[0,1,1,1]",0,17,17,17,1,1,0,,,0,FALSE,4.3838,,,,,,,,,,,,,,,,,,,,,,,,,,,,,,
,615c5d74156deea8ee2aa187,001,2022-04-29_03h08.45.164,classification_task,2021.2.3,Win32,59.94844434,615c5d74156deea8ee2aa187,626b377229c10585ec392f8a,626b3ae9c196c376183b7dbf,,,,,,,,,,,,,,,,,,,,,,,l,0,"[""0.232"",""0.361"",""0.819"",""0.436""]","[1,1,1,0]",0,18,18,18,1,0,0,,,0,FALSE,3.2833,,,,,,,,,,,,,,,,,,,,,,,,,,,,,,
,615c5d74156deea8ee2aa187,001,2022-04-29_03h08.45.164,classification_task,2021.2.3,Win32,59.94844434,615c5d74156deea8ee2aa187,626b377229c10585ec392f8a,626b3ae9c196c376183b7dbf,,,,,,,,,,,,,,,,,,,,,,,l,1,"[""0.139"",""0.294"",""0.412"",""0.770""]","[1,1,0,1]",0,19,19,19,1,1,0,,,0,FALSE,4.2813,,,,,,,,,,,,,,,,,,,,,,,,,,,,,,
,615c5d74156deea8ee2aa187,001,2022-04-29_03h08.45.164,classification_task,2021.2.3,Win32,59.94844434,615c5d74156deea8ee2aa187,626b377229c10585ec392f8a,626b3ae9c196c376183b7dbf,,,,,,,,,,,,,,,,,,,,,,,a,1,"[""0.191"",""0.480"",""0.421"",""0.944""]","[1,1,0,1]",0,20,20,20,1,0,1,,,0,FALSE,3.3317,,,,,,,,,,,,,,,,,,,,,,,,,,,,,,
,615c5d74156deea8ee2aa187,001,2022-04-29_03h08.45.164,classification_task,2021.2.3,Win32,59.94844434,615c5d74156deea8ee2aa187,626b377229c10585ec392f8a,626b3ae9c196c376183b7dbf,,,,,,,,,,,,,,,,,,,,,,,l,1,"[""0.050"",""0.858"",""0.634"",""0.697""]","[1,0,1,1]",0,21,21,21,1,1,1,,,0,FALSE,4.8136,,,,,,,,,,,,,,,,,,,,,,,,,,,,,,
,615c5d74156deea8ee2aa187,001,2022-04-29_03h08.45.164,classification_task,2021.2.3,Win32,59.94844434,615c5d74156deea8ee2aa187,626b377229c10585ec392f8a,626b3ae9c196c376183b7dbf,,,,,,,,,,,,,,,,,,,,,,,l,1,"[""0.139"",""0.294"",""0.545"",""0.407""]","[1,1,1,0]",0,22,22,22,1,1,0,,,0,FALSE,2.5722,,,,,,,,,,,,,,,,,,,,,,,,,,,,,,
,615c5d74156deea8ee2aa187,001,2022-04-29_03h08.45.164,classification_task,2021.2.3,Win32,59.94844434,615c5d74156deea8ee2aa187,626b377229c10585ec392f8a,626b3ae9c196c376183b7dbf,,,,,,,,,,,,,,,,,,,,,,,a,1,"[""0.411"",""0.480"",""0.597"",""0.944""]","[0,1,1,1]",0,23,23,23,1,0,1,,,0,FALSE,5.8852,,,,,,,,,,,,,,,,,,,,,,,,,,,,,,
,615c5d74156deea8ee2aa187,001,2022-04-29_03h08.45.164,classification_task,2021.2.3,Win32,59.94844434,615c5d74156deea8ee2aa187,626b377229c10585ec392f8a,626b3ae9c196c376183b7dbf,,,,,,,,,,,,,,,,,,,,,,,a,1,"[""0.232"",""0.402"",""0.819"",""0.896""]","[1,0,1,1]",0,24,24,24,1,0,0,,,0,FALSE,3.0185,,,,,,,,,,,,,,,,,,,,,,,,,,,,,,
,615c5d74156deea8ee2aa187,001,2022-04-29_03h08.45.164,classification_task,2021.2.3,Win32,59.94844434,615c5d74156deea8ee2aa187,626b377229c10585ec392f8a,626b3ae9c196c376183b7dbf,,,,,,,,,,,,,,,,,,,,,,,l,1,"[""0.050"",""0.090"",""0.411"",""0.697""]","[1,1,0,1]",0,25,25,25,1,1,1,,,0,FALSE,4.0213,,,,,,,,,,,,,,,,,,,,,,,,,,,,,,
,615c5d74156deea8ee2aa187,001,2022-04-29_03h08.45.164,classification_task,2021.2.3,Win32,59.94844434,615c5d74156deea8ee2aa187,626b377229c10585ec392f8a,626b3ae9c196c376183b7dbf,,,,,,,,,,,,,,,,,,,,,,,l,1,"[""0.050"",""0.090"",""0.634"",""0.407""]","[1,1,1,0]",0,26,26,26,1,1,1,,,0,FALSE,7.0646,,,,,,,,,,,,,,,,,,,,,,,,,,,,,,
,615c5d74156deea8ee2aa187,001,2022-04-29_03h08.45.164,classification_task,2021.2.3,Win32,59.94844434,615c5d74156deea8ee2aa187,626b377229c10585ec392f8a,626b3ae9c196c376183b7dbf,,,,,,,,,,,,,,,,,,,,,,,l,0,"[""0.191"",""0.480"",""0.597"",""0.407""]","[1,1,1,0]",0,27,27,27,1,0,1,,,0,FALSE,5.9047,,,,,,,,,,,,,,,,,,,,,,,,,,,,,,
,615c5d74156deea8ee2aa187,001,2022-04-29_03h08.45.164,classification_task,2021.2.3,Win32,59.94844434,615c5d74156deea8ee2aa187,626b377229c10585ec392f8a,626b3ae9c196c376183b7dbf,,,,,,,,,,,,,,,,,,,,,,,a,1,"[""0.232"",""0.361"",""0.421"",""0.896""]","[1,1,0,1]",0,28,28,28,1,0,0,,,0,FALSE,4.7743,,,,,,,,,,,,,,,,,,,,,,,,,,,,,,
,615c5d74156deea8ee2aa187,001,2022-04-29_03h08.45.164,classification_task,2021.2.3,Win32,59.94844434,615c5d74156deea8ee2aa187,626b377229c10585ec392f8a,626b3ae9c196c376183b7dbf,,,,,,,,,,,,,,,,,,,,,,,l,1,"[""0.139"",""0.411"",""0.545"",""0.770""]","[1,0,1,1]",0,29,29,29,1,1,0,,,0,FALSE,2.9236,,,,,,,,,,,,,,,,,,,,,,,,,,,,,,
,615c5d74156deea8ee2aa187,001,2022-04-29_03h08.45.164,classification_task,2021.2.3,Win32,59.94844434,615c5d74156deea8ee2aa187,626b377229c10585ec392f8a,626b3ae9c196c376183b7dbf,,,,,,,,,,,,,,,,,,,,,,,a,1,"[""0.735"",""0.361"",""0.819"",""0.896""]","[0,1,1,1]",0,30,30,30,1,0,0,,,0,FALSE,4.4182,,,,,,,,,,,,,,,,,,,,,,,,,,,,,,
,615c5d74156deea8ee2aa187,001,2022-04-29_03h08.45.164,classification_task,2021.2.3,Win32,59.94844434,615c5d74156deea8ee2aa187,626b377229c10585ec392f8a,626b3ae9c196c376183b7dbf,,,,,,,,,,,,,,,,,,,,,,,a,1,"[""0.191"",""0.442"",""0.597"",""0.944""]","[1,0,1,1]",0,31,31,31,1,0,1,,,0,FALSE,2.5715,,,,,,,,,,,,,,,,,,,,,,,,,,,,,,
,615c5d74156deea8ee2aa187,001,2022-04-29_03h08.45.164,classification_task,2021.2.3,Win32,59.94844434,615c5d74156deea8ee2aa187,626b377229c10585ec392f8a,626b3ae9c196c376183b7dbf,,,,,,,,,,,,,,,,,,,,,,,a,1,"[""0.232"",""0.854"",""0.819"",""0.896""]","[1,0,1,1]",0,32,32,32,1,0,0,,,0,FALSE,8.7713,,,,,,,,,,,,,,,,,,,,,,,,,,,,,,
,615c5d74156deea8ee2aa187,001,2022-04-29_03h08.45.164,classification_task,2021.2.3,Win32,59.94844434,615c5d74156deea8ee2aa187,626b377229c10585ec392f8a,626b3ae9c196c376183b7dbf,,,,,,,,,,,,,,,,,,,,,,,a,1,"[""0.191"",""0.480"",""0.597"",""0.436""]","[1,1,1,0]",0,33,33,33,1,0,1,,,0,FALSE,5.9903,,,,,,,,,,,,,,,,,,,,,,,,,,,,,,
,615c5d74156deea8ee2aa187,001,2022-04-29_03h08.45.164,classification_task,2021.2.3,Win32,59.94844434,615c5d74156deea8ee2aa187,626b377229c10585ec392f8a,626b3ae9c196c376183b7dbf,,,,,,,,,,,,,,,,,,,,,,,l,0,"[""0.232"",""0.361"",""0.854"",""0.896""]","[1,1,0,1]",0,34,34,34,1,0,0,,,0,FALSE,4.4501,,,,,,,,,,,,,,,,,,,,,,,,,,,,,,
,615c5d74156deea8ee2aa187,001,2022-04-29_03h08.45.164,classification_task,2021.2.3,Win32,59.94844434,615c5d74156deea8ee2aa187,626b377229c10585ec392f8a,626b3ae9c196c376183b7dbf,,,,,,,,,,,,,,,,,,,,,,,l,1,"[""0.139"",""0.294"",""0.858"",""0.770""]","[1,1,0,1]",0,35,35,35,1,1,0,,,0,FALSE,1.9409,,,,,,,,,,,,,,,,,,,,,,,,,,,,,,
,615c5d74156deea8ee2aa187,001,2022-04-29_03h08.45.164,classification_task,2021.2.3,Win32,59.94844434,615c5d74156deea8ee2aa187,626b377229c10585ec392f8a,626b3ae9c196c376183b7dbf,,,,,,,,,,,,,,,,,,,,,,,l,1,"[""0.050"",""0.090"",""0.442"",""0.697""]","[1,1,0,1]",0,36,36,36,1,1,1,,,0,FALSE,5.3014,,,,,,,,,,,,,,,,,,,,,,,,,,,,,,
,615c5d74156deea8ee2aa187,001,2022-04-29_03h08.45.164,classification_task,2021.2.3,Win32,59.94844434,615c5d74156deea8ee2aa187,626b377229c10585ec392f8a,626b3ae9c196c376183b7dbf,,,,,,,,,,,,,,,,,,,,,,,l,1,"[""0.442"",""0.294"",""0.545"",""0.770""]","[0,1,1,1]",0,37,37,37,1,1,0,,,0,FALSE,2.2199,,,,,,,,,,,,,,,,,,,,,,,,,,,,,,
,615c5d74156deea8ee2aa187,001,2022-04-29_03h08.45.164,classification_task,2021.2.3,Win32,59.94844434,615c5d74156deea8ee2aa187,626b377229c10585ec392f8a,626b3ae9c196c376183b7dbf,,,,,,,,,,,,,,,,,,,,,,,a,0,"[""0.139"",""0.426"",""0.545"",""0.770""]","[1,0,1,1]",0,38,38,38,1,1,0,,,0,FALSE,4.1407,,,,,,,,,,,,,,,,,,,,,,,,,,,,,,
,615c5d74156deea8ee2aa187,001,2022-04-29_03h08.45.164,classification_task,2021.2.3,Win32,59.94844434,615c5d74156deea8ee2aa187,626b377229c10585ec392f8a,626b3ae9c196c376183b7dbf,,,,,,,,,,,,,,,,,,,,,,,a,0,"[""0.854"",""0.090"",""0.634"",""0.697""]","[0,1,1,1]",0,39,39,39,1,1,1,,,0,FALSE,1.4993,,,,,,,,,,,,,,,,,,,,,,,,,,,,,,
,615c5d74156deea8ee2aa187,001,2022-04-29_03h08.45.164,classification_task,2021.2.3,Win32,59.94844434,615c5d74156deea8ee2aa187,626b377229c10585ec392f8a,626b3ae9c196c376183b7dbf,,,,,,,,,,,,,,,,,,,,,,,a,1,"[""0.191"",""0.442"",""0.597"",""0.944""]","[1,0,1,1]",0,40,40,40,1,0,1,,,0,FALSE,1.332,,,,,,,,,,,,,,,,,,,,,,,,,,,,,,
,615c5d74156deea8ee2aa187,001,2022-04-29_03h08.45.164,classification_task,2021.2.3,Win32,59.94844434,615c5d74156deea8ee2aa187,626b377229c10585ec392f8a,626b3ae9c196c376183b7dbf,,,,,,,,,,,,,,,,,,,,,,,a,1,"[""0.191"",""0.480"",""0.854"",""0.944""]","[1,1,0,1]",0,41,41,41,1,0,1,,,0,FALSE,2.6653,,,,,,,,,,,,,,,,,,,,,,,,,,,,,,
,615c5d74156deea8ee2aa187,001,2022-04-29_03h08.45.164,classification_task,2021.2.3,Win32,59.94844434,615c5d74156deea8ee2aa187,626b377229c10585ec392f8a,626b3ae9c196c376183b7dbf,,,,,,,,,,,,,,,,,,,,,,,l,1,"[""0.050"",""0.090"",""0.634"",""0.408""]","[1,1,1,0]",0,42,42,42,1,1,1,,,0,FALSE,1.6219,,,,,,,,,,,,,,,,,,,,,,,,,,,,,,
,615c5d74156deea8ee2aa187,001,2022-04-29_03h08.45.164,classification_task,2021.2.3,Win32,59.94844434,615c5d74156deea8ee2aa187,626b377229c10585ec392f8a,626b3ae9c196c376183b7dbf,,,,,,,,,,,,,,,,,,,,,,,a,1,"[""0.413"",""0.361"",""0.819"",""0.896""]","[0,1,1,1]",0,43,43,43,1,0,0,,,0,FALSE,2.0679,,,,,,,,,,,,,,,,,,,,,,,,,,,,,,
,615c5d74156deea8ee2aa187,001,2022-04-29_03h08.45.164,classification_task,2021.2.3,Win32,59.94844434,615c5d74156deea8ee2aa187,626b377229c10585ec392f8a,626b3ae9c196c376183b7dbf,,,,,,,,,,,,,,,,,,,,,,,l,1,"[""0.050"",""0.426"",""0.634"",""0.697""]","[1,0,1,1]",0,44,44,44,1,1,1,,,0,FALSE,1.1074,,,,,,,,,,,,,,,,,,,,,,,,,,,,,,
,615c5d74156deea8ee2aa187,001,2022-04-29_03h08.45.164,classification_task,2021.2.3,Win32,59.94844434,615c5d74156deea8ee2aa187,626b377229c10585ec392f8a,626b3ae9c196c376183b7dbf,,,,,,,,,,,,,,,,,,,,,,,a,1,"[""0.413"",""0.480"",""0.597"",""0.944""]","[0,1,1,1]",0,45,45,45,1,0,1,,,0,FALSE,1.1614,,,,,,,,,,,,,,,,,,,,,,,,,,,,,,
,615c5d74156deea8ee2aa187,001,2022-04-29_03h08.45.164,classification_task,2021.2.3,Win32,59.94844434,615c5d74156deea8ee2aa187,626b377229c10585ec392f8a,626b3ae9c196c376183b7dbf,,,,,,,,,,,,,,,,,,,,,,,a,1,"[""0.232"",""0.361"",""0.819"",""0.407""]","[1,1,1,0]",0,46,46,46,1,0,0,,,0,FALSE,1.2871,,,,,,,,,,,,,,,,,,,,,,,,,,,,,,
,615c5d74156deea8ee2aa187,001,2022-04-29_03h08.45.164,classification_task,2021.2.3,Win32,59.94844434,615c5d74156deea8ee2aa187,626b377229c10585ec392f8a,626b3ae9c196c376183b7dbf,,,,,,,,,,,,,,,,,,,,,,,a,0,"[""0.139"",""0.294"",""0.545"",""0.421""]","[1,1,1,0]",0,47,47,47,1,1,0,,,0,FALSE,1.4667,,,,,,,,,,,,,,,,,,,,,,,,,,,,,,
,615c5d74156deea8ee2aa187,001,2022-04-29_03h08.45.164,classification_task,2021.2.3,Win32,59.94844434,615c5d74156deea8ee2aa187,626b377229c10585ec392f8a,626b3ae9c196c376183b7dbf,,,,,,,,,,,,,,,,,,,,,,,a,0,"[""0.408"",""0.294"",""0.545"",""0.770""]","[0,1,1,1]",0,48,48,48,1,1,0,,,0,FALSE,4.0844,,,,,,,,,,,,,,,,,,,,,,,,,,,,,,
,615c5d74156deea8ee2aa187,001,2022-04-29_03h08.45.164,classification_task,2021.2.3,Win32,59.94844434,615c5d74156deea8ee2aa187,626b377229c10585ec392f8a,626b3ae9c196c376183b7dbf,,,,,,,,,,,,,,,,,,,,,,,l,1,"[""0.050"",""0.735"",""0.634"",""0.697""]","[1,0,1,1]",0,49,49,49,1,1,1,,,0,FALSE,1.6419,,,,,,,,,,,,,,,,,,,,,,,,,,,,,,
,615c5d74156deea8ee2aa187,001,2022-04-29_03h08.45.164,classification_task,2021.2.3,Win32,59.94844434,615c5d74156deea8ee2aa187,626b377229c10585ec392f8a,626b3ae9c196c376183b7dbf,,,,,,,,,,,,,,,,,,,,,,,l,0,"[""0.191"",""0.480"",""0.735"",""0.944""]","[1,1,0,1]",0,50,50,50,1,0,1,,,0,FALSE,1.3833,,,,,,,,,,,,,,,,,,,,,,,,,,,,,,
,615c5d74156deea8ee2aa187,001,2022-04-29_03h08.45.164,classification_task,2021.2.3,Win32,59.94844434,615c5d74156deea8ee2aa187,626b377229c10585ec392f8a,626b3ae9c196c376183b7dbf,,,,,,,,,,,,,,,,,,,,,,,l,1,"[""0.050"",""0.090"",""0.436"",""0.697""]","[1,1,0,1]",0,51,51,51,1,1,1,,,0,FALSE,1.1833,,,,,,,,,,,,,,,,,,,,,,,,,,,,,,
,615c5d74156deea8ee2aa187,001,2022-04-29_03h08.45.164,classification_task,2021.2.3,Win32,59.94844434,615c5d74156deea8ee2aa187,626b377229c10585ec392f8a,626b3ae9c196c376183b7dbf,,,,,,,,,,,,,,,,,,,,,,,a,1,"[""0.232"",""0.361"",""0.426"",""0.896""]","[1,1,0,1]",0,52,52,52,1,0,0,,,0,FALSE,3.1978,,,,,,,,,,,,,,,,,,,,,,,,,,,,,,
,615c5d74156deea8ee2aa187,001,2022-04-29_03h08.45.164,classification_task,2021.2.3,Win32,59.94844434,615c5d74156deea8ee2aa187,626b377229c10585ec392f8a,626b3ae9c196c376183b7dbf,,,,,,,,,,,,,,,,,,,,,,,a,1,"[""0.191"",""0.480"",""0.597"",""0.854""]","[1,1,1,0]",0,53,53,53,1,0,1,,,0,FALSE,1.4582,,,,,,,,,,,,,,,,,,,,,,,,,,,,,,
,615c5d74156deea8ee2aa187,001,2022-04-29_03h08.45.164,classification_task,2021.2.3,Win32,59.94844434,615c5d74156deea8ee2aa187,626b377229c10585ec392f8a,626b3ae9c196c376183b7dbf,,,,,,,,,,,,,,,,,,,,,,,l,1,"[""0.050"",""0.090"",""0.634"",""0.732""]","[1,1,1,0]",0,54,54,54,1,1,1,,,0,FALSE,1.6671,,,,,,,,,,,,,,,,,,,,,,,,,,,,,,
,615c5d74156deea8ee2aa187,001,2022-04-29_03h08.45.164,classification_task,2021.2.3,Win32,59.94844434,615c5d74156deea8ee2aa187,626b377229c10585ec392f8a,626b3ae9c196c376183b7dbf,,,,,,,,,,,,,,,,,,,,,,,a,1,"[""0.191"",""0.421"",""0.597"",""0.944""]","[1,0,1,1]",0,55,55,55,1,0,1,,,0,FALSE,1.2333,,,,,,,,,,,,,,,,,,,,,,,,,,,,,,
,615c5d74156deea8ee2aa187,001,2022-04-29_03h08.45.164,classification_task,2021.2.3,Win32,59.94844434,615c5d74156deea8ee2aa187,626b377229c10585ec392f8a,626b3ae9c196c376183b7dbf,,,,,,,,,,,,,,,,,,,,,,,a,1,"[""0.232"",""0.421"",""0.819"",""0.896""]","[1,0,1,1]",0,56,56,56,1,0,0,,,0,FALSE,1.1813,,,,,,,,,,,,,,,,,,,,,,,,,,,,,,
,615c5d74156deea8ee2aa187,001,2022-04-29_03h08.45.164,classification_task,2021.2.3,Win32,59.94844434,615c5d74156deea8ee2aa187,626b377229c10585ec392f8a,626b3ae9c196c376183b7dbf,,,,,,,,,,,,,,,,,,,,,,,l,1,"[""0.858"",""0.090"",""0.634"",""0.697""]","[0,1,1,1]",0,57,57,57,1,1,1,,,0,FALSE,1.3171,,,,,,,,,,,,,,,,,,,,,,,,,,,,,,
,615c5d74156deea8ee2aa187,001,2022-04-29_03h08.45.164,classification_task,2021.2.3,Win32,59.94844434,615c5d74156deea8ee2aa187,626b377229c10585ec392f8a,626b3ae9c196c376183b7dbf,,,,,,,,,,,,,,,,,,,,,,,a,0,"[""0.139"",""0.408"",""0.545"",""0.770""]","[1,0,1,1]",0,58,58,58,1,1,0,,,0,FALSE,2.1695,,,,,,,,,,,,,,,,,,,,,,,,,,,,,,
,615c5d74156deea8ee2aa187,001,2022-04-29_03h08.45.164,classification_task,2021.2.3,Win32,59.94844434,615c5d74156deea8ee2aa187,626b377229c10585ec392f8a,626b3ae9c196c376183b7dbf,,,,,,,,,,,,,,,,,,,,,,,l,0,"[""0.232"",""0.361"",""0.819"",""0.854""]","[1,1,1,0]",0,59,59,59,1,0,0,,,0,FALSE,2.1086,,,,,,,,,,,,,,,,,,,,,,,,,,,,,,
,615c5d74156deea8ee2aa187,001,2022-04-29_03h08.45.164,classification_task,2021.2.3,Win32,59.94844434,615c5d74156deea8ee2aa187,626b377229c10585ec392f8a,626b3ae9c196c376183b7dbf,,,,,,,,,,,,,,,,,,,,,,,l,0,"[""0.442"",""0.361"",""0.819"",""0.896""]","[0,1,1,1]",0,60,60,60,1,0,0,,,0,FALSE,4.3252,,,,,,,,,,,,,,,,,,,,,,,,,,,,,,
,615c5d74156deea8ee2aa187,001,2022-04-29_03h08.45.164,classification_task,2021.2.3,Win32,59.94844434,615c5d74156deea8ee2aa187,626b377229c10585ec392f8a,626b3ae9c196c376183b7dbf,,,,,,,,,,,,,,,,,,,,,,,l,1,"[""0.139"",""0.294"",""0.442"",""0.770""]","[1,1,0,1]",0,61,61,61,1,1,0,,,0,FALSE,2.5926,,,,,,,,,,,,,,,,,,,,,,,,,,,,,,
,615c5d74156deea8ee2aa187,001,2022-04-29_03h08.45.164,classification_task,2021.2.3,Win32,59.94844434,615c5d74156deea8ee2aa187,626b377229c10585ec392f8a,626b3ae9c196c376183b7dbf,,,,,,,,,,,,,,,,,,,,,,,l,1,"[""0.139"",""0.294"",""0.545"",""0.442""]","[1,1,1,0]",0,62,62,62,1,1,0,,,0,FALSE,1.8967,,,,,,,,,,,,,,,,,,,,,,,,,,,,,,
,615c5d74156deea8ee2aa187,001,2022-04-29_03h08.45.164,classification_task,2021.2.3,Win32,59.94844434,615c5d74156deea8ee2aa187,626b377229c10585ec392f8a,626b3ae9c196c376183b7dbf,,,,,,,,,,,,,,,,,,,,,,,a,1,"[""0.408"",""0.480"",""0.597"",""0.944""]","[0,1,1,1]",0,63,63,63,1,0,1,,,0,FALSE,2.3235,,,,,,,,,,,,,,,,,,,,,,,,,,,,,,
,615c5d74156deea8ee2aa187,001,2022-04-29_03h08.45.164,classification_task,2021.2.3,Win32,59.94844434,615c5d74156deea8ee2aa187,626b377229c10585ec392f8a,626b3ae9c196c376183b7dbf,,,,,,,,,,,,,,,,,,,,,,,,,,,,,,,,,,,,,,,0, ,,0,3.243220899,632.2795,0,0,0,0,1,2,1,,,,,,,,,,,,,,,,,
,615c5d74156deea8ee2aa187,001,2022-04-29_03h08.45.164,classification_task,2021.2.3,Win32,59.94844434,615c5d74156deea8ee2aa187,626b377229c10585ec392f8a,626b3ae9c196c376183b7dbf,,,,,,,,,,,,,,,,,,,,,,,,,,,,,,,,,,,,,,,1,  ,,0,10,622.7423,0,0,0,0,1,2,1,,,,,,,,,,,,,,,,,
,615c5d74156deea8ee2aa187,001,2022-04-29_03h08.45.164,classification_task,2021.2.3,Win32,59.94844434,615c5d74156deea8ee2aa187,626b377229c10585ec392f8a,626b3ae9c196c376183b7dbf,,,,,,,,,,,,,,,,,,,,,,,,,,,,,,,,,,,,,,,2,  ,,0,9.61585097,641.256,0,0,0,0,1,2,1,,,,,,,,,,,,,,,,,
,615c5d74156deea8ee2aa187,001,2022-04-29_03h08.45.164,classification_task,2021.2.3,Win32,59.94844434,615c5d74156deea8ee2aa187,626b377229c10585ec392f8a,626b3ae9c196c376183b7dbf,,,,,,,,,,,,,,,,,,,,,,,,,,,,,,,,,,,,,,,,,,,,,0,0,0,0,1,,1,,,,,,,,,,,,,,,,,
,615c5d74156deea8ee2aa187,001,2022-04-29_03h08.45.164,classification_task,2021.2.3,Win32,59.94844434,615c5d74156deea8ee2aa187,626b377229c10585ec392f8a,626b3ae9c196c376183b7dbf,,,,,,,,,,,,,,,,,,,,,space,14.1055,l,0,"[""0.232"",""0.361"",""0.732"",""0.896""]","[1,1,0,1]",0,0,0,0,1,0,0,,,0,FALSE,5.842,,,,,,,,,,,,,,,,,,,,,,,,,,,,,,
,615c5d74156deea8ee2aa187,001,2022-04-29_03h08.45.164,classification_task,2021.2.3,Win32,59.94844434,615c5d74156deea8ee2aa187,626b377229c10585ec392f8a,626b3ae9c196c376183b7dbf,,,,,,,,,,,,,,,,,,,,,,,l,1,"[""0.050"",""0.090"",""0.634"",""0.413""]","[1,1,1,0]",0,1,1,1,1,1,1,,,0,FALSE,1.2124,,,,,,,,,,,,,,,,,,,,,,,,,,,,,,
,615c5d74156deea8ee2aa187,001,2022-04-29_03h08.45.164,classification_task,2021.2.3,Win32,59.94844434,615c5d74156deea8ee2aa187,626b377229c10585ec392f8a,626b3ae9c196c376183b7dbf,,,,,,,,,,,,,,,,,,,,,,,l,1,"[""0.426"",""0.090"",""0.634"",""0.697""]","[0,1,1,1]",0,2,2,2,1,1,1,,,0,FALSE,2.3141,,,,,,,,,,,,,,,,,,,,,,,,,,,,,,
,615c5d74156deea8ee2aa187,001,2022-04-29_03h08.45.164,classification_task,2021.2.3,Win32,59.94844434,615c5d74156deea8ee2aa187,626b377229c10585ec392f8a,626b3ae9c196c376183b7dbf,,,,,,,,,,,,,,,,,,,,,,,a,1,"[""0.191"",""0.480"",""0.412"",""0.944""]","[1,1,0,1]",0,3,3,3,1,0,1,,,0,FALSE,1.7227,,,,,,,,,,,,,,,,,,,,,,,,,,,,,,
,615c5d74156deea8ee2aa187,001,2022-04-29_03h08.45.164,classification_task,2021.2.3,Win32,59.94844434,615c5d74156deea8ee2aa187,626b377229c10585ec392f8a,626b3ae9c196c376183b7dbf,,,,,,,,,,,,,,,,,,,,,,,a,0,"[""0.139"",""0.294"",""0.545"",""0.413""]","[1,1,1,0]",0,4,4,4,1,1,0,,,0,FALSE,3.5272,,,,,,,,,,,,,,,,,,,,,,,,,,,,,,
,615c5d74156deea8ee2aa187,001,2022-04-29_03h08.45.164,classification_task,2021.2.3,Win32,59.94844434,615c5d74156deea8ee2aa187,626b377229c10585ec392f8a,626b3ae9c196c376183b7dbf,,,,,,,,,,,,,,,,,,,,,,,l,1,"[""0.139"",""0.294"",""0.858"",""0.770""]","[1,1,0,1]",0,5,5,5,1,1,0,,,0,FALSE,2.7748,,,,,,,,,,,,,,,,,,,,,,,,,,,,,,
,615c5d74156deea8ee2aa187,001,2022-04-29_03h08.45.164,classification_task,2021.2.3,Win32,59.94844434,615c5d74156deea8ee2aa187,626b377229c10585ec392f8a,626b3ae9c196c376183b7dbf,,,,,,,,,,,,,,,,,,,,,,,l,1,"[""0.050"",""0.426"",""0.634"",""0.697""]","[1,0,1,1]",0,6,6,6,1,1,1,,,0,FALSE,2.7088,,,,,,,,,,,,,,,,,,,,,,,,,,,,,,
,615c5d74156deea8ee2aa187,001,2022-04-29_03h08.45.164,classification_task,2021.2.3,Win32,59.94844434,615c5d74156deea8ee2aa187,626b377229c10585ec392f8a,626b3ae9c196c376183b7dbf,,,,,,,,,,,,,,,,,,,,,,,a,0,"[""0.139"",""0.858"",""0.545"",""0.770""]","[1,0,1,1]",0,7,7,7,1,1,0,,,0,FALSE,2.4345,,,,,,,,,,,,,,,,,,,,,,,,,,,,,,
,615c5d74156deea8ee2aa187,001,2022-04-29_03h08.45.164,classification_task,2021.2.3,Win32,59.94844434,615c5d74156deea8ee2aa187,626b377229c10585ec392f8a,626b3ae9c196c376183b7dbf,,,,,,,,,,,,,,,,,,,,,,,a,1,"[""0.191"",""0.735"",""0.597"",""0.944""]","[1,0,1,1]",0,8,8,8,1,0,1,,,0,FALSE,3.4141,,,,,,,,,,,,,,,,,,,,,,,,,,,,,,
,615c5d74156deea8ee2aa187,001,2022-04-29_03h08.45.164,classification_task,2021.2.3,Win32,59.94844434,615c5d74156deea8ee2aa187,626b377229c10585ec392f8a,626b3ae9c196c376183b7dbf,,,,,,,,,,,,,,,,,,,,,,,a,0,"[""0.421"",""0.294"",""0.545"",""0.770""]","[0,1,1,1]",0,9,9,9,1,1,0,,,0,FALSE,3.3692,,,,,,,,,,,,,,,,,,,,,,,,,,,,,,
,615c5d74156deea8ee2aa187,001,2022-04-29_03h08.45.164,classification_task,2021.2.3,Win32,59.94844434,615c5d74156deea8ee2aa187,626b377229c10585ec392f8a,626b3ae9c196c376183b7dbf,,,,,,,,,,,,,,,,,,,,,,,a,1,"[""0.232"",""0.412"",""0.819"",""0.896""]","[1,0,1,1]",0,10,10,10,1,0,0,,,0,FALSE,2.7432,,,,,,,,,,,,,,,,,,,,,,,,,,,,,,
,615c5d74156deea8ee2aa187,001,2022-04-29_03h08.45.164,classification_task,2021.2.3,Win32,59.94844434,615c5d74156deea8ee2aa187,626b377229c10585ec392f8a,626b3ae9c196c376183b7dbf,,,,,,,,,,,,,,,,,,,,,,,a,1,"[""0.232"",""0.361"",""0.819"",""0.426""]","[1,1,1,0]",0,11,11,11,1,0,0,,,0,FALSE,2.9822,,,,,,,,,,,,,,,,,,,,,,,,,,,,,,
,615c5d74156deea8ee2aa187,001,2022-04-29_03h08.45.164,classification_task,2021.2.3,Win32,59.94844434,615c5d74156deea8ee2aa187,626b377229c10585ec392f8a,626b3ae9c196c376183b7dbf,,,,,,,,,,,,,,,,,,,,,,,l,1,"[""0.050"",""0.090"",""0.413"",""0.697""]","[1,1,0,1]",0,12,12,12,1,1,1,,,0,FALSE,3.0923,,,,,,,,,,,,,,,,,,,,,,,,,,,,,,
,615c5d74156deea8ee2aa187,001,2022-04-29_03h08.45.164,classification_task,2021.2.3,Win32,59.94844434,615c5d74156deea8ee2aa187,626b377229c10585ec392f8a,626b3ae9c196c376183b7dbf,,,,,,,,,,,,,,,,,,,,,,,a,1,"[""0.191"",""0.480"",""0.597"",""0.442""]","[1,1,1,0]",0,13,13,13,1,0,1,,,0,FALSE,2.1828,,,,,,,,,,,,,,,,,,,,,,,,,,,,,,
,615c5d74156deea8ee2aa187,001,2022-04-29_03h08.45.164,classification_task,2021.2.3,Win32,59.94844434,615c5d74156deea8ee2aa187,626b377229c10585ec392f8a,626b3ae9c196c376183b7dbf,,,,,,,,,,,,,,,,,,,,,,,l,0,"[""0.412"",""0.361"",""0.819"",""0.896""]","[0,1,1,1]",0,14,14,14,1,0,0,,,0,FALSE,3.9393,,,,,,,,,,,,,,,,,,,,,,,,,,,,,,
,615c5d74156deea8ee2aa187,001,2022-04-29_03h08.45.164,classification_task,2021.2.3,Win32,59.94844434,615c5d74156deea8ee2aa187,626b377229c10585ec392f8a,626b3ae9c196c376183b7dbf,,,,,,,,,,,,,,,,,,,,,,,a,1,"[""0.412"",""0.480"",""0.597"",""0.944""]","[0,1,1,1]",0,15,15,15,1,0,1,,,0,FALSE,3.8004,,,,,,,,,,,,,,,,,,,,,,,,,,,,,,
,615c5d74156deea8ee2aa187,001,2022-04-29_03h08.45.164,classification_task,2021.2.3,Win32,59.94844434,615c5d74156deea8ee2aa187,626b377229c10585ec392f8a,626b3ae9c196c376183b7dbf,,,,,,,,,,,,,,,,,,,,,,,l,1,"[""0.050"",""0.735"",""0.634"",""0.697""]","[1,0,1,1]",0,16,16,16,1,1,1,,,0,FALSE,5.4719,,,,,,,,,,,,,,,,,,,,,,,,,,,,,,
,615c5d74156deea8ee2aa187,001,2022-04-29_03h08.45.164,classification_task,2021.2.3,Win32,59.94844434,615c5d74156deea8ee2aa187,626b377229c10585ec392f8a,626b3ae9c196c376183b7dbf,,,,,,,,,,,,,,,,,,,,,,,a,1,"[""0.232"",""0.361"",""0.819"",""0.413""]","[1,1,1,0]",0,17,17,17,1,0,0,,,0,FALSE,4.1862,,,,,,,,,,,,,,,,,,,,,,,,,,,,,,
,615c5d74156deea8ee2aa187,001,2022-04-29_03h08.45.164,classification_task,2021.2.3,Win32,59.94844434,615c5d74156deea8ee2aa187,626b377229c10585ec392f8a,626b3ae9c196c376183b7dbf,,,,,,,,,,,,,,,,,,,,,,,l,0,"[""0.232"",""0.858"",""0.819"",""0.896""]","[1,0,1,1]",0,18,18,18,1,0,0,,,0,FALSE,4.6226,,,,,,,,,,,,,,,,,,,,,,,,,,,,,,
,615c5d74156deea8ee2aa187,001,2022-04-29_03h08.45.164,classification_task,2021.2.3,Win32,59.94844434,615c5d74156deea8ee2aa187,626b377229c10585ec392f8a,626b3ae9c196c376183b7dbf,,,,,,,,,,,,,,,,,,,,,,,a,0,"[""0.139"",""0.408"",""0.545"",""0.770""]","[1,0,1,1]",0,19,19,19,1,1,0,,,0,FALSE,2.7606,,,,,,,,,,,,,,,,,,,,,,,,,,,,,,
,615c5d74156deea8ee2aa187,001,2022-04-29_03h08.45.164,classification_task,2021.2.3,Win32,59.94844434,615c5d74156deea8ee2aa187,626b377229c10585ec392f8a,626b3ae9c196c376183b7dbf,,,,,,,,,,,,,,,,,,,,,,,l,0,"[""0.191"",""0.480"",""0.858"",""0.944""]","[1,1,0,1]",0,20,20,20,1,0,1,,,0,FALSE,4.4022,,,,,,,,,,,,,,,,,,,,,,,,,,,,,,
,615c5d74156deea8ee2aa187,001,2022-04-29_03h08.45.164,classification_task,2021.2.3,Win32,59.94844434,615c5d74156deea8ee2aa187,626b377229c10585ec392f8a,626b3ae9c196c376183b7dbf,,,,,,,,,,,,,,,,,,,,,,,l,1,"[""0.050"",""0.090"",""0.413"",""0.697""]","[1,1,0,1]",0,21,21,21,1,1,1,,,0,FALSE,2.2641,,,,,,,,,,,,,,,,,,,,,,,,,,,,,,
,615c5d74156deea8ee2aa187,001,2022-04-29_03h08.45.164,classification_task,2021.2.3,Win32,59.94844434,615c5d74156deea8ee2aa187,626b377229c10585ec392f8a,626b3ae9c196c376183b7dbf,,,,,,,,,,,,,,,,,,,,,,,a,1,"[""0.232"",""0.361"",""0.436"",""0.896""]","[1,1,0,1]",0,22,22,22,1,0,0,,,0,FALSE,3.6546,,,,,,,,,,,,,,,,,,,,,,,,,,,,,,
,615c5d74156deea8ee2aa187,001,2022-04-29_03h08.45.164,classification_task,2021.2.3,Win32,59.94844434,615c5d74156deea8ee2aa187,626b377229c10585ec392f8a,626b3ae9c196c376183b7dbf,,,,,,,,,,,,,,,,,,,,,,,a,0,"[""0.412"",""0.294"",""0.545"",""0.770""]","[0,1,1,1]",0,23,23,23,1,1,0,,,0,FALSE,4.5634,,,,,,,,,,,,,,,,,,,,,,,,,,,,,,
,615c5d74156deea8ee2aa187,001,2022-04-29_03h08.45.164,classification_task,2021.2.3,Win32,59.94844434,615c5d74156deea8ee2aa187,626b377229c10585ec392f8a,626b3ae9c196c376183b7dbf,,,,,,,,,,,,,,,,,,,,,,,l,0,"[""0.442"",""0.480"",""0.597"",""0.944""]","[0,1,1,1]",0,24,24,24,1,0,1,,,0,FALSE,5.6128,,,,,,,,,,,,,,,,,,,,,,,,,,,,,,
,615c5d74156deea8ee2aa187,001,2022-04-29_03h08.45.164,classification_task,2021.2.3,Win32,59.94844434,615c5d74156deea8ee2aa187,626b377229c10585ec392f8a,626b3ae9c196c376183b7dbf,,,,,,,,,,,,,,,,,,,,,,,a,1,"[""0.407"",""0.361"",""0.819"",""0.896""]","[0,1,1,1]",0,25,25,25,1,0,0,,,0,FALSE,8.6971,,,,,,,,,,,,,,,,,,,,,,,,,,,,,,
,615c5d74156deea8ee2aa187,001,2022-04-29_03h08.45.164,classification_task,2021.2.3,Win32,59.94844434,615c5d74156deea8ee2aa187,626b377229c10585ec392f8a,626b3ae9c196c376183b7dbf,,,,,,,,,,,,,,,,,,,,,,,a,1,"[""0.191"",""0.480"",""0.597"",""0.426""]","[1,1,1,0]",0,26,26,26,1,0,1,,,0,FALSE,5.2311,,,,,,,,,,,,,,,,,,,,,,,,,,,,,,
,615c5d74156deea8ee2aa187,001,2022-04-29_03h08.45.164,classification_task,2021.2.3,Win32,59.94844434,615c5d74156deea8ee2aa187,626b377229c10585ec392f8a,626b3ae9c196c376183b7dbf,,,,,,,,,,,,,,,,,,,,,,,l,1,"[""0.402"",""0.090"",""0.634"",""0.697""]","[0,1,1,1]",0,27,27,27,1,1,1,,,0,FALSE,6.9422,,,,,,,,,,,,,,,,,,,,,,,,,,,,,,
,615c5d74156deea8ee2aa187,001,2022-04-29_03h08.45.164,classification_task,2021.2.3,Win32,59.94844434,615c5d74156deea8ee2aa187,626b377229c10585ec392f8a,626b3ae9c196c376183b7dbf,,,,,,,,,,,,,,,,,,,,,,,a,1,"[""0.191"",""0.854"",""0.597"",""0.944""]","[1,0,1,1]",0,28,28,28,1,0,1,,,0,FALSE,4.8208,,,,,,,,,,,,,,,,,,,,,,,,,,,,,,
,615c5d74156deea8ee2aa187,001,2022-04-29_03h08.45.164,classification_task,2021.2.3,Win32,59.94844434,615c5d74156deea8ee2aa187,626b377229c10585ec392f8a,626b3ae9c196c376183b7dbf,,,,,,,,,,,,,,,,,,,,,,,a,0,"[""0.139"",""0.294"",""0.421"",""0.770""]","[1,1,0,1]",0,29,29,29,1,1,0,,,0,FALSE,5.5338,,,,,,,,,,,,,,,,,,,,,,,,,,,,,,
,615c5d74156deea8ee2aa187,001,2022-04-29_03h08.45.164,classification_task,2021.2.3,Win32,59.94844434,615c5d74156deea8ee2aa187,626b377229c10585ec392f8a,626b3ae9c196c376183b7dbf,,,,,,,,,,,,,,,,,,,,,,,l,1,"[""0.050"",""0.090"",""0.634"",""0.413""]","[1,1,1,0]",0,30,30,30,1,1,1,,,0,FALSE,3.7686,,,,,,,,,,,,,,,,,,,,,,,,,,,,,,
,615c5d74156deea8ee2aa187,001,2022-04-29_03h08.45.164,classification_task,2021.2.3,Win32,59.94844434,615c5d74156deea8ee2aa187,626b377229c10585ec392f8a,626b3ae9c196c376183b7dbf,,,,,,,,,,,,,,,,,,,,,,,l,1,"[""0.139"",""0.294"",""0.545"",""0.421""]","[1,1,1,0]",0,31,31,31,1,1,0,,,0,FALSE,5.6843,,,,,,,,,,,,,,,,,,,,,,,,,,,,,,
,615c5d74156deea8ee2aa187,001,2022-04-29_03h08.45.164,classification_task,2021.2.3,Win32,59.94844434,615c5d74156deea8ee2aa187,626b377229c10585ec392f8a,626b3ae9c196c376183b7dbf,,,,,,,,,,,,,,,,,,,,,,,a,1,"[""0.191"",""0.480"",""0.858"",""0.944""]","[1,1,0,1]",0,32,32,32,1,0,1,,,0,FALSE,3.5037,,,,,,,,,,,,,,,,,,,,,,,,,,,,,,
,615c5d74156deea8ee2aa187,001,2022-04-29_03h08.45.164,classification_task,2021.2.3,Win32,59.94844434,615c5d74156deea8ee2aa187,626b377229c10585ec392f8a,626b3ae9c196c376183b7dbf,,,,,,,,,,,,,,,,,,,,,,,a,1,"[""0.442"",""0.480"",""0.597"",""0.944""]","[0,1,1,1]",0,33,33,33,1,0,1,,,0,FALSE,4.5401,,,,,,,,,,,,,,,,,,,,,,,,,,,,,,
,615c5d74156deea8ee2aa187,001,2022-04-29_03h08.45.164,classification_task,2021.2.3,Win32,59.94844434,615c5d74156deea8ee2aa187,626b377229c10585ec392f8a,626b3ae9c196c376183b7dbf,,,,,,,,,,,,,,,,,,,,,,,l,1,"[""0.050"",""0.090"",""0.634"",""0.402""]","[1,1,1,0]",0,34,34,34,1,1,1,,,0,FALSE,3.178,,,,,,,,,,,,,,,,,,,,,,,,,,,,,,
,615c5d74156deea8ee2aa187,001,2022-04-29_03h08.45.164,classification_task,2021.2.3,Win32,59.94844434,615c5d74156deea8ee2aa187,626b377229c10585ec392f8a,626b3ae9c196c376183b7dbf,,,,,,,,,,,,,,,,,,,,,,,l,1,"[""0.139"",""0.402"",""0.545"",""0.770""]","[1,0,1,1]",0,35,35,35,1,1,0,,,0,FALSE,3.7709,,,,,,,,,,,,,,,,,,,,,,,,,,,,,,
,615c5d74156deea8ee2aa187,001,2022-04-29_03h08.45.164,classification_task,2021.2.3,Win32,59.94844434,615c5d74156deea8ee2aa187,626b377229c10585ec392f8a,626b3ae9c196c376183b7dbf,,,,,,,,,,,,,,,,,,,,,,,l,1,"[""0.139"",""0.294"",""0.408"",""0.770""]","[1,1,0,1]",0,36,36,36,1,1,0,,,0,FALSE,3.3453,,,,,,,,,,,,,,,,,,,,,,,,,,,,,,
,615c5d74156deea8ee2aa187,001,2022-04-29_03h08.45.164,classification_task,2021.2.3,Win32,59.94844434,615c5d74156deea8ee2aa187,626b377229c10585ec392f8a,626b3ae9c196c376183b7dbf,,,,,,,,,,,,,,,,,,,,,,,a,1,"[""0.232"",""0.361"",""0.732"",""0.896""]","[1,1,0,1]",0,37,37,37,1,0,0,,,0,FALSE,2.7215,,,,,,,,,,,,,,,,,,,,,,,,,,,,,,
,615c5d74156deea8ee2aa187,001,2022-04-29_03h08.45.164,classification_task,2021.2.3,Win32,59.94844434,615c5d74156deea8ee2aa187,626b377229c10585ec392f8a,626b3ae9c196c376183b7dbf,,,,,,,,,,,,,,,,,,,,,,,l,1,"[""0.139"",""0.294"",""0.545"",""0.442""]","[1,1,1,0]",0,38,38,38,1,1,0,,,0,FALSE,2.2882,,,,,,,,,,,,,,,,,,,,,,,,,,,,,,
,615c5d74156deea8ee2aa187,001,2022-04-29_03h08.45.164,classification_task,2021.2.3,Win32,59.94844434,615c5d74156deea8ee2aa187,626b377229c10585ec392f8a,626b3ae9c196c376183b7dbf,,,,,,,,,,,,,,,,,,,,,,,a,1,"[""0.412"",""0.361"",""0.819"",""0.896""]","[0,1,1,1]",0,39,39,39,1,0,0,,,0,FALSE,2.2221,,,,,,,,,,,,,,,,,,,,,,,,,,,,,,
,615c5d74156deea8ee2aa187,001,2022-04-29_03h08.45.164,classification_task,2021.2.3,Win32,59.94844434,615c5d74156deea8ee2aa187,626b377229c10585ec392f8a,626b3ae9c196c376183b7dbf,,,,,,,,,,,,,,,,,,,,,,,a,1,"[""0.232"",""0.442"",""0.819"",""0.896""]","[1,0,1,1]",0,40,40,40,1,0,0,,,0,FALSE,1.5467,,,,,,,,,,,,,,,,,,,,,,,,,,,,,,
,615c5d74156deea8ee2aa187,001,2022-04-29_03h08.45.164,classification_task,2021.2.3,Win32,59.94844434,615c5d74156deea8ee2aa187,626b377229c10585ec392f8a,626b3ae9c196c376183b7dbf,,,,,,,,,,,,,,,,,,,,,,,l,1,"[""0.050"",""0.442"",""0.634"",""0.697""]","[1,0,1,1]",0,41,41,41,1,1,1,,,0,FALSE,4.9698,,,,,,,,,,,,,,,,,,,,,,,,,,,,,,
,615c5d74156deea8ee2aa187,001,2022-04-29_03h08.45.164,classification_task,2021.2.3,Win32,59.94844434,615c5d74156deea8ee2aa187,626b377229c10585ec392f8a,626b3ae9c196c376183b7dbf,,,,,,,,,,,,,,,,,,,,,,,l,1,"[""0.426"",""0.090"",""0.634"",""0.697""]","[0,1,1,1]",0,42,42,42,1,1,1,,,0,FALSE,3.9594,,,,,,,,,,,,,,,,,,,,,,,,,,,,,,
,615c5d74156deea8ee2aa187,001,2022-04-29_03h08.45.164,classification_task,2021.2.3,Win32,59.94844434,615c5d74156deea8ee2aa187,626b377229c10585ec392f8a,626b3ae9c196c376183b7dbf,,,,,,,,,,,,,,,,,,,,,,,a,1,"[""0.232"",""0.361"",""0.819"",""0.412""]","[1,1,1,0]",0,43,43,43,1,0,0,,,0,FALSE,2.3832,,,,,,,,,,,,,,,,,,,,,,,,,,,,,,
,615c5d74156deea8ee2aa187,001,2022-04-29_03h08.45.164,classification_task,2021.2.3,Win32,59.94844434,615c5d74156deea8ee2aa187,626b377229c10585ec392f8a,626b3ae9c196c376183b7dbf,,,,,,,,,,,,,,,,,,,,,,,a,1,"[""0.191"",""0.480"",""0.597"",""0.436""]","[1,1,1,0]",0,44,44,44,1,0,1,,,0,FALSE,3.3228,,,,,,,,,,,,,,,,,,,,,,,,,,,,,,
,615c5d74156deea8ee2aa187,001,2022-04-29_03h08.45.164,classification_task,2021.2.3,Win32,59.94844434,615c5d74156deea8ee2aa187,626b377229c10585ec392f8a,626b3ae9c196c376183b7dbf,,,,,,,,,,,,,,,,,,,,,,,l,1,"[""0.050"",""0.090"",""0.408"",""0.697""]","[1,1,0,1]",0,45,45,45,1,1,1,,,0,FALSE,2.6794,,,,,,,,,,,,,,,,,,,,,,,,,,,,,,
,615c5d74156deea8ee2aa187,001,2022-04-29_03h08.45.164,classification_task,2021.2.3,Win32,59.94844434,615c5d74156deea8ee2aa187,626b377229c10585ec392f8a,626b3ae9c196c376183b7dbf,,,,,,,,,,,,,,,,,,,,,,,l,1,"[""0.426"",""0.294"",""0.545"",""0.770""]","[0,1,1,1]",0,46,46,46,1,1,0,,,0,FALSE,3.0053,,,,,,,,,,,,,,,,,,,,,,,,,,,,,,
,615c5d74156deea8ee2aa187,001,2022-04-29_03h08.45.164,classification_task,2021.2.3,Win32,59.94844434,615c5d74156deea8ee2aa187,626b377229c10585ec392f8a,626b3ae9c196c376183b7dbf,,,,,,,,,,,,,,,,,,,,,,,l,0,"[""0.191"",""0.442"",""0.597"",""0.944""]","[1,0,1,1]",0,47,47,47,1,0,1,,,0,FALSE,2.8239,,,,,,,,,,,,,,,,,,,,,,,,,,,,,,
,615c5d74156deea8ee2aa187,001,2022-04-29_03h08.45.164,classification_task,2021.2.3,Win32,59.94844434,615c5d74156deea8ee2aa187,626b377229c10585ec392f8a,626b3ae9c196c376183b7dbf,,,,,,,,,,,,,,,,,,,,,,,a,1,"[""0.191"",""0.442"",""0.597"",""0.944""]","[1,0,1,1]",0,48,48,48,1,0,1,,,0,FALSE,3.8798,,,,,,,,,,,,,,,,,,,,,,,,,,,,,,
,615c5d74156deea8ee2aa187,001,2022-04-29_03h08.45.164,classification_task,2021.2.3,Win32,59.94844434,615c5d74156deea8ee2aa187,626b377229c10585ec392f8a,626b3ae9c196c376183b7dbf,,,,,,,,,,,,,,,,,,,,,,,l,1,"[""0.050"",""0.426"",""0.634"",""0.697""]","[1,0,1,1]",0,49,49,49,1,1,1,,,0,FALSE,1.8063,,,,,,,,,,,,,,,,,,,,,,,,,,,,,,
,615c5d74156deea8ee2aa187,001,2022-04-29_03h08.45.164,classification_task,2021.2.3,Win32,59.94844434,615c5d74156deea8ee2aa187,626b377229c10585ec392f8a,626b3ae9c196c376183b7dbf,,,,,,,,,,,,,,,,,,,,,,,l,1,"[""0.139"",""0.294"",""0.545"",""0.421""]","[1,1,1,0]",0,50,50,50,1,1,0,,,0,FALSE,2.9514,,,,,,,,,,,,,,,,,,,,,,,,,,,,,,
,615c5d74156deea8ee2aa187,001,2022-04-29_03h08.45.164,classification_task,2021.2.3,Win32,59.94844434,615c5d74156deea8ee2aa187,626b377229c10585ec392f8a,626b3ae9c196c376183b7dbf,,,,,,,,,,,,,,,,,,,,,,,l,1,"[""0.426"",""0.294"",""0.545"",""0.770""]","[0,1,1,1]",0,51,51,51,1,1,0,,,0,FALSE,2.4888,,,,,,,,,,,,,,,,,,,,,,,,,,,,,,
,615c5d74156deea8ee2aa187,001,2022-04-29_03h08.45.164,classification_task,2021.2.3,Win32,59.94844434,615c5d74156deea8ee2aa187,626b377229c10585ec392f8a,626b3ae9c196c376183b7dbf,,,,,,,,,,,,,,,,,,,,,,,a,1,"[""0.191"",""0.480"",""0.402"",""0.944""]","[1,1,0,1]",0,52,52,52,1,0,1,,,0,FALSE,3.6349,,,,,,,,,,,,,,,,,,,,,,,,,,,,,,
,615c5d74156deea8ee2aa187,001,2022-04-29_03h08.45.164,classification_task,2021.2.3,Win32,59.94844434,615c5d74156deea8ee2aa187,626b377229c10585ec392f8a,626b3ae9c196c376183b7dbf,,,,,,,,,,,,,,,,,,,,,,,a,1,"[""0.854"",""0.361"",""0.819"",""0.896""]","[0,1,1,1]",0,53,53,53,1,0,0,,,0,FALSE,2.1544,,,,,,,,,,,,,,,,,,,,,,,,,,,,,,
,615c5d74156deea8ee2aa187,001,2022-04-29_03h08.45.164,classification_task,2021.2.3,Win32,59.94844434,615c5d74156deea8ee2aa187,626b377229c10585ec392f8a,626b3ae9c196c376183b7dbf,,,,,,,,,,,,,,,,,,,,,,,a,1,"[""0.232"",""0.732"",""0.819"",""0.896""]","[1,0,1,1]",0,54,54,54,1,0,0,,,0,FALSE,1.7432,,,,,,,,,,,,,,,,,,,,,,,,,,,,,,
,615c5d74156deea8ee2aa187,001,2022-04-29_03h08.45.164,classification_task,2021.2.3,Win32,59.94844434,615c5d74156deea8ee2aa187,626b377229c10585ec392f8a,626b3ae9c196c376183b7dbf,,,,,,,,,,,,,,,,,,,,,,,a,1,"[""0.232"",""0.361"",""0.819"",""0.436""]","[1,1,1,0]",0,55,55,55,1,0,0,,,0,FALSE,1.6245,,,,,,,,,,,,,,,,,,,,,,,,,,,,,,
,615c5d74156deea8ee2aa187,001,2022-04-29_03h08.45.164,classification_task,2021.2.3,Win32,59.94844434,615c5d74156deea8ee2aa187,626b377229c10585ec392f8a,626b3ae9c196c376183b7dbf,,,,,,,,,,,,,,,,,,,,,,,a,1,"[""0.402"",""0.480"",""0.597"",""0.944""]","[0,1,1,1]",0,56,56,56,1,0,1,,,0,FALSE,4.7482,,,,,,,,,,,,,,,,,,,,,,,,,,,,,,
,615c5d74156deea8ee2aa187,001,2022-04-29_03h08.45.164,classification_task,2021.2.3,Win32,59.94844434,615c5d74156deea8ee2aa187,626b377229c10585ec392f8a,626b3ae9c196c376183b7dbf,,,,,,,,,,,,,,,,,,,,,,,l,1,"[""0.139"",""0.294"",""0.854"",""0.770""]","[1,1,0,1]",0,57,57,57,1,1,0,,,0,FALSE,1.972,,,,,,,,,,,,,,,,,,,,,,,,,,,,,,
,615c5d74156deea8ee2aa187,001,2022-04-29_03h08.45.164,classification_task,2021.2.3,Win32,59.94844434,615c5d74156deea8ee2aa187,626b377229c10585ec392f8a,626b3ae9c196c376183b7dbf,,,,,,,,,,,,,,,,,,,,,,,a,1,"[""0.191"",""0.480"",""0.597"",""0.442""]","[1,1,1,0]",0,58,58,58,1,0,1,,,0,FALSE,2.1864,,,,,,,,,,,,,,,,,,,,,,,,,,,,,,
,615c5d74156deea8ee2aa187,001,2022-04-29_03h08.45.164,classification_task,2021.2.3,Win32,59.94844434,615c5d74156deea8ee2aa187,626b377229c10585ec392f8a,626b3ae9c196c376183b7dbf,,,,,,,,,,,,,,,,,,,,,,,l,1,"[""0.442"",""0.090"",""0.634"",""0.697""]","[0,1,1,1]",0,59,59,59,1,1,1,,,0,FALSE,1.921,,,,,,,,,,,,,,,,,,,,,,,,,,,,,,
,615c5d74156deea8ee2aa187,001,2022-04-29_03h08.45.164,classification_task,2021.2.3,Win32,59.94844434,615c5d74156deea8ee2aa187,626b377229c10585ec392f8a,626b3ae9c196c376183b7dbf,,,,,,,,,,,,,,,,,,,,,,,l,1,"[""0.139"",""0.426"",""0.545"",""0.770""]","[1,0,1,1]",0,60,60,60,1,1,0,,,0,FALSE,1.8201,,,,,,,,,,,,,,,,,,,,,,,,,,,,,,
,615c5d74156deea8ee2aa187,001,2022-04-29_03h08.45.164,classification_task,2021.2.3,Win32,59.94844434,615c5d74156deea8ee2aa187,626b377229c10585ec392f8a,626b3ae9c196c376183b7dbf,,,,,,,,,,,,,,,,,,,,,,,l,1,"[""0.050"",""0.090"",""0.634"",""0.442""]","[1,1,1,0]",0,61,61,61,1,1,1,,,0,FALSE,1.4979,,,,,,,,,,,,,,,,,,,,,,,,,,,,,,
,615c5d74156deea8ee2aa187,001,2022-04-29_03h08.45.164,classification_task,2021.2.3,Win32,59.94844434,615c5d74156deea8ee2aa187,626b377229c10585ec392f8a,626b3ae9c196c376183b7dbf,,,,,,,,,,,,,,,,,,,,,,,a,1,"[""0.232"",""0.361"",""0.854"",""0.896""]","[1,1,0,1]",0,62,62,62,1,0,0,,,0,FALSE,1.2976,,,,,,,,,,,,,,,,,,,,,,,,,,,,,,
,615c5d74156deea8ee2aa187,001,2022-04-29_03h08.45.164,classification_task,2021.2.3,Win32,59.94844434,615c5d74156deea8ee2aa187,626b377229c10585ec392f8a,626b3ae9c196c376183b7dbf,,,,,,,,,,,,,,,,,,,,,,,l,1,"[""0.050"",""0.090"",""0.854"",""0.697""]","[1,1,0,1]",0,63,63,63,1,1,1,,,0,FALSE,4.7688,,,,,,,,,,,,,,,,,,,,,,,,,,,,,,
,615c5d74156deea8ee2aa187,001,2022-04-29_03h08.45.164,classification_task,2021.2.3,Win32,59.94844434,615c5d74156deea8ee2aa187,626b377229c10585ec392f8a,626b3ae9c196c376183b7dbf,,,,,,,,,,,,,,,,,,,,,,,,,,,,,,,,,,,,,,,0, ,,0,4.207727072,307.6741,0,1,1,1,1,2,2,,,,,,,,,,,,,,,,,
,615c5d74156deea8ee2aa187,001,2022-04-29_03h08.45.164,classification_task,2021.2.3,Win32,59.94844434,615c5d74156deea8ee2aa187,626b377229c10585ec392f8a,626b3ae9c196c376183b7dbf,,,,,,,,,,,,,,,,,,,,,,,,,,,,,,,,,,,,,,,1,  ,,0,9.340277778,309.9736,0,1,1,1,1,2,2,,,,,,,,,,,,,,,,,
,615c5d74156deea8ee2aa187,001,2022-04-29_03h08.45.164,classification_task,2021.2.3,Win32,59.94844434,615c5d74156deea8ee2aa187,626b377229c10585ec392f8a,626b3ae9c196c376183b7dbf,,,,,,,,,,,,,,,,,,,,,,,,,,,,,,,,,,,,,,,2,  ,,0,7.583498677,314.7818,0,1,1,1,1,2,2,,,,,,,,,,,,,,,,,
,615c5d74156deea8ee2aa187,001,2022-04-29_03h08.45.164,classification_task,2021.2.3,Win32,59.94844434,615c5d74156deea8ee2aa187,626b377229c10585ec392f8a,626b3ae9c196c376183b7dbf,,,,,,,,,,,,,,,,,,,,,,,,,,,,,,,,,,,,,,,,,,,,,0,1,1,1,1,,2,,,,,,,,,,,,,,,,,
,615c5d74156deea8ee2aa187,001,2022-04-29_03h08.45.164,classification_task,2021.2.3,Win32,59.94844434,615c5d74156deea8ee2aa187,626b377229c10585ec392f8a,626b3ae9c196c376183b7dbf,,,,,,,,,,,,,,,,,,,,,space,4.3319,a,1,"[""0.191"",""0.480"",""0.413"",""0.944""]","[1,1,0,1]",0,0,0,0,1,0,1,,,0,FALSE,2.8997,,,,,,,,,,,,,,,,,,,,,,,,,,,,,,
,615c5d74156deea8ee2aa187,001,2022-04-29_03h08.45.164,classification_task,2021.2.3,Win32,59.94844434,615c5d74156deea8ee2aa187,626b377229c10585ec392f8a,626b3ae9c196c376183b7dbf,,,,,,,,,,,,,,,,,,,,,,,a,1,"[""0.408"",""0.361"",""0.819"",""0.896""]","[0,1,1,1]",0,1,1,1,1,0,0,,,0,FALSE,6.2989,,,,,,,,,,,,,,,,,,,,,,,,,,,,,,
,615c5d74156deea8ee2aa187,001,2022-04-29_03h08.45.164,classification_task,2021.2.3,Win32,59.94844434,615c5d74156deea8ee2aa187,626b377229c10585ec392f8a,626b3ae9c196c376183b7dbf,,,,,,,,,,,,,,,,,,,,,,,a,1,"[""0.232"",""0.361"",""0.402"",""0.896""]","[1,1,0,1]",0,2,2,2,1,0,0,,,0,FALSE,3.4668,,,,,,,,,,,,,,,,,,,,,,,,,,,,,,
,615c5d74156deea8ee2aa187,001,2022-04-29_03h08.45.164,classification_task,2021.2.3,Win32,59.94844434,615c5d74156deea8ee2aa187,626b377229c10585ec392f8a,626b3ae9c196c376183b7dbf,,,,,,,,,,,,,,,,,,,,,,,a,1,"[""0.191"",""0.480"",""0.597"",""0.442""]","[1,1,1,0]",0,3,3,3,1,0,1,,,0,FALSE,2.7017,,,,,,,,,,,,,,,,,,,,,,,,,,,,,,
,615c5d74156deea8ee2aa187,001,2022-04-29_03h08.45.164,classification_task,2021.2.3,Win32,59.94844434,615c5d74156deea8ee2aa187,626b377229c10585ec392f8a,626b3ae9c196c376183b7dbf,,,,,,,,,,,,,,,,,,,,,,,a,0,"[""0.436"",""0.294"",""0.545"",""0.770""]","[0,1,1,1]",0,4,4,4,1,1,0,,,0,FALSE,2.6497,,,,,,,,,,,,,,,,,,,,,,,,,,,,,,
,615c5d74156deea8ee2aa187,001,2022-04-29_03h08.45.164,classification_task,2021.2.3,Win32,59.94844434,615c5d74156deea8ee2aa187,626b377229c10585ec392f8a,626b3ae9c196c376183b7dbf,,,,,,,,,,,,,,,,,,,,,,,l,1,"[""0.050"",""0.090"",""0.407"",""0.697""]","[1,1,0,1]",0,5,5,5,1,1,1,,,0,FALSE,1.3481,,,,,,,,,,,,,,,,,,,,,,,,,,,,,,
,615c5d74156deea8ee2aa187,001,2022-04-29_03h08.45.164,classification_task,2021.2.3,Win32,59.94844434,615c5d74156deea8ee2aa187,626b377229c10585ec392f8a,626b3ae9c196c376183b7dbf,,,,,,,,,,,,,,,,,,,,,,,a,1,"[""0.232"",""0.854"",""0.819"",""0.896""]","[1,0,1,1]",0,6,6,6,1,0,0,,,0,FALSE,2.4996,,,,,,,,,,,,,,,,,,,,,,,,,,,,,,
,615c5d74156deea8ee2aa187,001,2022-04-29_03h08.45.164,classification_task,2021.2.3,Win32,59.94844434,615c5d74156deea8ee2aa187,626b377229c10585ec392f8a,626b3ae9c196c376183b7dbf,,,,,,,,,,,,,,,,,,,,,,,a,1,"[""0.407"",""0.480"",""0.597"",""0.944""]","[0,1,1,1]",0,7,7,7,1,0,1,,,0,FALSE,2.6836,,,,,,,,,,,,,,,,,,,,,,,,,,,,,,
,615c5d74156deea8ee2aa187,001,2022-04-29_03h08.45.164,classification_task,2021.2.3,Win32,59.94844434,615c5d74156deea8ee2aa187,626b377229c10585ec392f8a,626b3ae9c196c376183b7dbf,,,,,,,,,,,,,,,,,,,,,,,a,1,"[""0.191"",""0.413"",""0.597"",""0.944""]","[1,0,1,1]",0,8,8,8,1,0,1,,,0,FALSE,1.4838,,,,,,,,,,,,,,,,,,,,,,,,,,,,,,
,615c5d74156deea8ee2aa187,001,2022-04-29_03h08.45.164,classification_task,2021.2.3,Win32,59.94844434,615c5d74156deea8ee2aa187,626b377229c10585ec392f8a,626b3ae9c196c376183b7dbf,,,,,,,,,,,,,,,,,,,,,,,l,1,"[""0.050"",""0.412"",""0.634"",""0.697""]","[1,0,1,1]",0,9,9,9,1,1,1,,,0,FALSE,1.0495,,,,,,,,,,,,,,,,,,,,,,,,,,,,,,
,615c5d74156deea8ee2aa187,001,2022-04-29_03h08.45.164,classification_task,2021.2.3,Win32,59.94844434,615c5d74156deea8ee2aa187,626b377229c10585ec392f8a,626b3ae9c196c376183b7dbf,,,,,,,,,,,,,,,,,,,,,,,a,0,"[""0.139"",""0.407"",""0.545"",""0.770""]","[1,0,1,1]",0,10,10,10,1,1,0,,,0,FALSE,3.535,,,,,,,,,,,,,,,,,,,,,,,,,,,,,,
,615c5d74156deea8ee2aa187,001,2022-04-29_03h08.45.164,classification_task,2021.2.3,Win32,59.94844434,615c5d74156deea8ee2aa187,626b377229c10585ec392f8a,626b3ae9c196c376183b7dbf,,,,,,,,,,,,,,,,,,,,,,,a,0,"[""0.139"",""0.294"",""0.735"",""0.770""]","[1,1,0,1]",0,11,11,11,1,1,0,,,0,FALSE,2.4258,,,,,,,,,,,,,,,,,,,,,,,,,,,,,,
,615c5d74156deea8ee2aa187,001,2022-04-29_03h08.45.164,classification_task,2021.2.3,Win32,59.94844434,615c5d74156deea8ee2aa187,626b377229c10585ec392f8a,626b3ae9c196c376183b7dbf,,,,,,,,,,,,,,,,,,,,,,,a,1,"[""0.232"",""0.361"",""0.819"",""0.402""]","[1,1,1,0]",0,12,12,12,1,0,0,,,0,FALSE,5.1922,,,,,,,,,,,,,,,,,,,,,,,,,,,,,,
,615c5d74156deea8ee2aa187,001,2022-04-29_03h08.45.164,classification_task,2021.2.3,Win32,59.94844434,615c5d74156deea8ee2aa187,626b377229c10585ec392f8a,626b3ae9c196c376183b7dbf,,,,,,,,,,,,,,,,,,,,,,,l,1,"[""0.050"",""0.090"",""0.634"",""0.732""]","[1,1,1,0]",0,13,13,13,1,1,1,,,0,FALSE,1.3388,,,,,,,,,,,,,,,,,,,,,,,,,,,,,,
,615c5d74156deea8ee2aa187,001,2022-04-29_03h08.45.164,classification_task,2021.2.3,Win32,59.94844434,615c5d74156deea8ee2aa187,626b377229c10585ec392f8a,626b3ae9c196c376183b7dbf,,,,,,,,,,,,,,,,,,,,,,,a,0,"[""0.139"",""0.294"",""0.545"",""0.442""]","[1,1,1,0]",0,14,14,14,1,1,0,,,0,FALSE,2.2377,,,,,,,,,,,,,,,,,,,,,,,,,,,,,,
,615c5d74156deea8ee2aa187,001,2022-04-29_03h08.45.164,classification_task,2021.2.3,Win32,59.94844434,615c5d74156deea8ee2aa187,626b377229c10585ec392f8a,626b3ae9c196c376183b7dbf,,,,,,,,,,,,,,,,,,,,,,,l,1,"[""0.436"",""0.090"",""0.634"",""0.697""]","[0,1,1,1]",0,15,15,15,1,1,1,,,0,FALSE,1.7826,,,,,,,,,,,,,,,,,,,,,,,,,,,,,,
,615c5d74156deea8ee2aa187,001,2022-04-29_03h08.45.164,classification_task,2021.2.3,Win32,59.94844434,615c5d74156deea8ee2aa187,626b377229c10585ec392f8a,626b3ae9c196c376183b7dbf,,,,,,,,,,,,,,,,,,,,,,,a,1,"[""0.191"",""0.480"",""0.597"",""0.426""]","[1,1,1,0]",0,16,16,16,1,0,1,,,0,FALSE,1.8841,,,,,,,,,,,,,,,,,,,,,,,,,,,,,,
,615c5d74156deea8ee2aa187,001,2022-04-29_03h08.45.164,classification_task,2021.2.3,Win32,59.94844434,615c5d74156deea8ee2aa187,626b377229c10585ec392f8a,626b3ae9c196c376183b7dbf,,,,,,,,,,,,,,,,,,,,,,,l,1,"[""0.050"",""0.858"",""0.634"",""0.697""]","[1,0,1,1]",0,17,17,17,1,1,1,,,0,FALSE,1.3612,,,,,,,,,,,,,,,,,,,,,,,,,,,,,,
,615c5d74156deea8ee2aa187,001,2022-04-29_03h08.45.164,classification_task,2021.2.3,Win32,59.94844434,615c5d74156deea8ee2aa187,626b377229c10585ec392f8a,626b3ae9c196c376183b7dbf,,,,,,,,,,,,,,,,,,,,,,,a,1,"[""0.191"",""0.413"",""0.597"",""0.944""]","[1,0,1,1]",0,18,18,18,1,0,1,,,0,FALSE,1.507,,,,,,,,,,,,,,,,,,,,,,,,,,,,,,
,615c5d74156deea8ee2aa187,001,2022-04-29_03h08.45.164,classification_task,2021.2.3,Win32,59.94844434,615c5d74156deea8ee2aa187,626b377229c10585ec392f8a,626b3ae9c196c376183b7dbf,,,,,,,,,,,,,,,,,,,,,,,a,0,"[""0.139"",""0.294"",""0.421"",""0.770""]","[1,1,0,1]",0,19,19,19,1,1,0,,,0,FALSE,1.6683,,,,,,,,,,,,,,,,,,,,,,,,,,,,,,
,615c5d74156deea8ee2aa187,001,2022-04-29_03h08.45.164,classification_task,2021.2.3,Win32,59.94844434,615c5d74156deea8ee2aa187,626b377229c10585ec392f8a,626b3ae9c196c376183b7dbf,,,,,,,,,,,,,,,,,,,,,,,a,0,"[""0.735"",""0.294"",""0.545"",""0.770""]","[0,1,1,1]",0,20,20,20,1,1,0,,,0,FALSE,1.9277,,,,,,,,,,,,,,,,,,,,,,,,,,,,,,
,615c5d74156deea8ee2aa187,001,2022-04-29_03h08.45.164,classification_task,2021.2.3,Win32,59.94844434,615c5d74156deea8ee2aa187,626b377229c10585ec392f8a,626b3ae9c196c376183b7dbf,,,,,,,,,,,,,,,,,,,,,,,a,1,"[""0.413"",""0.361"",""0.819"",""0.896""]","[0,1,1,1]",0,21,21,21,1,0,0,,,0,FALSE,2.4922,,,,,,,,,,,,,,,,,,,,,,,,,,,,,,
,615c5d74156deea8ee2aa187,001,2022-04-29_03h08.45.164,classification_task,2021.2.3,Win32,59.94844434,615c5d74156deea8ee2aa187,626b377229c10585ec392f8a,626b3ae9c196c376183b7dbf,,,,,,,,,,,,,,,,,,,,,,,a,1,"[""0.232"",""0.426"",""0.819"",""0.896""]","[1,0,1,1]",0,22,22,22,1,0,0,,,0,FALSE,1.5709,,,,,,,,,,,,,,,,,,,,,,,,,,,,,,
,615c5d74156deea8ee2aa187,001,2022-04-29_03h08.45.164,classification_task,2021.2.3,Win32,59.94844434,615c5d74156deea8ee2aa187,626b377229c10585ec392f8a,626b3ae9c196c376183b7dbf,,,,,,,,,,,,,,,,,,,,,,,a,1,"[""0.732"",""0.480"",""0.597"",""0.944""]","[0,1,1,1]",0,23,23,23,1,0,1,,,0,FALSE,4.8896,,,,,,,,,,,,,,,,,,,,,,,,,,,,,,
,615c5d74156deea8ee2aa187,001,2022-04-29_03h08.45.164,classification_task,2021.2.3,Win32,59.94844434,615c5d74156deea8ee2aa187,626b377229c10585ec392f8a,626b3ae9c196c376183b7dbf,,,,,,,,,,,,,,,,,,,,,,,l,1,"[""0.050"",""0.090"",""0.408"",""0.697""]","[1,1,0,1]",0,24,24,24,1,1,1,,,0,FALSE,1.0985,,,,,,,,,,,,,,,,,,,,,,,,,,,,,,
,615c5d74156deea8ee2aa187,001,2022-04-29_03h08.45.164,classification_task,2021.2.3,Win32,59.94844434,615c5d74156deea8ee2aa187,626b377229c10585ec392f8a,626b3ae9c196c376183b7dbf,,,,,,,,,,,,,,,,,,,,,,,a,1,"[""0.232"",""0.361"",""0.819"",""0.442""]","[1,1,1,0]",0,25,25,25,1,0,0,,,0,FALSE,1.7222,,,,,,,,,,,,,,,,,,,,,,,,,,,,,,
,615c5d74156deea8ee2aa187,001,2022-04-29_03h08.45.164,classification_task,2021.2.3,Win32,59.94844434,615c5d74156deea8ee2aa187,626b377229c10585ec392f8a,626b3ae9c196c376183b7dbf,,,,,,,,,,,,,,,,,,,,,,,a,1,"[""0.191"",""0.480"",""0.426"",""0.944""]","[1,1,0,1]",0,26,26,26,1,0,1,,,0,FALSE,1.4491,,,,,,,,,,,,,,,,,,,,,,,,,,,,,,
,615c5d74156deea8ee2aa187,001,2022-04-29_03h08.45.164,classification_task,2021.2.3,Win32,59.94844434,615c5d74156deea8ee2aa187,626b377229c10585ec392f8a,626b3ae9c196c376183b7dbf,,,,,,,,,,,,,,,,,,,,,,,a,0,"[""0.139"",""0.442"",""0.545"",""0.770""]","[1,0,1,1]",0,27,27,27,1,1,0,,,0,FALSE,1.3017,,,,,,,,,,,,,,,,,,,,,,,,,,,,,,
,615c5d74156deea8ee2aa187,001,2022-04-29_03h08.45.164,classification_task,2021.2.3,Win32,59.94844434,615c5d74156deea8ee2aa187,626b377229c10585ec392f8a,626b3ae9c196c376183b7dbf,,,,,,,,,,,,,,,,,,,,,,,l,1,"[""0.442"",""0.090"",""0.634"",""0.697""]","[0,1,1,1]",0,28,28,28,1,1,1,,,0,FALSE,1.2505,,,,,,,,,,,,,,,,,,,,,,,,,,,,,,
,615c5d74156deea8ee2aa187,001,2022-04-29_03h08.45.164,classification_task,2021.2.3,Win32,59.94844434,615c5d74156deea8ee2aa187,626b377229c10585ec392f8a,626b3ae9c196c376183b7dbf,,,,,,,,,,,,,,,,,,,,,,,a,1,"[""0.232"",""0.361"",""0.858"",""0.896""]","[1,1,0,1]",0,29,29,29,1,0,0,,,0,FALSE,1.6663,,,,,,,,,,,,,,,,,,,,,,,,,,,,,,
,615c5d74156deea8ee2aa187,001,2022-04-29_03h08.45.164,classification_task,2021.2.3,Win32,59.94844434,615c5d74156deea8ee2aa187,626b377229c10585ec392f8a,626b3ae9c196c376183b7dbf,,,,,,,,,,,,,,,,,,,,,,,l,1,"[""0.050"",""0.090"",""0.634"",""0.436""]","[1,1,1,0]",0,30,30,30,1,1,1,,,0,FALSE,1.3869,,,,,,,,,,,,,,,,,,,,,,,,,,,,,,
,615c5d74156deea8ee2aa187,001,2022-04-29_03h08.45.164,classification_task,2021.2.3,Win32,59.94844434,615c5d74156deea8ee2aa187,626b377229c10585ec392f8a,626b3ae9c196c376183b7dbf,,,,,,,,,,,,,,,,,,,,,,,a,0,"[""0.139"",""0.294"",""0.545"",""0.732""]","[1,1,1,0]",0,31,31,31,1,1,0,,,0,FALSE,1.5159,,,,,,,,,,,,,,,,,,,,,,,,,,,,,,
,615c5d74156deea8ee2aa187,001,2022-04-29_03h08.45.164,classification_task,2021.2.3,Win32,59.94844434,615c5d74156deea8ee2aa187,626b377229c10585ec392f8a,626b3ae9c196c376183b7dbf,,,,,,,,,,,,,,,,,,,,,,,a,1,"[""0.191"",""0.480"",""0.407"",""0.944""]","[1,1,0,1]",0,32,32,32,1,0,1,,,0,FALSE,0.8696,,,,,,,,,,,,,,,,,,,,,,,,,,,,,,
,615c5d74156deea8ee2aa187,001,2022-04-29_03h08.45.164,classification_task,2021.2.3,Win32,59.94844434,615c5d74156deea8ee2aa187,626b377229c10585ec392f8a,626b3ae9c196c376183b7dbf,,,,,,,,,,,,,,,,,,,,,,,a,0,"[""0.426"",""0.294"",""0.545"",""0.770""]","[0,1,1,1]",0,33,33,33,1,1,0,,,0,FALSE,2.3497,,,,,,,,,,,,,,,,,,,,,,,,,,,,,,
,615c5d74156deea8ee2aa187,001,2022-04-29_03h08.45.164,classification_task,2021.2.3,Win32,59.94844434,615c5d74156deea8ee2aa187,626b377229c10585ec392f8a,626b3ae9c196c376183b7dbf,,,,,,,,,,,,,,,,,,,,,,,a,0,"[""0.139"",""0.294"",""0.407"",""0.770""]","[1,1,0,1]",0,34,34,34,1,1,0,,,0,FALSE,1.6901,,,,,,,,,,,,,,,,,,,,,,,,,,,,,,
,615c5d74156deea8ee2aa187,001,2022-04-29_03h08.45.164,classification_task,2021.2.3,Win32,59.94844434,615c5d74156deea8ee2aa187,626b377229c10585ec392f8a,626b3ae9c196c376183b7dbf,,,,,,,,,,,,,,,,,,,,,,,l,1,"[""0.858"",""0.090"",""0.634"",""0.697""]","[0,1,1,1]",0,35,35,35,1,1,1,,,0,FALSE,1.2677,,,,,,,,,,,,,,,,,,,,,,,,,,,,,,
,615c5d74156deea8ee2aa187,001,2022-04-29_03h08.45.164,classification_task,2021.2.3,Win32,59.94844434,615c5d74156deea8ee2aa187,626b377229c10585ec392f8a,626b3ae9c196c376183b7dbf,,,,,,,,,,,,,,,,,,,,,,,a,0,"[""0.139"",""0.294"",""0.545"",""0.854""]","[1,1,1,0]",0,36,36,36,1,1,0,,,0,FALSE,1.439,,,,,,,,,,,,,,,,,,,,,,,,,,,,,,
,615c5d74156deea8ee2aa187,001,2022-04-29_03h08.45.164,classification_task,2021.2.3,Win32,59.94844434,615c5d74156deea8ee2aa187,626b377229c10585ec392f8a,626b3ae9c196c376183b7dbf,,,,,,,,,,,,,,,,,,,,,,,l,1,"[""0.050"",""0.090"",""0.408"",""0.697""]","[1,1,0,1]",0,37,37,37,1,1,1,,,0,FALSE,1.4156,,,,,,,,,,,,,,,,,,,,,,,,,,,,,,
,615c5d74156deea8ee2aa187,001,2022-04-29_03h08.45.164,classification_task,2021.2.3,Win32,59.94844434,615c5d74156deea8ee2aa187,626b377229c10585ec392f8a,626b3ae9c196c376183b7dbf,,,,,,,,,,,,,,,,,,,,,,,a,1,"[""0.421"",""0.361"",""0.819"",""0.896""]","[0,1,1,1]",0,38,38,38,1,0,0,,,0,FALSE,3.7157,,,,,,,,,,,,,,,,,,,,,,,,,,,,,,
,615c5d74156deea8ee2aa187,001,2022-04-29_03h08.45.164,classification_task,2021.2.3,Win32,59.94844434,615c5d74156deea8ee2aa187,626b377229c10585ec392f8a,626b3ae9c196c376183b7dbf,,,,,,,,,,,,,,,,,,,,,,,a,1,"[""0.191"",""0.407"",""0.597"",""0.944""]","[1,0,1,1]",0,39,39,39,1,0,1,,,0,FALSE,1.2351,,,,,,,,,,,,,,,,,,,,,,,,,,,,,,
,615c5d74156deea8ee2aa187,001,2022-04-29_03h08.45.164,classification_task,2021.2.3,Win32,59.94844434,615c5d74156deea8ee2aa187,626b377229c10585ec392f8a,626b3ae9c196c376183b7dbf,,,,,,,,,,,,,,,,,,,,,,,a,1,"[""0.232"",""0.361"",""0.819"",""0.413""]","[1,1,1,0]",0,40,40,40,1,0,0,,,0,FALSE,1.0569,,,,,,,,,,,,,,,,,,,,,,,,,,,,,,
,615c5d74156deea8ee2aa187,001,2022-04-29_03h08.45.164,classification_task,2021.2.3,Win32,59.94844434,615c5d74156deea8ee2aa187,626b377229c10585ec392f8a,626b3ae9c196c376183b7dbf,,,,,,,,,,,,,,,,,,,,,,,a,1,"[""0.191"",""0.480"",""0.597"",""0.732""]","[1,1,1,0]",0,41,41,41,1,0,1,,,0,FALSE,1.3194,,,,,,,,,,,,,,,,,,,,,,,,,,,,,,
,615c5d74156deea8ee2aa187,001,2022-04-29_03h08.45.164,classification_task,2021.2.3,Win32,59.94844434,615c5d74156deea8ee2aa187,626b377229c10585ec392f8a,626b3ae9c196c376183b7dbf,,,,,,,,,,,,,,,,,,,,,,,a,0,"[""0.139"",""0.402"",""0.545"",""0.770""]","[1,0,1,1]",0,42,42,42,1,1,0,,,0,FALSE,1.9034,,,,,,,,,,,,,,,,,,,,,,,,,,,,,,
,615c5d74156deea8ee2aa187,001,2022-04-29_03h08.45.164,classification_task,2021.2.3,Win32,59.94844434,615c5d74156deea8ee2aa187,626b377229c10585ec392f8a,626b3ae9c196c376183b7dbf,,,,,,,,,,,,,,,,,,,,,,,a,1,"[""0.232"",""0.361"",""0.407"",""0.896""]","[1,1,0,1]",0,43,43,43,1,0,0,,,0,FALSE,1.5008,,,,,,,,,,,,,,,,,,,,,,,,,,,,,,
,615c5d74156deea8ee2aa187,001,2022-04-29_03h08.45.164,classification_task,2021.2.3,Win32,59.94844434,615c5d74156deea8ee2aa187,626b377229c10585ec392f8a,626b3ae9c196c376183b7dbf,,,,,,,,,,,,,,,,,,,,,,,l,1,"[""0.050"",""0.090"",""0.634"",""0.732""]","[1,1,1,0]",0,44,44,44,1,1,1,,,0,FALSE,1.0509,,,,,,,,,,,,,,,,,,,,,,,,,,,,,,
,615c5d74156deea8ee2aa187,001,2022-04-29_03h08.45.164,classification_task,2021.2.3,Win32,59.94844434,615c5d74156deea8ee2aa187,626b377229c10585ec392f8a,626b3ae9c196c376183b7dbf,,,,,,,,,,,,,,,,,,,,,,,a,1,"[""0.413"",""0.480"",""0.597"",""0.944""]","[0,1,1,1]",0,45,45,45,1,0,1,,,0,FALSE,2.4819,,,,,,,,,,,,,,,,,,,,,,,,,,,,,,
,615c5d74156deea8ee2aa187,001,2022-04-29_03h08.45.164,classification_task,2021.2.3,Win32,59.94844434,615c5d74156deea8ee2aa187,626b377229c10585ec392f8a,626b3ae9c196c376183b7dbf,,,,,,,,,,,,,,,,,,,,,,,a,1,"[""0.232"",""0.413"",""0.819"",""0.896""]","[1,0,1,1]",0,46,46,46,1,0,0,,,0,FALSE,6.0623,,,,,,,,,,,,,,,,,,,,,,,,,,,,,,
,615c5d74156deea8ee2aa187,001,2022-04-29_03h08.45.164,classification_task,2021.2.3,Win32,59.94844434,615c5d74156deea8ee2aa187,626b377229c10585ec392f8a,626b3ae9c196c376183b7dbf,,,,,,,,,,,,,,,,,,,,,,,l,1,"[""0.050"",""0.402"",""0.634"",""0.697""]","[1,0,1,1]",0,47,47,47,1,1,1,,,0,FALSE,2.6575,,,,,,,,,,,,,,,,,,,,,,,,,,,,,,
,615c5d74156deea8ee2aa187,001,2022-04-29_03h08.45.164,classification_task,2021.2.3,Win32,59.94844434,615c5d74156deea8ee2aa187,626b377229c10585ec392f8a,626b3ae9c196c376183b7dbf,,,,,,,,,,,,,,,,,,,,,,,a,1,"[""0.436"",""0.480"",""0.597"",""0.944""]","[0,1,1,1]",0,48,48,48,1,0,1,,,0,FALSE,5.5078,,,,,,,,,,,,,,,,,,,,,,,,,,,,,,
,615c5d74156deea8ee2aa187,001,2022-04-29_03h08.45.164,classification_task,2021.2.3,Win32,59.94844434,615c5d74156deea8ee2aa187,626b377229c10585ec392f8a,626b3ae9c196c376183b7dbf,,,,,,,,,,,,,,,,,,,,,,,a,1,"[""0.735"",""0.361"",""0.819"",""0.896""]","[0,1,1,1]",0,49,49,49,1,0,0,,,0,FALSE,1.4851,,,,,,,,,,,,,,,,,,,,,,,,,,,,,,
,615c5d74156deea8ee2aa187,001,2022-04-29_03h08.45.164,classification_task,2021.2.3,Win32,59.94844434,615c5d74156deea8ee2aa187,626b377229c10585ec392f8a,626b3ae9c196c376183b7dbf,,,,,,,,,,,,,,,,,,,,,,,a,0,"[""0.858"",""0.294"",""0.545"",""0.770""]","[0,1,1,1]",0,50,50,50,1,1,0,,,0,FALSE,1.2695,,,,,,,,,,,,,,,,,,,,,,,,,,,,,,
,615c5d74156deea8ee2aa187,001,2022-04-29_03h08.45.164,classification_task,2021.2.3,Win32,59.94844434,615c5d74156deea8ee2aa187,626b377229c10585ec392f8a,626b3ae9c196c376183b7dbf,,,,,,,,,,,,,,,,,,,,,,,l,1,"[""0.050"",""0.090"",""0.732"",""0.697""]","[1,1,0,1]",0,51,51,51,1,1,1,,,0,FALSE,0.8652,,,,,,,,,,,,,,,,,,,,,,,,,,,,,,
,615c5d74156deea8ee2aa187,001,2022-04-29_03h08.45.164,classification_task,2021.2.3,Win32,59.94844434,615c5d74156deea8ee2aa187,626b377229c10585ec392f8a,626b3ae9c196c376183b7dbf,,,,,,,,,,,,,,,,,,,,,,,a,1,"[""0.191"",""0.411"",""0.597"",""0.944""]","[1,0,1,1]",0,52,52,52,1,0,1,,,0,FALSE,1.1204,,,,,,,,,,,,,,,,,,,,,,,,,,,,,,
,615c5d74156deea8ee2aa187,001,2022-04-29_03h08.45.164,classification_task,2021.2.3,Win32,59.94844434,615c5d74156deea8ee2aa187,626b377229c10585ec392f8a,626b3ae9c196c376183b7dbf,,,,,,,,,,,,,,,,,,,,,,,a,0,"[""0.139"",""0.294"",""0.545"",""0.858""]","[1,1,1,0]",0,53,53,53,1,1,0,,,0,FALSE,1.6928,,,,,,,,,,,,,,,,,,,,,,,,,,,,,,
,615c5d74156deea8ee2aa187,001,2022-04-29_03h08.45.164,classification_task,2021.2.3,Win32,59.94844434,615c5d74156deea8ee2aa187,626b377229c10585ec392f8a,626b3ae9c196c376183b7dbf,,,,,,,,,,,,,,,,,,,,,,,a,1,"[""0.232"",""0.361"",""0.819"",""0.436""]","[1,1,1,0]",0,54,54,54,1,0,0,,,0,FALSE,2.1387,,,,,,,,,,,,,,,,,,,,,,,,,,,,,,
,615c5d74156deea8ee2aa187,001,2022-04-29_03h08.45.164,classification_task,2021.2.3,Win32,59.94844434,615c5d74156deea8ee2aa187,626b377229c10585ec392f8a,626b3ae9c196c376183b7dbf,,,,,,,,,,,,,,,,,,,,,,,a,1,"[""0.191"",""0.480"",""0.597"",""0.426""]","[1,1,1,0]",0,55,55,55,1,0,1,,,0,FALSE,1.8815,,,,,,,,,,,,,,,,,,,,,,,,,,,,,,
,615c5d74156deea8ee2aa187,001,2022-04-29_03h08.45.164,classification_task,2021.2.3,Win32,59.94844434,615c5d74156deea8ee2aa187,626b377229c10585ec392f8a,626b3ae9c196c376183b7dbf,,,,,,,,,,,,,,,,,,,,,,,l,1,"[""0.050"",""0.090"",""0.634"",""0.442""]","[1,1,1,0]",0,56,56,56,1,1,1,,,0,FALSE,1.0687,,,,,,,,,,,,,,,,,,,,,,,,,,,,,,
,615c5d74156deea8ee2aa187,001,2022-04-29_03h08.45.164,classification_task,2021.2.3,Win32,59.94844434,615c5d74156deea8ee2aa187,626b377229c10585ec392f8a,626b3ae9c196c376183b7dbf,,,,,,,,,,,,,,,,,,,,,,,a,1,"[""0.232"",""0.402"",""0.819"",""0.896""]","[1,0,1,1]",0,57,57,57,1,0,0,,,0,FALSE,1.4004,,,,,,,,,,,,,,,,,,,,,,,,,,,,,,
,615c5d74156deea8ee2aa187,001,2022-04-29_03h08.45.164,classification_task,2021.2.3,Win32,59.94844434,615c5d74156deea8ee2aa187,626b377229c10585ec392f8a,626b3ae9c196c376183b7dbf,,,,,,,,,,,,,,,,,,,,,,,l,1,"[""0.426"",""0.090"",""0.634"",""0.697""]","[0,1,1,1]",0,58,58,58,1,1,1,,,0,FALSE,1.322,,,,,,,,,,,,,,,,,,,,,,,,,,,,,,
,615c5d74156deea8ee2aa187,001,2022-04-29_03h08.45.164,classification_task,2021.2.3,Win32,59.94844434,615c5d74156deea8ee2aa187,626b377229c10585ec392f8a,626b3ae9c196c376183b7dbf,,,,,,,,,,,,,,,,,,,,,,,a,0,"[""0.139"",""0.442"",""0.545"",""0.770""]","[1,0,1,1]",0,59,59,59,1,1,0,,,0,FALSE,1.3036,,,,,,,,,,,,,,,,,,,,,,,,,,,,,,
,615c5d74156deea8ee2aa187,001,2022-04-29_03h08.45.164,classification_task,2021.2.3,Win32,59.94844434,615c5d74156deea8ee2aa187,626b377229c10585ec392f8a,626b3ae9c196c376183b7dbf,,,,,,,,,,,,,,,,,,,,,,,a,0,"[""0.139"",""0.294"",""0.412"",""0.770""]","[1,1,0,1]",0,60,60,60,1,1,0,,,0,FALSE,1.2231,,,,,,,,,,,,,,,,,,,,,,,,,,,,,,
,615c5d74156deea8ee2aa187,001,2022-04-29_03h08.45.164,classification_task,2021.2.3,Win32,59.94844434,615c5d74156deea8ee2aa187,626b377229c10585ec392f8a,626b3ae9c196c376183b7dbf,,,,,,,,,,,,,,,,,,,,,,,a,1,"[""0.191"",""0.480"",""0.426"",""0.944""]","[1,1,0,1]",0,61,61,61,1,0,1,,,0,FALSE,1.4865,,,,,,,,,,,,,,,,,,,,,,,,,,,,,,
,615c5d74156deea8ee2aa187,001,2022-04-29_03h08.45.164,classification_task,2021.2.3,Win32,59.94844434,615c5d74156deea8ee2aa187,626b377229c10585ec392f8a,626b3ae9c196c376183b7dbf,,,,,,,,,,,,,,,,,,,,,,,a,1,"[""0.232"",""0.361"",""0.421"",""0.896""]","[1,1,0,1]",0,62,62,62,1,0,0,,,0,FALSE,0.9063,,,,,,,,,,,,,,,,,,,,,,,,,,,,,,
,615c5d74156deea8ee2aa187,001,2022-04-29_03h08.45.164,classification_task,2021.2.3,Win32,59.94844434,615c5d74156deea8ee2aa187,626b377229c10585ec392f8a,626b3ae9c196c376183b7dbf,,,,,,,,,,,,,,,,,,,,,,,l,1,"[""0.050"",""0.735"",""0.634"",""0.697""]","[1,0,1,1]",0,63,63,63,1,1,1,,,0,FALSE,1.3828,,,,,,,,,,,,,,,,,,,,,,,,,,,,,,
,615c5d74156deea8ee2aa187,001,2022-04-29_03h08.45.164,classification_task,2021.2.3,Win32,59.94844434,615c5d74156deea8ee2aa187,626b377229c10585ec392f8a,626b3ae9c196c376183b7dbf,,,,,,,,,,,,,,,,,,,,,,,,,,,,,,,,,,,,,,,0, ,,0,4.448853616,204.4421,0,2,2,2,1,2,3,,,,,,,,,,,,,,,,,
,615c5d74156deea8ee2aa187,001,2022-04-29_03h08.45.164,classification_task,2021.2.3,Win32,59.94844434,615c5d74156deea8ee2aa187,626b377229c10585ec392f8a,626b3ae9c196c376183b7dbf,,,,,,,,,,,,,,,,,,,,,,,,,,,,,,,,,,,,,,,1,  ,,0,9.891424162,208.5511,0,2,2,2,1,2,3,,,,,,,,,,,,,,,,,
,615c5d74156deea8ee2aa187,001,2022-04-29_03h08.45.164,classification_task,2021.2.3,Win32,59.94844434,615c5d74156deea8ee2aa187,626b377229c10585ec392f8a,626b3ae9c196c376183b7dbf,,,,,,,,,,,,,,,,,,,,,,,,,,,,,,,,,,,,,,,2,  ,,0,8.89247134,211.451,0,2,2,2,1,2,3,,,,,,,,,,,,,,,,,
,615c5d74156deea8ee2aa187,001,2022-04-29_03h08.45.164,classification_task,2021.2.3,Win32,59.94844434,615c5d74156deea8ee2aa187,626b377229c10585ec392f8a,626b3ae9c196c376183b7dbf,,,,,,,,,,,,,,,,,,,,,,,,,,,,,,,,,,,,,,,,,,,,,0,2,2,2,1,,3,,,,,,,,,,,,,,,,,
,615c5d74156deea8ee2aa187,001,2022-04-29_03h08.45.164,classification_task,2021.2.3,Win32,59.94844434,615c5d74156deea8ee2aa187,626b377229c10585ec392f8a,626b3ae9c196c376183b7dbf,,,,,,,,,,,,,,,,,,,,,,,,,,,,,,,,,,,,,,,,,,,,,,,,,,,,,I believe the aid is a competent performer,,0.7,0,4,1214.7384,0,0,0,0,1,0,,,,
,615c5d74156deea8ee2aa187,001,2022-04-29_03h08.45.164,classification_task,2021.2.3,Win32,59.94844434,615c5d74156deea8ee2aa187,626b377229c10585ec392f8a,626b3ae9c196c376183b7dbf,,,,,,,,,,,,,,,,,,,,,,,,,,,,,,,,,,,,,,,,,,,,,,,,,,,,,I trust the aid,,0.7,0,2,1219.3026,0,0,0,0,1,0,,,,
,615c5d74156deea8ee2aa187,001,2022-04-29_03h08.45.164,classification_task,2021.2.3,Win32,59.94844434,615c5d74156deea8ee2aa187,626b377229c10585ec392f8a,626b3ae9c196c376183b7dbf,,,,,,,,,,,,,,,,,,,,,,,,,,,,,,,,,,,,,,,,,,,,,,,,,,,,,I have confidence in the advice given by the aid,,0.7,0,2,1228.4726,0,0,0,0,1,0,,,,
,615c5d74156deea8ee2aa187,001,2022-04-29_03h08.45.164,classification_task,2021.2.3,Win32,59.94844434,615c5d74156deea8ee2aa187,626b377229c10585ec392f8a,626b3ae9c196c376183b7dbf,,,,,,,,,,,,,,,,,,,,,,,,,,,,,,,,,,,,,,,,,,,,,,,,,,,,,I can depend on the aid,,0.7,0,2,1232.9411,0,0,0,0,1,0,,,,
,615c5d74156deea8ee2aa187,001,2022-04-29_03h08.45.164,classification_task,2021.2.3,Win32,59.94844434,615c5d74156deea8ee2aa187,626b377229c10585ec392f8a,626b3ae9c196c376183b7dbf,,,,,,,,,,,,,,,,,,,,,,,,,,,,,,,,,,,,,,,,,,,,,,,,,,,,,I can rely on the aid to behave in consistent ways,,0.7,0,1,1236.8873,0,0,0,0,1,0,,,,
,615c5d74156deea8ee2aa187,001,2022-04-29_03h08.45.164,classification_task,2021.2.3,Win32,59.94844434,615c5d74156deea8ee2aa187,626b377229c10585ec392f8a,626b3ae9c196c376183b7dbf,,,,,,,,,,,,,,,,,,,,,,,,,,,,,,,,,,,,,,,,,,,,,,,,,,,,,I can rely on the aid to do its best every time I take its advice,,0.7,0,1,1242.5341,0,0,0,0,1,0,,,,
,615c5d74156deea8ee2aa187,001,2022-04-29_03h08.45.164,classification_task,2021.2.3,Win32,59.94844434,615c5d74156deea8ee2aa187,626b377229c10585ec392f8a,626b3ae9c196c376183b7dbf,,,,,,,,,,,,,,,,,,,,,,,,,,,,,,,,,,,,,,,,,,,,,,,,,,,,,"On trials you completed with assistance from the aid, how frequently did you think the aid was correct?",,0.7,0,50%,,0,0,0,0,1,0,,,,
,615c5d74156deea8ee2aa187,001,2022-04-29_03h08.45.164,classification_task,2021.2.3,Win32,59.94844434,615c5d74156deea8ee2aa187,626b377229c10585ec392f8a,626b3ae9c196c376183b7dbf,,,,,,,,,,,,,,,,,,,,,,,,,,,,,,,,,,,,,,,,,,,,,,,,,,,,,"On trials you completed without the aid, how frequently did you think you were correct?",,0.7,0,70%,,0,0,0,0,1,0,,,,
,615c5d74156deea8ee2aa187,001,2022-04-29_03h08.45.164,classification_task,2021.2.3,Win32,59.94844434,615c5d74156deea8ee2aa187,626b377229c10585ec392f8a,626b3ae9c196c376183b7dbf,,,,,,,,,,,,,,,,,,,,,,,,,,,,,,,,,,,,,,,,,,,,,,,,,,,,,,,,,,,0,0,0,0,1,,,,,
,615c5d74156deea8ee2aa187,001,2022-04-29_03h08.45.164,classification_task,2021.2.3,Win32,59.94844434,615c5d74156deea8ee2aa187,626b377229c10585ec392f8a,626b3ae9c196c376183b7dbf,,,,,,,,,,,,,,,,,,,,,,,,,,,,,,,,,,,,,,,,,,,,,,,,,,,,,,,,,,,,,,,,,space,18.3878,1294.7291,
,615c5d74156deea8ee2aa187,001,2022-04-29_03h08.45.164,classification_task,2021.2.3,Win32,59.94844434,615c5d74156deea8ee2aa187,626b377229c10585ec392f8a,626b3ae9c196c376183b7dbf,,,,,,,,,,,,,,,,,,,,,,,,,,,,,,,,,,,,,,,,,,,,,,,,,,,,,,,,,,,,,,,,,,,,"Mozilla/5.0 (Windows NT 10.0; Win64; x64) AppleWebKit/537.36 (KHTML, like Gecko) Chrome/100.0.4896.88 Safari/537.36"
