usingWebGL,participant,session,date,expName,psychopyVersion,OS,frameRate,PROLIFIC_PID,STUDY_ID,SESSION_ID,signatures_friend,signatures_foe,band_ranges_top,band_ranges_bottom,formitemText,formtype,formundefined,formitemWidth,formindex,formresponse,formrt,key_resp_2.keys,key_resp_2.rt,tute_resp.keys,tute_resp.rt,tutorial.thisRepN,tutorial.thisTrialN,tutorial.thisN,tutorial.thisIndex,tutorial.ran,key_resp_4.keys,key_resp_4.rt,key_resp.keys,key_resp.corr,key_resp.rt,lines_presented,is_signal_presented,trials.thisRepN,trials.thisTrialN,trials.thisN,trials.thisIndex,trials.ran,vessel,active_band,lines,is_signal,supported_pos,catch_trial,debrief_formindex,debrief_formitemText,debrief_formtype,debrief_formitemWidth,debrief_formresponse,debrief_formrt,phases.thisRepN,phases.thisTrialN,phases.thisN,phases.thisIndex,phases.ran,phases.order,phase,key_resp_3.keys,trustitemText,trusttype,trustitemWidth,trustindex,trustresponse,trustrt,support_status.thisRepN,support_status.thisTrialN,support_status.thisN,support_status.thisIndex,support_status.ran,support_status.order,key_resp_5.keys,key_resp_5.rt,globalClockTime,userAgent
TRUE,615f6dca1da7995918234a64,001,2022-04-28_20h06.02.830,classification_task,2021.2.3,MacIntel,59.99880002,615f6dca1da7995918234a64,626b377229c10585ec392f8a,626b39ebd2ec00a3a3c1f203,,,,,,,,,,,,,,,,,,,,,,,,,,,,,,,,,,,,,,,,,,,,,,,,,,,,,,,,,,,,,,,,,,,,
,615f6dca1da7995918234a64,001,2022-04-28_20h06.02.830,classification_task,2021.2.3,MacIntel,59.99880002,615f6dca1da7995918234a64,626b377229c10585ec392f8a,626b39ebd2ec00a3a3c1f203,"[[""0.309"",""0.534"",""0.848"",""0.926""],[""0.272"",""0.393"",""0.738"",""0.960""]]","[[""0.096"",""0.195"",""0.589"",""0.691""],[""0.151"",""0.356"",""0.460"",""0.799""]]","[1,10]","[100,1000]",Video game experience,,,0.7,0,,,,,,,,,,,,,,,,,,,,,,,,,,,,,,,,,,,,,,,,,,,,,,,,,,,,,,,,,,,
,615f6dca1da7995918234a64,001,2022-04-28_20h06.02.830,classification_task,2021.2.3,MacIntel,59.99880002,615f6dca1da7995918234a64,626b377229c10585ec392f8a,626b39ebd2ec00a3a3c1f203,,,,,Approximately how many hours did you spend playing video games in the last week?,,,0.7,0,0,,,,,,,,,,,,,,,,,,,,,,,,,,,,,,,,,,,,,,,,,,,,,,,,,,,,,,,,,,
,615f6dca1da7995918234a64,001,2022-04-28_20h06.02.830,classification_task,2021.2.3,MacIntel,59.99880002,615f6dca1da7995918234a64,626b377229c10585ec392f8a,626b39ebd2ec00a3a3c1f203,,,,,"Which game did you play the most this year? (Enter ""None"" if you didn't play any)",,,0.7,0,None,,,,,,,,,,,,,,,,,,,,,,,,,,,,,,,,,,,,,,,,,,,,,,,,,,,,,,,,,,
,615f6dca1da7995918234a64,001,2022-04-28_20h06.02.830,classification_task,2021.2.3,MacIntel,59.99880002,615f6dca1da7995918234a64,626b377229c10585ec392f8a,626b39ebd2ec00a3a3c1f203,,,,,Visual perception,,,0.7,0,,,,,,,,,,,,,,,,,,,,,,,,,,,,,,,,,,,,,,,,,,,,,,,,,,,,,,,,,,,
,615f6dca1da7995918234a64,001,2022-04-28_20h06.02.830,classification_task,2021.2.3,MacIntel,59.99880002,615f6dca1da7995918234a64,626b377229c10585ec392f8a,626b39ebd2ec00a3a3c1f203,,,,,Do you have any form of color blindness?,,,0.7,0,No,15.9974,,,,,,,,,,,,,,,,,,,,,,,,,,,,,,,,,,,,,,,,,,,,,,,,,,,,,,,,,
,615f6dca1da7995918234a64,001,2022-04-28_20h06.02.830,classification_task,2021.2.3,MacIntel,59.99880002,615f6dca1da7995918234a64,626b377229c10585ec392f8a,626b39ebd2ec00a3a3c1f203,,,,,Do you use software to change the colour temperature of your screen (e.g. f.lux)?,,,0.7,0,No,22.2245,,,,,,,,,,,,,,,,,,,,,,,,,,,,,,,,,,,,,,,,,,,,,,,,,,,,,,,,,
,615f6dca1da7995918234a64,001,2022-04-28_20h06.02.830,classification_task,2021.2.3,MacIntel,59.99880002,615f6dca1da7995918234a64,626b377229c10585ec392f8a,626b39ebd2ec00a3a3c1f203,,,,,,,,,,,,space,46.3151,space,9.1026,0,0,0,0,1,,,,,,,,,,,,,,,,,,,,,,,,,,,,,,,,,,,,,,,,,,,,,,,,
,615f6dca1da7995918234a64,001,2022-04-28_20h06.02.830,classification_task,2021.2.3,MacIntel,59.99880002,615f6dca1da7995918234a64,626b377229c10585ec392f8a,626b39ebd2ec00a3a3c1f203,,,,,,,,,,,,,,space,11.2912,1,0,1,0,1,,,,,,,,,,,,,,,,,,,,,,,,,,,,,,,,,,,,,,,,,,,,,,,,
,615f6dca1da7995918234a64,001,2022-04-28_20h06.02.830,classification_task,2021.2.3,MacIntel,59.99880002,615f6dca1da7995918234a64,626b377229c10585ec392f8a,626b39ebd2ec00a3a3c1f203,,,,,,,,,,,,,,space,38.4728,2,0,2,0,1,,,,,,,,,,,,,,,,,,,,,,,,,,,,,,,,,,,,,,,,,,,,,,,,
,615f6dca1da7995918234a64,001,2022-04-28_20h06.02.830,classification_task,2021.2.3,MacIntel,59.99880002,615f6dca1da7995918234a64,626b377229c10585ec392f8a,626b39ebd2ec00a3a3c1f203,,,,,,,,,,,,,,space,12.2406,3,0,3,0,1,,,,,,,,,,,,,,,,,,,,,,,,,,,,,,,,,,,,,,,,,,,,,,,,
,615f6dca1da7995918234a64,001,2022-04-28_20h06.02.830,classification_task,2021.2.3,MacIntel,59.99880002,615f6dca1da7995918234a64,626b377229c10585ec392f8a,626b39ebd2ec00a3a3c1f203,,,,,,,,,,,,,,space,16.7096,4,0,4,0,1,,,,,,,,,,,,,,,,,,,,,,,,,,,,,,,,,,,,,,,,,,,,,,,,
,615f6dca1da7995918234a64,001,2022-04-28_20h06.02.830,classification_task,2021.2.3,MacIntel,59.99880002,615f6dca1da7995918234a64,626b377229c10585ec392f8a,626b39ebd2ec00a3a3c1f203,,,,,,,,,,,,,,,,,,,,,space,22.1371,a,1,6.4831,"[""0.886"",""0.393"",""0.738"",""0.960""]","[0,1,1,1]",0,0,0,0,1,0,1,,,0,FALSE,,,,,,,,,,,,,,,,,,,,,,,,,,,,,,
,615f6dca1da7995918234a64,001,2022-04-28_20h06.02.830,classification_task,2021.2.3,MacIntel,59.99880002,615f6dca1da7995918234a64,626b377229c10585ec392f8a,626b39ebd2ec00a3a3c1f203,,,,,,,,,,,,,,,,,,,,,,,a,1,4.3762,"[""0.309"",""0.534"",""0.886"",""0.926""]","[1,1,0,1]",0,1,1,1,1,0,0,,,0,FALSE,,,,,,,,,,,,,,,,,,,,,,,,,,,,,,
,615f6dca1da7995918234a64,001,2022-04-28_20h06.02.830,classification_task,2021.2.3,MacIntel,59.99880002,615f6dca1da7995918234a64,626b377229c10585ec392f8a,626b39ebd2ec00a3a3c1f203,,,,,,,,,,,,,,,,,,,,,,,l,1,2.2865,"[""0.096"",""0.888"",""0.589"",""0.691""]","[1,0,1,1]",0,2,2,2,1,1,0,,,0,FALSE,,,,,,,,,,,,,,,,,,,,,,,,,,,,,,
,615f6dca1da7995918234a64,001,2022-04-28_20h06.02.830,classification_task,2021.2.3,MacIntel,59.99880002,615f6dca1da7995918234a64,626b377229c10585ec392f8a,626b39ebd2ec00a3a3c1f203,,,,,,,,,,,,,,,,,,,,,,,l,1,1.789,"[""0.096"",""0.195"",""0.031"",""0.691""]","[1,1,0,1]",0,3,3,3,1,1,0,,,0,FALSE,,,,,,,,,,,,,,,,,,,,,,,,,,,,,,
,615f6dca1da7995918234a64,001,2022-04-28_20h06.02.830,classification_task,2021.2.3,MacIntel,59.99880002,615f6dca1da7995918234a64,626b377229c10585ec392f8a,626b39ebd2ec00a3a3c1f203,,,,,,,,,,,,,,,,,,,,,,,l,1,2.2789,"[""0.151"",""0.061"",""0.460"",""0.799""]","[1,0,1,1]",0,4,4,4,1,1,1,,,0,FALSE,,,,,,,,,,,,,,,,,,,,,,,,,,,,,,
,615f6dca1da7995918234a64,001,2022-04-28_20h06.02.830,classification_task,2021.2.3,MacIntel,59.99880002,615f6dca1da7995918234a64,626b377229c10585ec392f8a,626b39ebd2ec00a3a3c1f203,,,,,,,,,,,,,,,,,,,,,,,l,0,4.1884,"[""0.309"",""0.031"",""0.848"",""0.926""]","[1,0,1,1]",0,5,5,5,1,0,0,,,0,FALSE,,,,,,,,,,,,,,,,,,,,,,,,,,,,,,
,615f6dca1da7995918234a64,001,2022-04-28_20h06.02.830,classification_task,2021.2.3,MacIntel,59.99880002,615f6dca1da7995918234a64,626b377229c10585ec392f8a,626b39ebd2ec00a3a3c1f203,,,,,,,,,,,,,,,,,,,,,,,l,1,4.8223,"[""0.096"",""0.195"",""0.589"",""0.031""]","[1,1,1,0]",0,6,6,6,1,1,0,,,0,FALSE,,,,,,,,,,,,,,,,,,,,,,,,,,,,,,
,615f6dca1da7995918234a64,001,2022-04-28_20h06.02.830,classification_task,2021.2.3,MacIntel,59.99880002,615f6dca1da7995918234a64,626b377229c10585ec392f8a,626b39ebd2ec00a3a3c1f203,,,,,,,,,,,,,,,,,,,,,,,l,1,4.778,"[""0.151"",""0.356"",""0.054"",""0.799""]","[1,1,0,1]",0,7,7,7,1,1,1,,,0,FALSE,,,,,,,,,,,,,,,,,,,,,,,,,,,,,,
,615f6dca1da7995918234a64,001,2022-04-28_20h06.02.830,classification_task,2021.2.3,MacIntel,59.99880002,615f6dca1da7995918234a64,626b377229c10585ec392f8a,626b39ebd2ec00a3a3c1f203,,,,,,,,,,,,,,,,,,,,,,,l,1,4.1705,"[""0.044"",""0.356"",""0.460"",""0.799""]","[0,1,1,1]",0,8,8,8,1,1,1,,,0,FALSE,,,,,,,,,,,,,,,,,,,,,,,,,,,,,,
,615f6dca1da7995918234a64,001,2022-04-28_20h06.02.830,classification_task,2021.2.3,MacIntel,59.99880002,615f6dca1da7995918234a64,626b377229c10585ec392f8a,626b39ebd2ec00a3a3c1f203,,,,,,,,,,,,,,,,,,,,,,,l,1,2.472,"[""0.042"",""0.195"",""0.589"",""0.691""]","[0,1,1,1]",0,9,9,9,1,1,0,,,0,FALSE,,,,,,,,,,,,,,,,,,,,,,,,,,,,,,
,615f6dca1da7995918234a64,001,2022-04-28_20h06.02.830,classification_task,2021.2.3,MacIntel,59.99880002,615f6dca1da7995918234a64,626b377229c10585ec392f8a,626b39ebd2ec00a3a3c1f203,,,,,,,,,,,,,,,,,,,,,,,a,1,2.8621,"[""0.272"",""0.495"",""0.738"",""0.960""]","[1,0,1,1]",0,10,10,10,1,0,1,,,0,FALSE,,,,,,,,,,,,,,,,,,,,,,,,,,,,,,
,615f6dca1da7995918234a64,001,2022-04-28_20h06.02.830,classification_task,2021.2.3,MacIntel,59.99880002,615f6dca1da7995918234a64,626b377229c10585ec392f8a,626b39ebd2ec00a3a3c1f203,,,,,,,,,,,,,,,,,,,,,,,a,1,2.4236,"[""0.309"",""0.534"",""0.848"",""0.640""]","[1,1,1,0]",0,11,11,11,1,0,0,,,0,FALSE,,,,,,,,,,,,,,,,,,,,,,,,,,,,,,
,615f6dca1da7995918234a64,001,2022-04-28_20h06.02.830,classification_task,2021.2.3,MacIntel,59.99880002,615f6dca1da7995918234a64,626b377229c10585ec392f8a,626b39ebd2ec00a3a3c1f203,,,,,,,,,,,,,,,,,,,,,,,l,1,1.868,"[""0.151"",""0.356"",""0.460"",""0.888""]","[1,1,1,0]",0,12,12,12,1,1,1,,,0,FALSE,,,,,,,,,,,,,,,,,,,,,,,,,,,,,,
,615f6dca1da7995918234a64,001,2022-04-28_20h06.02.830,classification_task,2021.2.3,MacIntel,59.99880002,615f6dca1da7995918234a64,626b377229c10585ec392f8a,626b39ebd2ec00a3a3c1f203,,,,,,,,,,,,,,,,,,,,,,,a,1,2.2239,"[""0.272"",""0.393"",""0.738"",""0.886""]","[1,1,1,0]",0,13,13,13,1,0,1,,,0,FALSE,,,,,,,,,,,,,,,,,,,,,,,,,,,,,,
,615f6dca1da7995918234a64,001,2022-04-28_20h06.02.830,classification_task,2021.2.3,MacIntel,59.99880002,615f6dca1da7995918234a64,626b377229c10585ec392f8a,626b39ebd2ec00a3a3c1f203,,,,,,,,,,,,,,,,,,,,,,,a,1,2.5155,"[""0.886"",""0.534"",""0.848"",""0.926""]","[0,1,1,1]",0,14,14,14,1,0,0,,,0,FALSE,,,,,,,,,,,,,,,,,,,,,,,,,,,,,,
,615f6dca1da7995918234a64,001,2022-04-28_20h06.02.830,classification_task,2021.2.3,MacIntel,59.99880002,615f6dca1da7995918234a64,626b377229c10585ec392f8a,626b39ebd2ec00a3a3c1f203,,,,,,,,,,,,,,,,,,,,,,,a,1,2.7316,"[""0.272"",""0.393"",""0.640"",""0.960""]","[1,1,0,1]",0,15,15,15,1,0,1,,,0,FALSE,,,,,,,,,,,,,,,,,,,,,,,,,,,,,,
,615f6dca1da7995918234a64,001,2022-04-28_20h06.02.830,classification_task,2021.2.3,MacIntel,59.99880002,615f6dca1da7995918234a64,626b377229c10585ec392f8a,626b39ebd2ec00a3a3c1f203,,,,,,,,,,,,,,,,,,,,,,,l,1,2.5077,"[""0.495"",""0.356"",""0.460"",""0.799""]","[0,1,1,1]",0,16,16,16,1,1,1,,,0,FALSE,,,,,,,,,,,,,,,,,,,,,,,,,,,,,,
,615f6dca1da7995918234a64,001,2022-04-28_20h06.02.830,classification_task,2021.2.3,MacIntel,59.99880002,615f6dca1da7995918234a64,626b377229c10585ec392f8a,626b39ebd2ec00a3a3c1f203,,,,,,,,,,,,,,,,,,,,,,,l,1,1.8715,"[""0.096"",""0.195"",""0.589"",""0.042""]","[1,1,1,0]",0,17,17,17,1,1,0,,,0,FALSE,,,,,,,,,,,,,,,,,,,,,,,,,,,,,,
,615f6dca1da7995918234a64,001,2022-04-28_20h06.02.830,classification_task,2021.2.3,MacIntel,59.99880002,615f6dca1da7995918234a64,626b377229c10585ec392f8a,626b39ebd2ec00a3a3c1f203,,,,,,,,,,,,,,,,,,,,,,,a,1,3.3818,"[""0.309"",""0.651"",""0.848"",""0.926""]","[1,0,1,1]",0,18,18,18,1,0,0,,,0,FALSE,,,,,,,,,,,,,,,,,,,,,,,,,,,,,,
,615f6dca1da7995918234a64,001,2022-04-28_20h06.02.830,classification_task,2021.2.3,MacIntel,59.99880002,615f6dca1da7995918234a64,626b377229c10585ec392f8a,626b39ebd2ec00a3a3c1f203,,,,,,,,,,,,,,,,,,,,,,,a,1,3.5991,"[""0.272"",""0.393"",""0.651"",""0.960""]","[1,1,0,1]",0,19,19,19,1,0,1,,,0,FALSE,,,,,,,,,,,,,,,,,,,,,,,,,,,,,,
,615f6dca1da7995918234a64,001,2022-04-28_20h06.02.830,classification_task,2021.2.3,MacIntel,59.99880002,615f6dca1da7995918234a64,626b377229c10585ec392f8a,626b39ebd2ec00a3a3c1f203,,,,,,,,,,,,,,,,,,,,,,,l,1,2.1328,"[""0.096"",""0.631"",""0.589"",""0.691""]","[1,0,1,1]",0,20,20,20,1,1,0,,,0,FALSE,,,,,,,,,,,,,,,,,,,,,,,,,,,,,,
,615f6dca1da7995918234a64,001,2022-04-28_20h06.02.830,classification_task,2021.2.3,MacIntel,59.99880002,615f6dca1da7995918234a64,626b377229c10585ec392f8a,626b39ebd2ec00a3a3c1f203,,,,,,,,,,,,,,,,,,,,,,,a,1,1.976,"[""0.272"",""0.495"",""0.738"",""0.960""]","[1,0,1,1]",0,21,21,21,1,0,1,,,0,FALSE,,,,,,,,,,,,,,,,,,,,,,,,,,,,,,
,615f6dca1da7995918234a64,001,2022-04-28_20h06.02.830,classification_task,2021.2.3,MacIntel,59.99880002,615f6dca1da7995918234a64,626b377229c10585ec392f8a,626b39ebd2ec00a3a3c1f203,,,,,,,,,,,,,,,,,,,,,,,l,1,2.8412,"[""0.096"",""0.195"",""0.640"",""0.691""]","[1,1,0,1]",0,22,22,22,1,1,0,,,0,FALSE,,,,,,,,,,,,,,,,,,,,,,,,,,,,,,
,615f6dca1da7995918234a64,001,2022-04-28_20h06.02.830,classification_task,2021.2.3,MacIntel,59.99880002,615f6dca1da7995918234a64,626b377229c10585ec392f8a,626b39ebd2ec00a3a3c1f203,,,,,,,,,,,,,,,,,,,,,,,l,0,1.5199,"[""0.309"",""0.534"",""0.848"",""0.042""]","[1,1,1,0]",0,23,23,23,1,0,0,,,0,FALSE,,,,,,,,,,,,,,,,,,,,,,,,,,,,,,
,615f6dca1da7995918234a64,001,2022-04-28_20h06.02.830,classification_task,2021.2.3,MacIntel,59.99880002,615f6dca1da7995918234a64,626b377229c10585ec392f8a,626b39ebd2ec00a3a3c1f203,,,,,,,,,,,,,,,,,,,,,,,l,0,2.4039,"[""0.309"",""0.534"",""0.051"",""0.926""]","[1,1,0,1]",0,24,24,24,1,0,0,,,0,FALSE,,,,,,,,,,,,,,,,,,,,,,,,,,,,,,
,615f6dca1da7995918234a64,001,2022-04-28_20h06.02.830,classification_task,2021.2.3,MacIntel,59.99880002,615f6dca1da7995918234a64,626b377229c10585ec392f8a,626b39ebd2ec00a3a3c1f203,,,,,,,,,,,,,,,,,,,,,,,a,1,2.5032,"[""0.272"",""0.393"",""0.738"",""0.651""]","[1,1,1,0]",0,25,25,25,1,0,1,,,0,FALSE,,,,,,,,,,,,,,,,,,,,,,,,,,,,,,
,615f6dca1da7995918234a64,001,2022-04-28_20h06.02.830,classification_task,2021.2.3,MacIntel,59.99880002,615f6dca1da7995918234a64,626b377229c10585ec392f8a,626b39ebd2ec00a3a3c1f203,,,,,,,,,,,,,,,,,,,,,,,a,1,2.8257,"[""0.495"",""0.534"",""0.848"",""0.926""]","[0,1,1,1]",0,26,26,26,1,0,0,,,0,FALSE,,,,,,,,,,,,,,,,,,,,,,,,,,,,,,
,615f6dca1da7995918234a64,001,2022-04-28_20h06.02.830,classification_task,2021.2.3,MacIntel,59.99880002,615f6dca1da7995918234a64,626b377229c10585ec392f8a,626b39ebd2ec00a3a3c1f203,,,,,,,,,,,,,,,,,,,,,,,a,1,3.37,"[""0.031"",""0.393"",""0.738"",""0.960""]","[0,1,1,1]",0,27,27,27,1,0,1,,,0,FALSE,,,,,,,,,,,,,,,,,,,,,,,,,,,,,,
,615f6dca1da7995918234a64,001,2022-04-28_20h06.02.830,classification_task,2021.2.3,MacIntel,59.99880002,615f6dca1da7995918234a64,626b377229c10585ec392f8a,626b39ebd2ec00a3a3c1f203,,,,,,,,,,,,,,,,,,,,,,,l,1,2.5888,"[""0.151"",""0.356"",""0.460"",""0.651""]","[1,1,1,0]",0,28,28,28,1,1,1,,,0,FALSE,,,,,,,,,,,,,,,,,,,,,,,,,,,,,,
,615f6dca1da7995918234a64,001,2022-04-28_20h06.02.830,classification_task,2021.2.3,MacIntel,59.99880002,615f6dca1da7995918234a64,626b377229c10585ec392f8a,626b39ebd2ec00a3a3c1f203,,,,,,,,,,,,,,,,,,,,,,,l,1,1.9083,"[""0.151"",""0.356"",""0.636"",""0.799""]","[1,1,0,1]",0,29,29,29,1,1,1,,,0,FALSE,,,,,,,,,,,,,,,,,,,,,,,,,,,,,,
,615f6dca1da7995918234a64,001,2022-04-28_20h06.02.830,classification_task,2021.2.3,MacIntel,59.99880002,615f6dca1da7995918234a64,626b377229c10585ec392f8a,626b39ebd2ec00a3a3c1f203,,,,,,,,,,,,,,,,,,,,,,,l,1,2.5544,"[""0.151"",""0.041"",""0.460"",""0.799""]","[1,0,1,1]",0,30,30,30,1,1,1,,,0,FALSE,,,,,,,,,,,,,,,,,,,,,,,,,,,,,,
,615f6dca1da7995918234a64,001,2022-04-28_20h06.02.830,classification_task,2021.2.3,MacIntel,59.99880002,615f6dca1da7995918234a64,626b377229c10585ec392f8a,626b39ebd2ec00a3a3c1f203,,,,,,,,,,,,,,,,,,,,,,,l,1,2.3624,"[""0.061"",""0.195"",""0.589"",""0.691""]","[0,1,1,1]",0,31,31,31,1,1,0,,,0,FALSE,,,,,,,,,,,,,,,,,,,,,,,,,,,,,,
,615f6dca1da7995918234a64,001,2022-04-28_20h06.02.830,classification_task,2021.2.3,MacIntel,59.99880002,615f6dca1da7995918234a64,626b377229c10585ec392f8a,626b39ebd2ec00a3a3c1f203,,,,,,,,,,,,,,,,,,,,,,,l,0,4.4528,"[""0.309"",""0.886"",""0.848"",""0.926""]","[1,0,1,1]",0,32,32,32,1,0,0,,,0,FALSE,,,,,,,,,,,,,,,,,,,,,,,,,,,,,,
,615f6dca1da7995918234a64,001,2022-04-28_20h06.02.830,classification_task,2021.2.3,MacIntel,59.99880002,615f6dca1da7995918234a64,626b377229c10585ec392f8a,626b39ebd2ec00a3a3c1f203,,,,,,,,,,,,,,,,,,,,,,,a,1,3.3932,"[""0.655"",""0.393"",""0.738"",""0.960""]","[0,1,1,1]",0,33,33,33,1,0,1,,,0,FALSE,,,,,,,,,,,,,,,,,,,,,,,,,,,,,,
,615f6dca1da7995918234a64,001,2022-04-28_20h06.02.830,classification_task,2021.2.3,MacIntel,59.99880002,615f6dca1da7995918234a64,626b377229c10585ec392f8a,626b39ebd2ec00a3a3c1f203,,,,,,,,,,,,,,,,,,,,,,,a,1,1.8526,"[""0.272"",""0.882"",""0.738"",""0.960""]","[1,0,1,1]",0,34,34,34,1,0,1,,,0,FALSE,,,,,,,,,,,,,,,,,,,,,,,,,,,,,,
,615f6dca1da7995918234a64,001,2022-04-28_20h06.02.830,classification_task,2021.2.3,MacIntel,59.99880002,615f6dca1da7995918234a64,626b377229c10585ec392f8a,626b39ebd2ec00a3a3c1f203,,,,,,,,,,,,,,,,,,,,,,,a,1,1.0348,"[""0.272"",""0.393"",""0.738"",""0.054""]","[1,1,1,0]",0,35,35,35,1,0,1,,,0,FALSE,,,,,,,,,,,,,,,,,,,,,,,,,,,,,,
,615f6dca1da7995918234a64,001,2022-04-28_20h06.02.830,classification_task,2021.2.3,MacIntel,59.99880002,615f6dca1da7995918234a64,626b377229c10585ec392f8a,626b39ebd2ec00a3a3c1f203,,,,,,,,,,,,,,,,,,,,,,,l,1,0.9003,"[""0.096"",""0.195"",""0.031"",""0.691""]","[1,1,0,1]",0,36,36,36,1,1,0,,,0,FALSE,,,,,,,,,,,,,,,,,,,,,,,,,,,,,,
,615f6dca1da7995918234a64,001,2022-04-28_20h06.02.830,classification_task,2021.2.3,MacIntel,59.99880002,615f6dca1da7995918234a64,626b377229c10585ec392f8a,626b39ebd2ec00a3a3c1f203,,,,,,,,,,,,,,,,,,,,,,,l,1,1.0015,"[""0.096"",""0.054"",""0.589"",""0.691""]","[1,0,1,1]",0,37,37,37,1,1,0,,,0,FALSE,,,,,,,,,,,,,,,,,,,,,,,,,,,,,,
,615f6dca1da7995918234a64,001,2022-04-28_20h06.02.830,classification_task,2021.2.3,MacIntel,59.99880002,615f6dca1da7995918234a64,626b377229c10585ec392f8a,626b39ebd2ec00a3a3c1f203,,,,,,,,,,,,,,,,,,,,,,,l,0,0.5503,"[""0.309"",""0.534"",""0.631"",""0.926""]","[1,1,0,1]",0,38,38,38,1,0,0,,,0,FALSE,,,,,,,,,,,,,,,,,,,,,,,,,,,,,,
,615f6dca1da7995918234a64,001,2022-04-28_20h06.02.830,classification_task,2021.2.3,MacIntel,59.99880002,615f6dca1da7995918234a64,626b377229c10585ec392f8a,626b39ebd2ec00a3a3c1f203,,,,,,,,,,,,,,,,,,,,,,,a,0,0.7526,"[""0.151"",""0.356"",""0.655"",""0.799""]","[1,1,0,1]",0,39,39,39,1,1,1,,,0,FALSE,,,,,,,,,,,,,,,,,,,,,,,,,,,,,,
,615f6dca1da7995918234a64,001,2022-04-28_20h06.02.830,classification_task,2021.2.3,MacIntel,59.99880002,615f6dca1da7995918234a64,626b377229c10585ec392f8a,626b39ebd2ec00a3a3c1f203,,,,,,,,,,,,,,,,,,,,,,,l,1,2.483,"[""0.151"",""0.356"",""0.460"",""0.651""]","[1,1,1,0]",0,40,40,40,1,1,1,,,0,FALSE,,,,,,,,,,,,,,,,,,,,,,,,,,,,,,
,615f6dca1da7995918234a64,001,2022-04-28_20h06.02.830,classification_task,2021.2.3,MacIntel,59.99880002,615f6dca1da7995918234a64,626b377229c10585ec392f8a,626b39ebd2ec00a3a3c1f203,,,,,,,,,,,,,,,,,,,,,,,l,0,1.6733,"[""0.309"",""0.534"",""0.848"",""0.636""]","[1,1,1,0]",0,41,41,41,1,0,0,,,0,FALSE,,,,,,,,,,,,,,,,,,,,,,,,,,,,,,
,615f6dca1da7995918234a64,001,2022-04-28_20h06.02.830,classification_task,2021.2.3,MacIntel,59.99880002,615f6dca1da7995918234a64,626b377229c10585ec392f8a,626b39ebd2ec00a3a3c1f203,,,,,,,,,,,,,,,,,,,,,,,a,1,0.6219,"[""0.044"",""0.534"",""0.848"",""0.926""]","[0,1,1,1]",0,42,42,42,1,0,0,,,0,FALSE,,,,,,,,,,,,,,,,,,,,,,,,,,,,,,
,615f6dca1da7995918234a64,001,2022-04-28_20h06.02.830,classification_task,2021.2.3,MacIntel,59.99880002,615f6dca1da7995918234a64,626b377229c10585ec392f8a,626b39ebd2ec00a3a3c1f203,,,,,,,,,,,,,,,,,,,,,,,l,0,0.9036,"[""0.272"",""0.393"",""0.061"",""0.960""]","[1,1,0,1]",0,43,43,43,1,0,1,,,0,FALSE,,,,,,,,,,,,,,,,,,,,,,,,,,,,,,
,615f6dca1da7995918234a64,001,2022-04-28_20h06.02.830,classification_task,2021.2.3,MacIntel,59.99880002,615f6dca1da7995918234a64,626b377229c10585ec392f8a,626b39ebd2ec00a3a3c1f203,,,,,,,,,,,,,,,,,,,,,,,l,1,0.6303,"[""0.636"",""0.195"",""0.589"",""0.691""]","[0,1,1,1]",0,44,44,44,1,1,0,,,0,FALSE,,,,,,,,,,,,,,,,,,,,,,,,,,,,,,
,615f6dca1da7995918234a64,001,2022-04-28_20h06.02.830,classification_task,2021.2.3,MacIntel,59.99880002,615f6dca1da7995918234a64,626b377229c10585ec392f8a,626b39ebd2ec00a3a3c1f203,,,,,,,,,,,,,,,,,,,,,,,l,1,0.8854,"[""0.096"",""0.195"",""0.589"",""0.061""]","[1,1,1,0]",0,45,45,45,1,1,0,,,0,FALSE,,,,,,,,,,,,,,,,,,,,,,,,,,,,,,
,615f6dca1da7995918234a64,001,2022-04-28_20h06.02.830,classification_task,2021.2.3,MacIntel,59.99880002,615f6dca1da7995918234a64,626b377229c10585ec392f8a,626b39ebd2ec00a3a3c1f203,,,,,,,,,,,,,,,,,,,,,,,a,0,0.4826,"[""0.051"",""0.356"",""0.460"",""0.799""]","[0,1,1,1]",0,46,46,46,1,1,1,,,0,FALSE,,,,,,,,,,,,,,,,,,,,,,,,,,,,,,
,615f6dca1da7995918234a64,001,2022-04-28_20h06.02.830,classification_task,2021.2.3,MacIntel,59.99880002,615f6dca1da7995918234a64,626b377229c10585ec392f8a,626b39ebd2ec00a3a3c1f203,,,,,,,,,,,,,,,,,,,,,,,l,1,0.8157,"[""0.151"",""0.631"",""0.460"",""0.799""]","[1,0,1,1]",0,47,47,47,1,1,1,,,0,FALSE,,,,,,,,,,,,,,,,,,,,,,,,,,,,,,
,615f6dca1da7995918234a64,001,2022-04-28_20h06.02.830,classification_task,2021.2.3,MacIntel,59.99880002,615f6dca1da7995918234a64,626b377229c10585ec392f8a,626b39ebd2ec00a3a3c1f203,,,,,,,,,,,,,,,,,,,,,,,l,1,0.543,"[""0.151"",""0.631"",""0.460"",""0.799""]","[1,0,1,1]",0,48,48,48,1,1,1,,,0,FALSE,,,,,,,,,,,,,,,,,,,,,,,,,,,,,,
,615f6dca1da7995918234a64,001,2022-04-28_20h06.02.830,classification_task,2021.2.3,MacIntel,59.99880002,615f6dca1da7995918234a64,626b377229c10585ec392f8a,626b39ebd2ec00a3a3c1f203,,,,,,,,,,,,,,,,,,,,,,,l,1,0.4833,"[""0.061"",""0.356"",""0.460"",""0.799""]","[0,1,1,1]",0,49,49,49,1,1,1,,,0,FALSE,,,,,,,,,,,,,,,,,,,,,,,,,,,,,,
,615f6dca1da7995918234a64,001,2022-04-28_20h06.02.830,classification_task,2021.2.3,MacIntel,59.99880002,615f6dca1da7995918234a64,626b377229c10585ec392f8a,626b39ebd2ec00a3a3c1f203,,,,,,,,,,,,,,,,,,,,,,,l,0,0.6037,"[""0.272"",""0.393"",""0.041"",""0.960""]","[1,1,0,1]",0,50,50,50,1,0,1,,,0,FALSE,,,,,,,,,,,,,,,,,,,,,,,,,,,,,,
,615f6dca1da7995918234a64,001,2022-04-28_20h06.02.830,classification_task,2021.2.3,MacIntel,59.99880002,615f6dca1da7995918234a64,626b377229c10585ec392f8a,626b39ebd2ec00a3a3c1f203,,,,,,,,,,,,,,,,,,,,,,,l,0,1.9712,"[""0.309"",""0.534"",""0.031"",""0.926""]","[1,1,0,1]",0,51,51,51,1,0,0,,,0,FALSE,,,,,,,,,,,,,,,,,,,,,,,,,,,,,,
,615f6dca1da7995918234a64,001,2022-04-28_20h06.02.830,classification_task,2021.2.3,MacIntel,59.99880002,615f6dca1da7995918234a64,626b377229c10585ec392f8a,626b39ebd2ec00a3a3c1f203,,,,,,,,,,,,,,,,,,,,,,,a,1,0.5318,"[""0.272"",""0.393"",""0.738"",""0.051""]","[1,1,1,0]",0,52,52,52,1,0,1,,,0,FALSE,,,,,,,,,,,,,,,,,,,,,,,,,,,,,,
,615f6dca1da7995918234a64,001,2022-04-28_20h06.02.830,classification_task,2021.2.3,MacIntel,59.99880002,615f6dca1da7995918234a64,626b377229c10585ec392f8a,626b39ebd2ec00a3a3c1f203,,,,,,,,,,,,,,,,,,,,,,,a,0,0.5812,"[""0.096"",""0.061"",""0.589"",""0.691""]","[1,0,1,1]",0,53,53,53,1,1,0,,,0,FALSE,,,,,,,,,,,,,,,,,,,,,,,,,,,,,,
,615f6dca1da7995918234a64,001,2022-04-28_20h06.02.830,classification_task,2021.2.3,MacIntel,59.99880002,615f6dca1da7995918234a64,626b377229c10585ec392f8a,626b39ebd2ec00a3a3c1f203,,,,,,,,,,,,,,,,,,,,,,,l,1,0.7176,"[""0.041"",""0.195"",""0.589"",""0.691""]","[0,1,1,1]",0,54,54,54,1,1,0,,,0,FALSE,,,,,,,,,,,,,,,,,,,,,,,,,,,,,,
,615f6dca1da7995918234a64,001,2022-04-28_20h06.02.830,classification_task,2021.2.3,MacIntel,59.99880002,615f6dca1da7995918234a64,626b377229c10585ec392f8a,626b39ebd2ec00a3a3c1f203,,,,,,,,,,,,,,,,,,,,,,,l,1,1.3484,"[""0.096"",""0.195"",""0.589"",""0.631""]","[1,1,1,0]",0,55,55,55,1,1,0,,,0,FALSE,,,,,,,,,,,,,,,,,,,,,,,,,,,,,,
,615f6dca1da7995918234a64,001,2022-04-28_20h06.02.830,classification_task,2021.2.3,MacIntel,59.99880002,615f6dca1da7995918234a64,626b377229c10585ec392f8a,626b39ebd2ec00a3a3c1f203,,,,,,,,,,,,,,,,,,,,,,,a,0,0.5167,"[""0.151"",""0.356"",""0.044"",""0.799""]","[1,1,0,1]",0,56,56,56,1,1,1,,,0,FALSE,,,,,,,,,,,,,,,,,,,,,,,,,,,,,,
,615f6dca1da7995918234a64,001,2022-04-28_20h06.02.830,classification_task,2021.2.3,MacIntel,59.99880002,615f6dca1da7995918234a64,626b377229c10585ec392f8a,626b39ebd2ec00a3a3c1f203,,,,,,,,,,,,,,,,,,,,,,,a,1,0.5309,"[""0.054"",""0.534"",""0.848"",""0.926""]","[0,1,1,1]",0,57,57,57,1,0,0,,,0,FALSE,,,,,,,,,,,,,,,,,,,,,,,,,,,,,,
,615f6dca1da7995918234a64,001,2022-04-28_20h06.02.830,classification_task,2021.2.3,MacIntel,59.99880002,615f6dca1da7995918234a64,626b377229c10585ec392f8a,626b39ebd2ec00a3a3c1f203,,,,,,,,,,,,,,,,,,,,,,,l,0,0.3645,"[""0.272"",""0.054"",""0.738"",""0.960""]","[1,0,1,1]",0,58,58,58,1,0,1,,,0,FALSE,,,,,,,,,,,,,,,,,,,,,,,,,,,,,,
,615f6dca1da7995918234a64,001,2022-04-28_20h06.02.830,classification_task,2021.2.3,MacIntel,59.99880002,615f6dca1da7995918234a64,626b377229c10585ec392f8a,626b39ebd2ec00a3a3c1f203,,,,,,,,,,,,,,,,,,,,,,,l,0,0.3529,"[""0.651"",""0.393"",""0.738"",""0.960""]","[0,1,1,1]",0,59,59,59,1,0,1,,,0,FALSE,,,,,,,,,,,,,,,,,,,,,,,,,,,,,,
,615f6dca1da7995918234a64,001,2022-04-28_20h06.02.830,classification_task,2021.2.3,MacIntel,59.99880002,615f6dca1da7995918234a64,626b377229c10585ec392f8a,626b39ebd2ec00a3a3c1f203,,,,,,,,,,,,,,,,,,,,,,,a,1,0.5624,"[""0.309"",""0.534"",""0.848"",""0.655""]","[1,1,1,0]",0,60,60,60,1,0,0,,,0,FALSE,,,,,,,,,,,,,,,,,,,,,,,,,,,,,,
,615f6dca1da7995918234a64,001,2022-04-28_20h06.02.830,classification_task,2021.2.3,MacIntel,59.99880002,615f6dca1da7995918234a64,626b377229c10585ec392f8a,626b39ebd2ec00a3a3c1f203,,,,,,,,,,,,,,,,,,,,,,,a,0,0.5022,"[""0.096"",""0.195"",""0.636"",""0.691""]","[1,1,0,1]",0,61,61,61,1,1,0,,,0,FALSE,,,,,,,,,,,,,,,,,,,,,,,,,,,,,,
,615f6dca1da7995918234a64,001,2022-04-28_20h06.02.830,classification_task,2021.2.3,MacIntel,59.99880002,615f6dca1da7995918234a64,626b377229c10585ec392f8a,626b39ebd2ec00a3a3c1f203,,,,,,,,,,,,,,,,,,,,,,,a,1,0.6828,"[""0.309"",""0.042"",""0.848"",""0.926""]","[1,0,1,1]",0,62,62,62,1,0,0,,,0,FALSE,,,,,,,,,,,,,,,,,,,,,,,,,,,,,,
,615f6dca1da7995918234a64,001,2022-04-28_20h06.02.830,classification_task,2021.2.3,MacIntel,59.99880002,615f6dca1da7995918234a64,626b377229c10585ec392f8a,626b39ebd2ec00a3a3c1f203,,,,,,,,,,,,,,,,,,,,,,,l,1,0.5143,"[""0.151"",""0.356"",""0.460"",""0.655""]","[1,1,1,0]",0,63,63,63,1,1,1,,,0,FALSE,,,,,,,,,,,,,,,,,,,,,,,,,,,,,,
,615f6dca1da7995918234a64,001,2022-04-28_20h06.02.830,classification_task,2021.2.3,MacIntel,59.99880002,615f6dca1da7995918234a64,626b377229c10585ec392f8a,626b39ebd2ec00a3a3c1f203,,,,,,,,,,,,,,,,,,,,,,,,,,,,,,,,,,,,,,,0, ,,0,0.488077441,396.2382,0,0,0,0,1,2,1,,,,,,,,,,,,,,,,,
,615f6dca1da7995918234a64,001,2022-04-28_20h06.02.830,classification_task,2021.2.3,MacIntel,59.99880002,615f6dca1da7995918234a64,626b377229c10585ec392f8a,626b39ebd2ec00a3a3c1f203,,,,,,,,,,,,,,,,,,,,,,,,,,,,,,,,,,,,,,,1,  ,,0,5.330791888,401.094,0,0,0,0,1,2,1,,,,,,,,,,,,,,,,,
,615f6dca1da7995918234a64,001,2022-04-28_20h06.02.830,classification_task,2021.2.3,MacIntel,59.99880002,615f6dca1da7995918234a64,626b377229c10585ec392f8a,626b39ebd2ec00a3a3c1f203,,,,,,,,,,,,,,,,,,,,,,,,,,,,,,,,,,,,,,,2,  ,,0,3.941651826,408.117,0,0,0,0,1,2,1,,,,,,,,,,,,,,,,,
,615f6dca1da7995918234a64,001,2022-04-28_20h06.02.830,classification_task,2021.2.3,MacIntel,59.99880002,615f6dca1da7995918234a64,626b377229c10585ec392f8a,626b39ebd2ec00a3a3c1f203,,,,,,,,,,,,,,,,,,,,,,,,,,,,,,,,,,,,,,,,,,,,,0,0,0,0,1,,1,,,,,,,,,,,,,,,,,
,615f6dca1da7995918234a64,001,2022-04-28_20h06.02.830,classification_task,2021.2.3,MacIntel,59.99880002,615f6dca1da7995918234a64,626b377229c10585ec392f8a,626b39ebd2ec00a3a3c1f203,,,,,,,,,,,,,,,,,,,,,space,11.0872,a,0,1.5686,"[""0.096"",""0.195"",""0.589"",""0.044""]","[1,1,1,0]",0,0,0,0,1,1,0,,,0,FALSE,,,,,,,,,,,,,,,,,,,,,,,,,,,,,,
,615f6dca1da7995918234a64,001,2022-04-28_20h06.02.830,classification_task,2021.2.3,MacIntel,59.99880002,615f6dca1da7995918234a64,626b377229c10585ec392f8a,626b39ebd2ec00a3a3c1f203,,,,,,,,,,,,,,,,,,,,,,,a,1,1.1206,"[""0.272"",""0.640"",""0.738"",""0.960""]","[1,0,1,1]",0,1,1,1,1,0,1,,,0,FALSE,,,,,,,,,,,,,,,,,,,,,,,,,,,,,,
,615f6dca1da7995918234a64,001,2022-04-28_20h06.02.830,classification_task,2021.2.3,MacIntel,59.99880002,615f6dca1da7995918234a64,626b377229c10585ec392f8a,626b39ebd2ec00a3a3c1f203,,,,,,,,,,,,,,,,,,,,,,,a,1,0.9671,"[""0.272"",""0.393"",""0.738"",""0.495""]","[1,1,1,0]",0,2,2,2,1,0,1,,,0,FALSE,,,,,,,,,,,,,,,,,,,,,,,,,,,,,,
,615f6dca1da7995918234a64,001,2022-04-28_20h06.02.830,classification_task,2021.2.3,MacIntel,59.99880002,615f6dca1da7995918234a64,626b377229c10585ec392f8a,626b39ebd2ec00a3a3c1f203,,,,,,,,,,,,,,,,,,,,,,,l,1,0.9817,"[""0.096"",""0.882"",""0.589"",""0.691""]","[1,0,1,1]",0,3,3,3,1,1,0,,,0,FALSE,,,,,,,,,,,,,,,,,,,,,,,,,,,,,,
,615f6dca1da7995918234a64,001,2022-04-28_20h06.02.830,classification_task,2021.2.3,MacIntel,59.99880002,615f6dca1da7995918234a64,626b377229c10585ec392f8a,626b39ebd2ec00a3a3c1f203,,,,,,,,,,,,,,,,,,,,,,,l,1,0.8362,"[""0.096"",""0.195"",""0.651"",""0.691""]","[1,1,0,1]",0,4,4,4,1,1,0,,,0,FALSE,,,,,,,,,,,,,,,,,,,,,,,,,,,,,,
,615f6dca1da7995918234a64,001,2022-04-28_20h06.02.830,classification_task,2021.2.3,MacIntel,59.99880002,615f6dca1da7995918234a64,626b377229c10585ec392f8a,626b39ebd2ec00a3a3c1f203,,,,,,,,,,,,,,,,,,,,,,,a,1,1.2028,"[""0.044"",""0.393"",""0.738"",""0.960""]","[0,1,1,1]",0,5,5,5,1,0,1,,,0,FALSE,,,,,,,,,,,,,,,,,,,,,,,,,,,,,,
,615f6dca1da7995918234a64,001,2022-04-28_20h06.02.830,classification_task,2021.2.3,MacIntel,59.99880002,615f6dca1da7995918234a64,626b377229c10585ec392f8a,626b39ebd2ec00a3a3c1f203,,,,,,,,,,,,,,,,,,,,,,,l,0,0.716,"[""0.309"",""0.534"",""0.031"",""0.926""]","[1,1,0,1]",0,6,6,6,1,0,0,,,0,FALSE,,,,,,,,,,,,,,,,,,,,,,,,,,,,,,
,615f6dca1da7995918234a64,001,2022-04-28_20h06.02.830,classification_task,2021.2.3,MacIntel,59.99880002,615f6dca1da7995918234a64,626b377229c10585ec392f8a,626b39ebd2ec00a3a3c1f203,,,,,,,,,,,,,,,,,,,,,,,a,0,1.0977,"[""0.151"",""0.356"",""0.460"",""0.044""]","[1,1,1,0]",0,7,7,7,1,1,1,,,0,FALSE,,,,,,,,,,,,,,,,,,,,,,,,,,,,,,
,615f6dca1da7995918234a64,001,2022-04-28_20h06.02.830,classification_task,2021.2.3,MacIntel,59.99880002,615f6dca1da7995918234a64,626b377229c10585ec392f8a,626b39ebd2ec00a3a3c1f203,,,,,,,,,,,,,,,,,,,,,,,a,1,0.6827,"[""0.886"",""0.534"",""0.848"",""0.926""]","[0,1,1,1]",0,8,8,8,1,0,0,,,0,FALSE,,,,,,,,,,,,,,,,,,,,,,,,,,,,,,
,615f6dca1da7995918234a64,001,2022-04-28_20h06.02.830,classification_task,2021.2.3,MacIntel,59.99880002,615f6dca1da7995918234a64,626b377229c10585ec392f8a,626b39ebd2ec00a3a3c1f203,,,,,,,,,,,,,,,,,,,,,,,l,0,1.1981,"[""0.309"",""0.495"",""0.848"",""0.926""]","[1,0,1,1]",0,9,9,9,1,0,0,,,0,FALSE,,,,,,,,,,,,,,,,,,,,,,,,,,,,,,
,615f6dca1da7995918234a64,001,2022-04-28_20h06.02.830,classification_task,2021.2.3,MacIntel,59.99880002,615f6dca1da7995918234a64,626b377229c10585ec392f8a,626b39ebd2ec00a3a3c1f203,,,,,,,,,,,,,,,,,,,,,,,l,1,0.6094,"[""0.041"",""0.356"",""0.460"",""0.799""]","[0,1,1,1]",0,10,10,10,1,1,1,,,0,FALSE,,,,,,,,,,,,,,,,,,,,,,,,,,,,,,
,615f6dca1da7995918234a64,001,2022-04-28_20h06.02.830,classification_task,2021.2.3,MacIntel,59.99880002,615f6dca1da7995918234a64,626b377229c10585ec392f8a,626b39ebd2ec00a3a3c1f203,,,,,,,,,,,,,,,,,,,,,,,l,0,0.921,"[""0.309"",""0.534"",""0.848"",""0.051""]","[1,1,1,0]",0,11,11,11,1,0,0,,,0,FALSE,,,,,,,,,,,,,,,,,,,,,,,,,,,,,,
,615f6dca1da7995918234a64,001,2022-04-28_20h06.02.830,classification_task,2021.2.3,MacIntel,59.99880002,615f6dca1da7995918234a64,626b377229c10585ec392f8a,626b39ebd2ec00a3a3c1f203,,,,,,,,,,,,,,,,,,,,,,,a,0,0.5706,"[""0.151"",""0.882"",""0.460"",""0.799""]","[1,0,1,1]",0,12,12,12,1,1,1,,,0,FALSE,,,,,,,,,,,,,,,,,,,,,,,,,,,,,,
,615f6dca1da7995918234a64,001,2022-04-28_20h06.02.830,classification_task,2021.2.3,MacIntel,59.99880002,615f6dca1da7995918234a64,626b377229c10585ec392f8a,626b39ebd2ec00a3a3c1f203,,,,,,,,,,,,,,,,,,,,,,,a,1,0.9847,"[""0.272"",""0.393"",""0.041"",""0.960""]","[1,1,0,1]",0,13,13,13,1,0,1,,,0,FALSE,,,,,,,,,,,,,,,,,,,,,,,,,,,,,,
,615f6dca1da7995918234a64,001,2022-04-28_20h06.02.830,classification_task,2021.2.3,MacIntel,59.99880002,615f6dca1da7995918234a64,626b377229c10585ec392f8a,626b39ebd2ec00a3a3c1f203,,,,,,,,,,,,,,,,,,,,,,,a,0,1.9491,"[""0.640"",""0.195"",""0.589"",""0.691""]","[0,1,1,1]",0,14,14,14,1,1,0,,,0,FALSE,,,,,,,,,,,,,,,,,,,,,,,,,,,,,,
,615f6dca1da7995918234a64,001,2022-04-28_20h06.02.830,classification_task,2021.2.3,MacIntel,59.99880002,615f6dca1da7995918234a64,626b377229c10585ec392f8a,626b39ebd2ec00a3a3c1f203,,,,,,,,,,,,,,,,,,,,,,,l,1,1.2735,"[""0.151"",""0.356"",""0.888"",""0.799""]","[1,1,0,1]",0,15,15,15,1,1,1,,,0,FALSE,,,,,,,,,,,,,,,,,,,,,,,,,,,,,,
,615f6dca1da7995918234a64,001,2022-04-28_20h06.02.830,classification_task,2021.2.3,MacIntel,59.99880002,615f6dca1da7995918234a64,626b377229c10585ec392f8a,626b39ebd2ec00a3a3c1f203,,,,,,,,,,,,,,,,,,,,,,,l,1,1.2686,"[""0.151"",""0.356"",""0.640"",""0.799""]","[1,1,0,1]",0,16,16,16,1,1,1,,,0,FALSE,,,,,,,,,,,,,,,,,,,,,,,,,,,,,,
,615f6dca1da7995918234a64,001,2022-04-28_20h06.02.830,classification_task,2021.2.3,MacIntel,59.99880002,615f6dca1da7995918234a64,626b377229c10585ec392f8a,626b39ebd2ec00a3a3c1f203,,,,,,,,,,,,,,,,,,,,,,,l,0,1.2211,"[""0.272"",""0.044"",""0.738"",""0.960""]","[1,0,1,1]",0,17,17,17,1,0,1,,,0,FALSE,,,,,,,,,,,,,,,,,,,,,,,,,,,,,,
,615f6dca1da7995918234a64,001,2022-04-28_20h06.02.830,classification_task,2021.2.3,MacIntel,59.99880002,615f6dca1da7995918234a64,626b377229c10585ec392f8a,626b39ebd2ec00a3a3c1f203,,,,,,,,,,,,,,,,,,,,,,,a,1,0.5954,"[""0.309"",""0.534"",""0.848"",""0.054""]","[1,1,1,0]",0,18,18,18,1,0,0,,,0,FALSE,,,,,,,,,,,,,,,,,,,,,,,,,,,,,,
,615f6dca1da7995918234a64,001,2022-04-28_20h06.02.830,classification_task,2021.2.3,MacIntel,59.99880002,615f6dca1da7995918234a64,626b377229c10585ec392f8a,626b39ebd2ec00a3a3c1f203,,,,,,,,,,,,,,,,,,,,,,,a,0,0.9192,"[""0.151"",""0.356"",""0.460"",""0.041""]","[1,1,1,0]",0,19,19,19,1,1,1,,,0,FALSE,,,,,,,,,,,,,,,,,,,,,,,,,,,,,,
,615f6dca1da7995918234a64,001,2022-04-28_20h06.02.830,classification_task,2021.2.3,MacIntel,59.99880002,615f6dca1da7995918234a64,626b377229c10585ec392f8a,626b39ebd2ec00a3a3c1f203,,,,,,,,,,,,,,,,,,,,,,,a,1,1.0202,"[""0.309"",""0.534"",""0.054"",""0.926""]","[1,1,0,1]",0,20,20,20,1,0,0,,,0,FALSE,,,,,,,,,,,,,,,,,,,,,,,,,,,,,,
,615f6dca1da7995918234a64,001,2022-04-28_20h06.02.830,classification_task,2021.2.3,MacIntel,59.99880002,615f6dca1da7995918234a64,626b377229c10585ec392f8a,626b39ebd2ec00a3a3c1f203,,,,,,,,,,,,,,,,,,,,,,,l,0,0.7995,"[""0.272"",""0.393"",""0.636"",""0.960""]","[1,1,0,1]",0,21,21,21,1,0,1,,,0,FALSE,,,,,,,,,,,,,,,,,,,,,,,,,,,,,,
,615f6dca1da7995918234a64,001,2022-04-28_20h06.02.830,classification_task,2021.2.3,MacIntel,59.99880002,615f6dca1da7995918234a64,626b377229c10585ec392f8a,626b39ebd2ec00a3a3c1f203,,,,,,,,,,,,,,,,,,,,,,,l,1,0.8635,"[""0.655"",""0.195"",""0.589"",""0.691""]","[0,1,1,1]",0,22,22,22,1,1,0,,,0,FALSE,,,,,,,,,,,,,,,,,,,,,,,,,,,,,,
,615f6dca1da7995918234a64,001,2022-04-28_20h06.02.830,classification_task,2021.2.3,MacIntel,59.99880002,615f6dca1da7995918234a64,626b377229c10585ec392f8a,626b39ebd2ec00a3a3c1f203,,,,,,,,,,,,,,,,,,,,,,,a,0,0.6629,"[""0.151"",""0.888"",""0.460"",""0.799""]","[1,0,1,1]",0,23,23,23,1,1,1,,,0,FALSE,,,,,,,,,,,,,,,,,,,,,,,,,,,,,,
,615f6dca1da7995918234a64,001,2022-04-28_20h06.02.830,classification_task,2021.2.3,MacIntel,59.99880002,615f6dca1da7995918234a64,626b377229c10585ec392f8a,626b39ebd2ec00a3a3c1f203,,,,,,,,,,,,,,,,,,,,,,,a,1,1.7658,"[""0.631"",""0.393"",""0.738"",""0.960""]","[0,1,1,1]",0,24,24,24,1,0,1,,,0,FALSE,,,,,,,,,,,,,,,,,,,,,,,,,,,,,,
,615f6dca1da7995918234a64,001,2022-04-28_20h06.02.830,classification_task,2021.2.3,MacIntel,59.99880002,615f6dca1da7995918234a64,626b377229c10585ec392f8a,626b39ebd2ec00a3a3c1f203,,,,,,,,,,,,,,,,,,,,,,,a,1,1.1479,"[""0.042"",""0.534"",""0.848"",""0.926""]","[0,1,1,1]",0,25,25,25,1,0,0,,,0,FALSE,,,,,,,,,,,,,,,,,,,,,,,,,,,,,,
,615f6dca1da7995918234a64,001,2022-04-28_20h06.02.830,classification_task,2021.2.3,MacIntel,59.99880002,615f6dca1da7995918234a64,626b377229c10585ec392f8a,626b39ebd2ec00a3a3c1f203,,,,,,,,,,,,,,,,,,,,,,,l,0,0.6152,"[""0.272"",""0.393"",""0.738"",""0.651""]","[1,1,1,0]",0,26,26,26,1,0,1,,,0,FALSE,,,,,,,,,,,,,,,,,,,,,,,,,,,,,,
,615f6dca1da7995918234a64,001,2022-04-28_20h06.02.830,classification_task,2021.2.3,MacIntel,59.99880002,615f6dca1da7995918234a64,626b377229c10585ec392f8a,626b39ebd2ec00a3a3c1f203,,,,,,,,,,,,,,,,,,,,,,,a,0,0.7653,"[""0.096"",""0.882"",""0.589"",""0.691""]","[1,0,1,1]",0,27,27,27,1,1,0,,,0,FALSE,,,,,,,,,,,,,,,,,,,,,,,,,,,,,,
,615f6dca1da7995918234a64,001,2022-04-28_20h06.02.830,classification_task,2021.2.3,MacIntel,59.99880002,615f6dca1da7995918234a64,626b377229c10585ec392f8a,626b39ebd2ec00a3a3c1f203,,,,,,,,,,,,,,,,,,,,,,,l,0,0.9248,"[""0.309"",""0.882"",""0.848"",""0.926""]","[1,0,1,1]",0,28,28,28,1,0,0,,,0,FALSE,,,,,,,,,,,,,,,,,,,,,,,,,,,,,,
,615f6dca1da7995918234a64,001,2022-04-28_20h06.02.830,classification_task,2021.2.3,MacIntel,59.99880002,615f6dca1da7995918234a64,626b377229c10585ec392f8a,626b39ebd2ec00a3a3c1f203,,,,,,,,,,,,,,,,,,,,,,,l,1,0.9819,"[""0.495"",""0.356"",""0.460"",""0.799""]","[0,1,1,1]",0,29,29,29,1,1,1,,,0,FALSE,,,,,,,,,,,,,,,,,,,,,,,,,,,,,,
,615f6dca1da7995918234a64,001,2022-04-28_20h06.02.830,classification_task,2021.2.3,MacIntel,59.99880002,615f6dca1da7995918234a64,626b377229c10585ec392f8a,626b39ebd2ec00a3a3c1f203,,,,,,,,,,,,,,,,,,,,,,,l,1,0.7661,"[""0.096"",""0.195"",""0.589"",""0.044""]","[1,1,1,0]",0,30,30,30,1,1,0,,,0,FALSE,,,,,,,,,,,,,,,,,,,,,,,,,,,,,,
,615f6dca1da7995918234a64,001,2022-04-28_20h06.02.830,classification_task,2021.2.3,MacIntel,59.99880002,615f6dca1da7995918234a64,626b377229c10585ec392f8a,626b39ebd2ec00a3a3c1f203,,,,,,,,,,,,,,,,,,,,,,,l,1,0.5312,"[""0.096"",""0.195"",""0.051"",""0.691""]","[1,1,0,1]",0,31,31,31,1,1,0,,,0,FALSE,,,,,,,,,,,,,,,,,,,,,,,,,,,,,,
,615f6dca1da7995918234a64,001,2022-04-28_20h06.02.830,classification_task,2021.2.3,MacIntel,59.99880002,615f6dca1da7995918234a64,626b377229c10585ec392f8a,626b39ebd2ec00a3a3c1f203,,,,,,,,,,,,,,,,,,,,,,,a,0,0.7812,"[""0.042"",""0.356"",""0.460"",""0.799""]","[0,1,1,1]",0,32,32,32,1,1,1,,,0,FALSE,,,,,,,,,,,,,,,,,,,,,,,,,,,,,,
,615f6dca1da7995918234a64,001,2022-04-28_20h06.02.830,classification_task,2021.2.3,MacIntel,59.99880002,615f6dca1da7995918234a64,626b377229c10585ec392f8a,626b39ebd2ec00a3a3c1f203,,,,,,,,,,,,,,,,,,,,,,,a,1,0.6691,"[""0.272"",""0.393"",""0.738"",""0.888""]","[1,1,1,0]",0,33,33,33,1,0,1,,,0,FALSE,,,,,,,,,,,,,,,,,,,,,,,,,,,,,,
,615f6dca1da7995918234a64,001,2022-04-28_20h06.02.830,classification_task,2021.2.3,MacIntel,59.99880002,615f6dca1da7995918234a64,626b377229c10585ec392f8a,626b39ebd2ec00a3a3c1f203,,,,,,,,,,,,,,,,,,,,,,,a,1,1.8343,"[""0.309"",""0.886"",""0.848"",""0.926""]","[1,0,1,1]",0,34,34,34,1,0,0,,,0,FALSE,,,,,,,,,,,,,,,,,,,,,,,,,,,,,,
,615f6dca1da7995918234a64,001,2022-04-28_20h06.02.830,classification_task,2021.2.3,MacIntel,59.99880002,615f6dca1da7995918234a64,626b377229c10585ec392f8a,626b39ebd2ec00a3a3c1f203,,,,,,,,,,,,,,,,,,,,,,,l,0,0.6861,"[""0.031"",""0.534"",""0.848"",""0.926""]","[0,1,1,1]",0,35,35,35,1,0,0,,,0,FALSE,,,,,,,,,,,,,,,,,,,,,,,,,,,,,,
,615f6dca1da7995918234a64,001,2022-04-28_20h06.02.830,classification_task,2021.2.3,MacIntel,59.99880002,615f6dca1da7995918234a64,626b377229c10585ec392f8a,626b39ebd2ec00a3a3c1f203,,,,,,,,,,,,,,,,,,,,,,,l,1,0.6818,"[""0.096"",""0.195"",""0.044"",""0.691""]","[1,1,0,1]",0,36,36,36,1,1,0,,,0,FALSE,,,,,,,,,,,,,,,,,,,,,,,,,,,,,,
,615f6dca1da7995918234a64,001,2022-04-28_20h06.02.830,classification_task,2021.2.3,MacIntel,59.99880002,615f6dca1da7995918234a64,626b377229c10585ec392f8a,626b39ebd2ec00a3a3c1f203,,,,,,,,,,,,,,,,,,,,,,,l,1,0.9014,"[""0.151"",""0.356"",""0.044"",""0.799""]","[1,1,0,1]",0,37,37,37,1,1,1,,,0,FALSE,,,,,,,,,,,,,,,,,,,,,,,,,,,,,,
,615f6dca1da7995918234a64,001,2022-04-28_20h06.02.830,classification_task,2021.2.3,MacIntel,59.99880002,615f6dca1da7995918234a64,626b377229c10585ec392f8a,626b39ebd2ec00a3a3c1f203,,,,,,,,,,,,,,,,,,,,,,,a,1,0.6978,"[""0.655"",""0.393"",""0.738"",""0.960""]","[0,1,1,1]",0,38,38,38,1,0,1,,,0,FALSE,,,,,,,,,,,,,,,,,,,,,,,,,,,,,,
,615f6dca1da7995918234a64,001,2022-04-28_20h06.02.830,classification_task,2021.2.3,MacIntel,59.99880002,615f6dca1da7995918234a64,626b377229c10585ec392f8a,626b39ebd2ec00a3a3c1f203,,,,,,,,,,,,,,,,,,,,,,,l,0,1.2789,"[""0.309"",""0.534"",""0.848"",""0.495""]","[1,1,1,0]",0,39,39,39,1,0,0,,,0,FALSE,,,,,,,,,,,,,,,,,,,,,,,,,,,,,,
,615f6dca1da7995918234a64,001,2022-04-28_20h06.02.830,classification_task,2021.2.3,MacIntel,59.99880002,615f6dca1da7995918234a64,626b377229c10585ec392f8a,626b39ebd2ec00a3a3c1f203,,,,,,,,,,,,,,,,,,,,,,,a,1,1.9891,"[""0.272"",""0.888"",""0.738"",""0.960""]","[1,0,1,1]",0,40,40,40,1,0,1,,,0,FALSE,,,,,,,,,,,,,,,,,,,,,,,,,,,,,,
,615f6dca1da7995918234a64,001,2022-04-28_20h06.02.830,classification_task,2021.2.3,MacIntel,59.99880002,615f6dca1da7995918234a64,626b377229c10585ec392f8a,626b39ebd2ec00a3a3c1f203,,,,,,,,,,,,,,,,,,,,,,,l,1,0.6424,"[""0.151"",""0.356"",""0.460"",""0.031""]","[1,1,1,0]",0,41,41,41,1,1,1,,,0,FALSE,,,,,,,,,,,,,,,,,,,,,,,,,,,,,,
,615f6dca1da7995918234a64,001,2022-04-28_20h06.02.830,classification_task,2021.2.3,MacIntel,59.99880002,615f6dca1da7995918234a64,626b377229c10585ec392f8a,626b39ebd2ec00a3a3c1f203,,,,,,,,,,,,,,,,,,,,,,,l,1,1.2166,"[""0.151"",""0.044"",""0.460"",""0.799""]","[1,0,1,1]",0,42,42,42,1,1,1,,,0,FALSE,,,,,,,,,,,,,,,,,,,,,,,,,,,,,,
,615f6dca1da7995918234a64,001,2022-04-28_20h06.02.830,classification_task,2021.2.3,MacIntel,59.99880002,615f6dca1da7995918234a64,626b377229c10585ec392f8a,626b39ebd2ec00a3a3c1f203,,,,,,,,,,,,,,,,,,,,,,,l,1,0.6856,"[""0.096"",""0.042"",""0.589"",""0.691""]","[1,0,1,1]",0,43,43,43,1,1,0,,,0,FALSE,,,,,,,,,,,,,,,,,,,,,,,,,,,,,,
,615f6dca1da7995918234a64,001,2022-04-28_20h06.02.830,classification_task,2021.2.3,MacIntel,59.99880002,615f6dca1da7995918234a64,626b377229c10585ec392f8a,626b39ebd2ec00a3a3c1f203,,,,,,,,,,,,,,,,,,,,,,,a,1,0.6851,"[""0.272"",""0.393"",""0.655"",""0.960""]","[1,1,0,1]",0,44,44,44,1,0,1,,,0,FALSE,,,,,,,,,,,,,,,,,,,,,,,,,,,,,,
,615f6dca1da7995918234a64,001,2022-04-28_20h06.02.830,classification_task,2021.2.3,MacIntel,59.99880002,615f6dca1da7995918234a64,626b377229c10585ec392f8a,626b39ebd2ec00a3a3c1f203,,,,,,,,,,,,,,,,,,,,,,,a,1,0.7976,"[""0.309"",""0.534"",""0.888"",""0.926""]","[1,1,0,1]",0,45,45,45,1,0,0,,,0,FALSE,,,,,,,,,,,,,,,,,,,,,,,,,,,,,,
,615f6dca1da7995918234a64,001,2022-04-28_20h06.02.830,classification_task,2021.2.3,MacIntel,59.99880002,615f6dca1da7995918234a64,626b377229c10585ec392f8a,626b39ebd2ec00a3a3c1f203,,,,,,,,,,,,,,,,,,,,,,,l,1,0.8532,"[""0.041"",""0.195"",""0.589"",""0.691""]","[0,1,1,1]",0,46,46,46,1,1,0,,,0,FALSE,,,,,,,,,,,,,,,,,,,,,,,,,,,,,,
,615f6dca1da7995918234a64,001,2022-04-28_20h06.02.830,classification_task,2021.2.3,MacIntel,59.99880002,615f6dca1da7995918234a64,626b377229c10585ec392f8a,626b39ebd2ec00a3a3c1f203,,,,,,,,,,,,,,,,,,,,,,,l,1,0.6192,"[""0.096"",""0.195"",""0.589"",""0.631""]","[1,1,1,0]",0,47,47,47,1,1,0,,,0,FALSE,,,,,,,,,,,,,,,,,,,,,,,,,,,,,,
,615f6dca1da7995918234a64,001,2022-04-28_20h06.02.830,classification_task,2021.2.3,MacIntel,59.99880002,615f6dca1da7995918234a64,626b377229c10585ec392f8a,626b39ebd2ec00a3a3c1f203,,,,,,,,,,,,,,,,,,,,,,,a,1,0.4998,"[""0.636"",""0.393"",""0.738"",""0.960""]","[0,1,1,1]",0,48,48,48,1,0,1,,,0,FALSE,,,,,,,,,,,,,,,,,,,,,,,,,,,,,,
,615f6dca1da7995918234a64,001,2022-04-28_20h06.02.830,classification_task,2021.2.3,MacIntel,59.99880002,615f6dca1da7995918234a64,626b377229c10585ec392f8a,626b39ebd2ec00a3a3c1f203,,,,,,,,,,,,,,,,,,,,,,,l,1,0.4523,"[""0.096"",""0.195"",""0.589"",""0.041""]","[1,1,1,0]",0,49,49,49,1,1,0,,,0,FALSE,,,,,,,,,,,,,,,,,,,,,,,,,,,,,,
,615f6dca1da7995918234a64,001,2022-04-28_20h06.02.830,classification_task,2021.2.3,MacIntel,59.99880002,615f6dca1da7995918234a64,626b377229c10585ec392f8a,626b39ebd2ec00a3a3c1f203,,,,,,,,,,,,,,,,,,,,,,,l,0,1.5036,"[""0.272"",""0.031"",""0.738"",""0.960""]","[1,0,1,1]",0,50,50,50,1,0,1,,,0,FALSE,,,,,,,,,,,,,,,,,,,,,,,,,,,,,,
,615f6dca1da7995918234a64,001,2022-04-28_20h06.02.830,classification_task,2021.2.3,MacIntel,59.99880002,615f6dca1da7995918234a64,626b377229c10585ec392f8a,626b39ebd2ec00a3a3c1f203,,,,,,,,,,,,,,,,,,,,,,,a,1,1.0212,"[""0.655"",""0.534"",""0.848"",""0.926""]","[0,1,1,1]",0,51,51,51,1,0,0,,,0,FALSE,,,,,,,,,,,,,,,,,,,,,,,,,,,,,,
,615f6dca1da7995918234a64,001,2022-04-28_20h06.02.830,classification_task,2021.2.3,MacIntel,59.99880002,615f6dca1da7995918234a64,626b377229c10585ec392f8a,626b39ebd2ec00a3a3c1f203,,,,,,,,,,,,,,,,,,,,,,,l,0,0.8307,"[""0.272"",""0.393"",""0.738"",""0.655""]","[1,1,1,0]",0,52,52,52,1,0,1,,,0,FALSE,,,,,,,,,,,,,,,,,,,,,,,,,,,,,,
,615f6dca1da7995918234a64,001,2022-04-28_20h06.02.830,classification_task,2021.2.3,MacIntel,59.99880002,615f6dca1da7995918234a64,626b377229c10585ec392f8a,626b39ebd2ec00a3a3c1f203,,,,,,,,,,,,,,,,,,,,,,,l,1,1.0003,"[""0.031"",""0.195"",""0.589"",""0.691""]","[0,1,1,1]",0,53,53,53,1,1,0,,,0,FALSE,,,,,,,,,,,,,,,,,,,,,,,,,,,,,,
,615f6dca1da7995918234a64,001,2022-04-28_20h06.02.830,classification_task,2021.2.3,MacIntel,59.99880002,615f6dca1da7995918234a64,626b377229c10585ec392f8a,626b39ebd2ec00a3a3c1f203,,,,,,,,,,,,,,,,,,,,,,,a,0,1.3033,"[""0.096"",""0.886"",""0.589"",""0.691""]","[1,0,1,1]",0,54,54,54,1,1,0,,,0,FALSE,,,,,,,,,,,,,,,,,,,,,,,,,,,,,,
,615f6dca1da7995918234a64,001,2022-04-28_20h06.02.830,classification_task,2021.2.3,MacIntel,59.99880002,615f6dca1da7995918234a64,626b377229c10585ec392f8a,626b39ebd2ec00a3a3c1f203,,,,,,,,,,,,,,,,,,,,,,,l,1,0.7645,"[""0.151"",""0.356"",""0.460"",""0.636""]","[1,1,1,0]",0,55,55,55,1,1,1,,,0,FALSE,,,,,,,,,,,,,,,,,,,,,,,,,,,,,,
,615f6dca1da7995918234a64,001,2022-04-28_20h06.02.830,classification_task,2021.2.3,MacIntel,59.99880002,615f6dca1da7995918234a64,626b377229c10585ec392f8a,626b39ebd2ec00a3a3c1f203,,,,,,,,,,,,,,,,,,,,,,,l,1,0.5184,"[""0.096"",""0.195"",""0.655"",""0.691""]","[1,1,0,1]",0,56,56,56,1,1,0,,,0,FALSE,,,,,,,,,,,,,,,,,,,,,,,,,,,,,,
,615f6dca1da7995918234a64,001,2022-04-28_20h06.02.830,classification_task,2021.2.3,MacIntel,59.99880002,615f6dca1da7995918234a64,626b377229c10585ec392f8a,626b39ebd2ec00a3a3c1f203,,,,,,,,,,,,,,,,,,,,,,,a,1,0.667,"[""0.309"",""0.655"",""0.848"",""0.926""]","[1,0,1,1]",0,57,57,57,1,0,0,,,0,FALSE,,,,,,,,,,,,,,,,,,,,,,,,,,,,,,
,615f6dca1da7995918234a64,001,2022-04-28_20h06.02.830,classification_task,2021.2.3,MacIntel,59.99880002,615f6dca1da7995918234a64,626b377229c10585ec392f8a,626b39ebd2ec00a3a3c1f203,,,,,,,,,,,,,,,,,,,,,,,l,1,0.989,"[""0.151"",""0.651"",""0.460"",""0.799""]","[1,0,1,1]",0,58,58,58,1,1,1,,,0,FALSE,,,,,,,,,,,,,,,,,,,,,,,,,,,,,,
,615f6dca1da7995918234a64,001,2022-04-28_20h06.02.830,classification_task,2021.2.3,MacIntel,59.99880002,615f6dca1da7995918234a64,626b377229c10585ec392f8a,626b39ebd2ec00a3a3c1f203,,,,,,,,,,,,,,,,,,,,,,,a,1,1.0519,"[""0.309"",""0.534"",""0.061"",""0.926""]","[1,1,0,1]",0,59,59,59,1,0,0,,,0,FALSE,,,,,,,,,,,,,,,,,,,,,,,,,,,,,,
,615f6dca1da7995918234a64,001,2022-04-28_20h06.02.830,classification_task,2021.2.3,MacIntel,59.99880002,615f6dca1da7995918234a64,626b377229c10585ec392f8a,626b39ebd2ec00a3a3c1f203,,,,,,,,,,,,,,,,,,,,,,,l,1,1.061,"[""0.151"",""0.356"",""0.882"",""0.799""]","[1,1,0,1]",0,60,60,60,1,1,1,,,0,FALSE,,,,,,,,,,,,,,,,,,,,,,,,,,,,,,
,615f6dca1da7995918234a64,001,2022-04-28_20h06.02.830,classification_task,2021.2.3,MacIntel,59.99880002,615f6dca1da7995918234a64,626b377229c10585ec392f8a,626b39ebd2ec00a3a3c1f203,,,,,,,,,,,,,,,,,,,,,,,a,1,0.9326,"[""0.309"",""0.534"",""0.848"",""0.636""]","[1,1,1,0]",0,61,61,61,1,0,0,,,0,FALSE,,,,,,,,,,,,,,,,,,,,,,,,,,,,,,
,615f6dca1da7995918234a64,001,2022-04-28_20h06.02.830,classification_task,2021.2.3,MacIntel,59.99880002,615f6dca1da7995918234a64,626b377229c10585ec392f8a,626b39ebd2ec00a3a3c1f203,,,,,,,,,,,,,,,,,,,,,,,l,1,0.6859,"[""0.054"",""0.356"",""0.460"",""0.799""]","[0,1,1,1]",0,62,62,62,1,1,1,,,0,FALSE,,,,,,,,,,,,,,,,,,,,,,,,,,,,,,
,615f6dca1da7995918234a64,001,2022-04-28_20h06.02.830,classification_task,2021.2.3,MacIntel,59.99880002,615f6dca1da7995918234a64,626b377229c10585ec392f8a,626b39ebd2ec00a3a3c1f203,,,,,,,,,,,,,,,,,,,,,,,a,1,0.6388,"[""0.272"",""0.393"",""0.636"",""0.960""]","[1,1,0,1]",0,63,63,63,1,0,1,,,0,FALSE,,,,,,,,,,,,,,,,,,,,,,,,,,,,,,
,615f6dca1da7995918234a64,001,2022-04-28_20h06.02.830,classification_task,2021.2.3,MacIntel,59.99880002,615f6dca1da7995918234a64,626b377229c10585ec392f8a,626b39ebd2ec00a3a3c1f203,,,,,,,,,,,,,,,,,,,,,,,,,,,,,,,,,,,,,,,0, ,,0,0.367212761,148.6616,0,1,1,1,1,2,2,,,,,,,,,,,,,,,,,
,615f6dca1da7995918234a64,001,2022-04-28_20h06.02.830,classification_task,2021.2.3,MacIntel,59.99880002,615f6dca1da7995918234a64,626b377229c10585ec392f8a,626b39ebd2ec00a3a3c1f203,,,,,,,,,,,,,,,,,,,,,,,,,,,,,,,,,,,,,,,1,  ,,0,2.664402374,151.199,0,1,1,1,1,2,2,,,,,,,,,,,,,,,,,
,615f6dca1da7995918234a64,001,2022-04-28_20h06.02.830,classification_task,2021.2.3,MacIntel,59.99880002,615f6dca1da7995918234a64,626b377229c10585ec392f8a,626b39ebd2ec00a3a3c1f203,,,,,,,,,,,,,,,,,,,,,,,,,,,,,,,,,,,,,,,2,  ,,0,7.502574169,156.3011,0,1,1,1,1,2,2,,,,,,,,,,,,,,,,,
,615f6dca1da7995918234a64,001,2022-04-28_20h06.02.830,classification_task,2021.2.3,MacIntel,59.99880002,615f6dca1da7995918234a64,626b377229c10585ec392f8a,626b39ebd2ec00a3a3c1f203,,,,,,,,,,,,,,,,,,,,,,,,,,,,,,,,,,,,,,,,,,,,,0,1,1,1,1,,2,,,,,,,,,,,,,,,,,
,615f6dca1da7995918234a64,001,2022-04-28_20h06.02.830,classification_task,2021.2.3,MacIntel,59.99880002,615f6dca1da7995918234a64,626b377229c10585ec392f8a,626b39ebd2ec00a3a3c1f203,,,,,,,,,,,,,,,,,,,,,space,8.2349,a,1,1.3038,"[""0.640"",""0.534"",""0.848"",""0.926""]","[0,1,1,1]",0,0,0,0,1,0,0,,,0,FALSE,,,,,,,,,,,,,,,,,,,,,,,,,,,,,,
,615f6dca1da7995918234a64,001,2022-04-28_20h06.02.830,classification_task,2021.2.3,MacIntel,59.99880002,615f6dca1da7995918234a64,626b377229c10585ec392f8a,626b39ebd2ec00a3a3c1f203,,,,,,,,,,,,,,,,,,,,,,,l,1,0.8819,"[""0.096"",""0.195"",""0.589"",""0.495""]","[1,1,1,0]",0,1,1,1,1,1,0,,,0,FALSE,,,,,,,,,,,,,,,,,,,,,,,,,,,,,,
,615f6dca1da7995918234a64,001,2022-04-28_20h06.02.830,classification_task,2021.2.3,MacIntel,59.99880002,615f6dca1da7995918234a64,626b377229c10585ec392f8a,626b39ebd2ec00a3a3c1f203,,,,,,,,,,,,,,,,,,,,,,,a,0,1.7161,"[""0.151"",""0.886"",""0.460"",""0.799""]","[1,0,1,1]",0,2,2,2,1,1,1,,,0,FALSE,,,,,,,,,,,,,,,,,,,,,,,,,,,,,,
,615f6dca1da7995918234a64,001,2022-04-28_20h06.02.830,classification_task,2021.2.3,MacIntel,59.99880002,615f6dca1da7995918234a64,626b377229c10585ec392f8a,626b39ebd2ec00a3a3c1f203,,,,,,,,,,,,,,,,,,,,,,,l,1,1.0536,"[""0.495"",""0.356"",""0.460"",""0.799""]","[0,1,1,1]",0,3,3,3,1,1,1,,,0,FALSE,,,,,,,,,,,,,,,,,,,,,,,,,,,,,,
,615f6dca1da7995918234a64,001,2022-04-28_20h06.02.830,classification_task,2021.2.3,MacIntel,59.99880002,615f6dca1da7995918234a64,626b377229c10585ec392f8a,626b39ebd2ec00a3a3c1f203,,,,,,,,,,,,,,,,,,,,,,,l,1,1.333,"[""0.151"",""0.356"",""0.460"",""0.882""]","[1,1,1,0]",0,4,4,4,1,1,1,,,0,FALSE,,,,,,,,,,,,,,,,,,,,,,,,,,,,,,
,615f6dca1da7995918234a64,001,2022-04-28_20h06.02.830,classification_task,2021.2.3,MacIntel,59.99880002,615f6dca1da7995918234a64,626b377229c10585ec392f8a,626b39ebd2ec00a3a3c1f203,,,,,,,,,,,,,,,,,,,,,,,a,1,0.5838,"[""0.309"",""0.534"",""0.886"",""0.926""]","[1,1,0,1]",0,5,5,5,1,0,0,,,0,FALSE,,,,,,,,,,,,,,,,,,,,,,,,,,,,,,
,615f6dca1da7995918234a64,001,2022-04-28_20h06.02.830,classification_task,2021.2.3,MacIntel,59.99880002,615f6dca1da7995918234a64,626b377229c10585ec392f8a,626b39ebd2ec00a3a3c1f203,,,,,,,,,,,,,,,,,,,,,,,a,1,0.7004,"[""0.272"",""0.393"",""0.886"",""0.960""]","[1,1,0,1]",0,6,6,6,1,0,1,,,0,FALSE,,,,,,,,,,,,,,,,,,,,,,,,,,,,,,
,615f6dca1da7995918234a64,001,2022-04-28_20h06.02.830,classification_task,2021.2.3,MacIntel,59.99880002,615f6dca1da7995918234a64,626b377229c10585ec392f8a,626b39ebd2ec00a3a3c1f203,,,,,,,,,,,,,,,,,,,,,,,a,1,1.2623,"[""0.309"",""0.534"",""0.848"",""0.655""]","[1,1,1,0]",0,7,7,7,1,0,0,,,0,FALSE,,,,,,,,,,,,,,,,,,,,,,,,,,,,,,
,615f6dca1da7995918234a64,001,2022-04-28_20h06.02.830,classification_task,2021.2.3,MacIntel,59.99880002,615f6dca1da7995918234a64,626b377229c10585ec392f8a,626b39ebd2ec00a3a3c1f203,,,,,,,,,,,,,,,,,,,,,,,l,1,0.5655,"[""0.151"",""0.356"",""0.031"",""0.799""]","[1,1,0,1]",0,8,8,8,1,1,1,,,0,FALSE,,,,,,,,,,,,,,,,,,,,,,,,,,,,,,
,615f6dca1da7995918234a64,001,2022-04-28_20h06.02.830,classification_task,2021.2.3,MacIntel,59.99880002,615f6dca1da7995918234a64,626b377229c10585ec392f8a,626b39ebd2ec00a3a3c1f203,,,,,,,,,,,,,,,,,,,,,,,l,0,1.8297,"[""0.272"",""0.054"",""0.738"",""0.960""]","[1,0,1,1]",0,9,9,9,1,0,1,,,0,FALSE,,,,,,,,,,,,,,,,,,,,,,,,,,,,,,
,615f6dca1da7995918234a64,001,2022-04-28_20h06.02.830,classification_task,2021.2.3,MacIntel,59.99880002,615f6dca1da7995918234a64,626b377229c10585ec392f8a,626b39ebd2ec00a3a3c1f203,,,,,,,,,,,,,,,,,,,,,,,a,1,0.9186,"[""0.309"",""0.886"",""0.848"",""0.926""]","[1,0,1,1]",0,10,10,10,1,0,0,,,0,FALSE,,,,,,,,,,,,,,,,,,,,,,,,,,,,,,
,615f6dca1da7995918234a64,001,2022-04-28_20h06.02.830,classification_task,2021.2.3,MacIntel,59.99880002,615f6dca1da7995918234a64,626b377229c10585ec392f8a,626b39ebd2ec00a3a3c1f203,,,,,,,,,,,,,,,,,,,,,,,l,0,1.6808,"[""0.044"",""0.393"",""0.738"",""0.960""]","[0,1,1,1]",0,11,11,11,1,0,1,,,0,FALSE,,,,,,,,,,,,,,,,,,,,,,,,,,,,,,
,615f6dca1da7995918234a64,001,2022-04-28_20h06.02.830,classification_task,2021.2.3,MacIntel,59.99880002,615f6dca1da7995918234a64,626b377229c10585ec392f8a,626b39ebd2ec00a3a3c1f203,,,,,,,,,,,,,,,,,,,,,,,a,0,1.0312,"[""0.096"",""0.888"",""0.589"",""0.691""]","[1,0,1,1]",0,12,12,12,1,1,0,,,0,FALSE,,,,,,,,,,,,,,,,,,,,,,,,,,,,,,
,615f6dca1da7995918234a64,001,2022-04-28_20h06.02.830,classification_task,2021.2.3,MacIntel,59.99880002,615f6dca1da7995918234a64,626b377229c10585ec392f8a,626b39ebd2ec00a3a3c1f203,,,,,,,,,,,,,,,,,,,,,,,l,0,0.84,"[""0.272"",""0.393"",""0.738"",""0.054""]","[1,1,1,0]",0,13,13,13,1,0,1,,,0,FALSE,,,,,,,,,,,,,,,,,,,,,,,,,,,,,,
,615f6dca1da7995918234a64,001,2022-04-28_20h06.02.830,classification_task,2021.2.3,MacIntel,59.99880002,615f6dca1da7995918234a64,626b377229c10585ec392f8a,626b39ebd2ec00a3a3c1f203,,,,,,,,,,,,,,,,,,,,,,,l,1,0.7527,"[""0.096"",""0.195"",""0.651"",""0.691""]","[1,1,0,1]",0,14,14,14,1,1,0,,,0,FALSE,,,,,,,,,,,,,,,,,,,,,,,,,,,,,,
,615f6dca1da7995918234a64,001,2022-04-28_20h06.02.830,classification_task,2021.2.3,MacIntel,59.99880002,615f6dca1da7995918234a64,626b377229c10585ec392f8a,626b39ebd2ec00a3a3c1f203,,,,,,,,,,,,,,,,,,,,,,,l,1,0.6864,"[""0.061"",""0.195"",""0.589"",""0.691""]","[0,1,1,1]",0,15,15,15,1,1,0,,,0,FALSE,,,,,,,,,,,,,,,,,,,,,,,,,,,,,,
,615f6dca1da7995918234a64,001,2022-04-28_20h06.02.830,classification_task,2021.2.3,MacIntel,59.99880002,615f6dca1da7995918234a64,626b377229c10585ec392f8a,626b39ebd2ec00a3a3c1f203,,,,,,,,,,,,,,,,,,,,,,,l,1,0.6148,"[""0.096"",""0.195"",""0.589"",""0.031""]","[1,1,1,0]",0,16,16,16,1,1,0,,,0,FALSE,,,,,,,,,,,,,,,,,,,,,,,,,,,,,,
,615f6dca1da7995918234a64,001,2022-04-28_20h06.02.830,classification_task,2021.2.3,MacIntel,59.99880002,615f6dca1da7995918234a64,626b377229c10585ec392f8a,626b39ebd2ec00a3a3c1f203,,,,,,,,,,,,,,,,,,,,,,,a,1,0.6214,"[""0.309"",""0.651"",""0.848"",""0.926""]","[1,0,1,1]",0,17,17,17,1,0,0,,,0,FALSE,,,,,,,,,,,,,,,,,,,,,,,,,,,,,,
,615f6dca1da7995918234a64,001,2022-04-28_20h06.02.830,classification_task,2021.2.3,MacIntel,59.99880002,615f6dca1da7995918234a64,626b377229c10585ec392f8a,626b39ebd2ec00a3a3c1f203,,,,,,,,,,,,,,,,,,,,,,,l,1,1.0074,"[""0.096"",""0.195"",""0.882"",""0.691""]","[1,1,0,1]",0,18,18,18,1,1,0,,,0,FALSE,,,,,,,,,,,,,,,,,,,,,,,,,,,,,,
,615f6dca1da7995918234a64,001,2022-04-28_20h06.02.830,classification_task,2021.2.3,MacIntel,59.99880002,615f6dca1da7995918234a64,626b377229c10585ec392f8a,626b39ebd2ec00a3a3c1f203,,,,,,,,,,,,,,,,,,,,,,,a,0,1.2847,"[""0.096"",""0.655"",""0.589"",""0.691""]","[1,0,1,1]",0,19,19,19,1,1,0,,,0,FALSE,,,,,,,,,,,,,,,,,,,,,,,,,,,,,,
,615f6dca1da7995918234a64,001,2022-04-28_20h06.02.830,classification_task,2021.2.3,MacIntel,59.99880002,615f6dca1da7995918234a64,626b377229c10585ec392f8a,626b39ebd2ec00a3a3c1f203,,,,,,,,,,,,,,,,,,,,,,,a,0,1.5713,"[""0.151"",""0.356"",""0.888"",""0.799""]","[1,1,0,1]",0,20,20,20,1,1,1,,,0,FALSE,,,,,,,,,,,,,,,,,,,,,,,,,,,,,,
,615f6dca1da7995918234a64,001,2022-04-28_20h06.02.830,classification_task,2021.2.3,MacIntel,59.99880002,615f6dca1da7995918234a64,626b377229c10585ec392f8a,626b39ebd2ec00a3a3c1f203,,,,,,,,,,,,,,,,,,,,,,,a,1,0.8647,"[""0.272"",""0.655"",""0.738"",""0.960""]","[1,0,1,1]",0,21,21,21,1,0,1,,,0,FALSE,,,,,,,,,,,,,,,,,,,,,,,,,,,,,,
,615f6dca1da7995918234a64,001,2022-04-28_20h06.02.830,classification_task,2021.2.3,MacIntel,59.99880002,615f6dca1da7995918234a64,626b377229c10585ec392f8a,626b39ebd2ec00a3a3c1f203,,,,,,,,,,,,,,,,,,,,,,,a,0,0.955,"[""0.151"",""0.882"",""0.460"",""0.799""]","[1,0,1,1]",0,22,22,22,1,1,1,,,0,FALSE,,,,,,,,,,,,,,,,,,,,,,,,,,,,,,
,615f6dca1da7995918234a64,001,2022-04-28_20h06.02.830,classification_task,2021.2.3,MacIntel,59.99880002,615f6dca1da7995918234a64,626b377229c10585ec392f8a,626b39ebd2ec00a3a3c1f203,,,,,,,,,,,,,,,,,,,,,,,a,1,0.7128,"[""0.309"",""0.534"",""0.631"",""0.926""]","[1,1,0,1]",0,23,23,23,1,0,0,,,0,FALSE,,,,,,,,,,,,,,,,,,,,,,,,,,,,,,
,615f6dca1da7995918234a64,001,2022-04-28_20h06.02.830,classification_task,2021.2.3,MacIntel,59.99880002,615f6dca1da7995918234a64,626b377229c10585ec392f8a,626b39ebd2ec00a3a3c1f203,,,,,,,,,,,,,,,,,,,,,,,a,1,2.6002,"[""0.051"",""0.393"",""0.738"",""0.960""]","[0,1,1,1]",0,24,24,24,1,0,1,,,0,FALSE,,,,,,,,,,,,,,,,,,,,,,,,,,,,,,
,615f6dca1da7995918234a64,001,2022-04-28_20h06.02.830,classification_task,2021.2.3,MacIntel,59.99880002,615f6dca1da7995918234a64,626b377229c10585ec392f8a,626b39ebd2ec00a3a3c1f203,,,,,,,,,,,,,,,,,,,,,,,l,0,0.777,"[""0.272"",""0.393"",""0.738"",""0.061""]","[1,1,1,0]",0,25,25,25,1,0,1,,,0,FALSE,,,,,,,,,,,,,,,,,,,,,,,,,,,,,,
,615f6dca1da7995918234a64,001,2022-04-28_20h06.02.830,classification_task,2021.2.3,MacIntel,59.99880002,615f6dca1da7995918234a64,626b377229c10585ec392f8a,626b39ebd2ec00a3a3c1f203,,,,,,,,,,,,,,,,,,,,,,,l,0,1.2853,"[""0.272"",""0.393"",""0.042"",""0.960""]","[1,1,0,1]",0,26,26,26,1,0,1,,,0,FALSE,,,,,,,,,,,,,,,,,,,,,,,,,,,,,,
,615f6dca1da7995918234a64,001,2022-04-28_20h06.02.830,classification_task,2021.2.3,MacIntel,59.99880002,615f6dca1da7995918234a64,626b377229c10585ec392f8a,626b39ebd2ec00a3a3c1f203,,,,,,,,,,,,,,,,,,,,,,,l,1,0.7193,"[""0.041"",""0.356"",""0.460"",""0.799""]","[0,1,1,1]",0,27,27,27,1,1,1,,,0,FALSE,,,,,,,,,,,,,,,,,,,,,,,,,,,,,,
,615f6dca1da7995918234a64,001,2022-04-28_20h06.02.830,classification_task,2021.2.3,MacIntel,59.99880002,615f6dca1da7995918234a64,626b377229c10585ec392f8a,626b39ebd2ec00a3a3c1f203,,,,,,,,,,,,,,,,,,,,,,,a,0,1.2965,"[""0.636"",""0.195"",""0.589"",""0.691""]","[0,1,1,1]",0,28,28,28,1,1,0,,,0,FALSE,,,,,,,,,,,,,,,,,,,,,,,,,,,,,,
,615f6dca1da7995918234a64,001,2022-04-28_20h06.02.830,classification_task,2021.2.3,MacIntel,59.99880002,615f6dca1da7995918234a64,626b377229c10585ec392f8a,626b39ebd2ec00a3a3c1f203,,,,,,,,,,,,,,,,,,,,,,,a,1,0.8976,"[""0.309"",""0.534"",""0.848"",""0.651""]","[1,1,1,0]",0,29,29,29,1,0,0,,,0,FALSE,,,,,,,,,,,,,,,,,,,,,,,,,,,,,,
,615f6dca1da7995918234a64,001,2022-04-28_20h06.02.830,classification_task,2021.2.3,MacIntel,59.99880002,615f6dca1da7995918234a64,626b377229c10585ec392f8a,626b39ebd2ec00a3a3c1f203,,,,,,,,,,,,,,,,,,,,,,,a,1,0.6034,"[""0.655"",""0.534"",""0.848"",""0.926""]","[0,1,1,1]",0,30,30,30,1,0,0,,,0,FALSE,,,,,,,,,,,,,,,,,,,,,,,,,,,,,,
,615f6dca1da7995918234a64,001,2022-04-28_20h06.02.830,classification_task,2021.2.3,MacIntel,59.99880002,615f6dca1da7995918234a64,626b377229c10585ec392f8a,626b39ebd2ec00a3a3c1f203,,,,,,,,,,,,,,,,,,,,,,,l,1,0.5293,"[""0.151"",""0.356"",""0.460"",""0.495""]","[1,1,1,0]",0,31,31,31,1,1,1,,,0,FALSE,,,,,,,,,,,,,,,,,,,,,,,,,,,,,,
,615f6dca1da7995918234a64,001,2022-04-28_20h06.02.830,classification_task,2021.2.3,MacIntel,59.99880002,615f6dca1da7995918234a64,626b377229c10585ec392f8a,626b39ebd2ec00a3a3c1f203,,,,,,,,,,,,,,,,,,,,,,,a,1,1.0906,"[""0.309"",""0.044"",""0.848"",""0.926""]","[1,0,1,1]",0,32,32,32,1,0,0,,,0,FALSE,,,,,,,,,,,,,,,,,,,,,,,,,,,,,,
,615f6dca1da7995918234a64,001,2022-04-28_20h06.02.830,classification_task,2021.2.3,MacIntel,59.99880002,615f6dca1da7995918234a64,626b377229c10585ec392f8a,626b39ebd2ec00a3a3c1f203,,,,,,,,,,,,,,,,,,,,,,,a,1,1.3612,"[""0.272"",""0.393"",""0.738"",""0.882""]","[1,1,1,0]",0,33,33,33,1,0,1,,,0,FALSE,,,,,,,,,,,,,,,,,,,,,,,,,,,,,,
,615f6dca1da7995918234a64,001,2022-04-28_20h06.02.830,classification_task,2021.2.3,MacIntel,59.99880002,615f6dca1da7995918234a64,626b377229c10585ec392f8a,626b39ebd2ec00a3a3c1f203,,,,,,,,,,,,,,,,,,,,,,,l,0,1.2354,"[""0.272"",""0.393"",""0.495"",""0.960""]","[1,1,0,1]",0,34,34,34,1,0,1,,,0,FALSE,,,,,,,,,,,,,,,,,,,,,,,,,,,,,,
,615f6dca1da7995918234a64,001,2022-04-28_20h06.02.830,classification_task,2021.2.3,MacIntel,59.99880002,615f6dca1da7995918234a64,626b377229c10585ec392f8a,626b39ebd2ec00a3a3c1f203,,,,,,,,,,,,,,,,,,,,,,,l,0,1.9974,"[""0.309"",""0.534"",""0.054"",""0.926""]","[1,1,0,1]",0,35,35,35,1,0,0,,,0,FALSE,,,,,,,,,,,,,,,,,,,,,,,,,,,,,,
,615f6dca1da7995918234a64,001,2022-04-28_20h06.02.830,classification_task,2021.2.3,MacIntel,59.99880002,615f6dca1da7995918234a64,626b377229c10585ec392f8a,626b39ebd2ec00a3a3c1f203,,,,,,,,,,,,,,,,,,,,,,,l,0,0.8363,"[""0.309"",""0.534"",""0.848"",""0.031""]","[1,1,1,0]",0,36,36,36,1,0,0,,,0,FALSE,,,,,,,,,,,,,,,,,,,,,,,,,,,,,,
,615f6dca1da7995918234a64,001,2022-04-28_20h06.02.830,classification_task,2021.2.3,MacIntel,59.99880002,615f6dca1da7995918234a64,626b377229c10585ec392f8a,626b39ebd2ec00a3a3c1f203,,,,,,,,,,,,,,,,,,,,,,,l,1,0.7846,"[""0.096"",""0.195"",""0.631"",""0.691""]","[1,1,0,1]",0,37,37,37,1,1,0,,,0,FALSE,,,,,,,,,,,,,,,,,,,,,,,,,,,,,,
,615f6dca1da7995918234a64,001,2022-04-28_20h06.02.830,classification_task,2021.2.3,MacIntel,59.99880002,615f6dca1da7995918234a64,626b377229c10585ec392f8a,626b39ebd2ec00a3a3c1f203,,,,,,,,,,,,,,,,,,,,,,,a,1,1.8706,"[""0.272"",""0.054"",""0.738"",""0.960""]","[1,0,1,1]",0,38,38,38,1,0,1,,,0,FALSE,,,,,,,,,,,,,,,,,,,,,,,,,,,,,,
,615f6dca1da7995918234a64,001,2022-04-28_20h06.02.830,classification_task,2021.2.3,MacIntel,59.99880002,615f6dca1da7995918234a64,626b377229c10585ec392f8a,626b39ebd2ec00a3a3c1f203,,,,,,,,,,,,,,,,,,,,,,,a,0,3.1433,"[""0.151"",""0.356"",""0.655"",""0.799""]","[1,1,0,1]",0,39,39,39,1,1,1,,,0,FALSE,,,,,,,,,,,,,,,,,,,,,,,,,,,,,,
,615f6dca1da7995918234a64,001,2022-04-28_20h06.02.830,classification_task,2021.2.3,MacIntel,59.99880002,615f6dca1da7995918234a64,626b377229c10585ec392f8a,626b39ebd2ec00a3a3c1f203,,,,,,,,,,,,,,,,,,,,,,,a,0,0.8697,"[""0.096"",""0.888"",""0.589"",""0.691""]","[1,0,1,1]",0,40,40,40,1,1,0,,,0,FALSE,,,,,,,,,,,,,,,,,,,,,,,,,,,,,,
,615f6dca1da7995918234a64,001,2022-04-28_20h06.02.830,classification_task,2021.2.3,MacIntel,59.99880002,615f6dca1da7995918234a64,626b377229c10585ec392f8a,626b39ebd2ec00a3a3c1f203,,,,,,,,,,,,,,,,,,,,,,,l,1,0.5206,"[""0.096"",""0.195"",""0.589"",""0.041""]","[1,1,1,0]",0,41,41,41,1,1,0,,,0,FALSE,,,,,,,,,,,,,,,,,,,,,,,,,,,,,,
,615f6dca1da7995918234a64,001,2022-04-28_20h06.02.830,classification_task,2021.2.3,MacIntel,59.99880002,615f6dca1da7995918234a64,626b377229c10585ec392f8a,626b39ebd2ec00a3a3c1f203,,,,,,,,,,,,,,,,,,,,,,,a,0,0.8845,"[""0.151"",""0.886"",""0.460"",""0.799""]","[1,0,1,1]",0,42,42,42,1,1,1,,,0,FALSE,,,,,,,,,,,,,,,,,,,,,,,,,,,,,,
,615f6dca1da7995918234a64,001,2022-04-28_20h06.02.830,classification_task,2021.2.3,MacIntel,59.99880002,615f6dca1da7995918234a64,626b377229c10585ec392f8a,626b39ebd2ec00a3a3c1f203,,,,,,,,,,,,,,,,,,,,,,,a,1,0.6037,"[""0.640"",""0.393"",""0.738"",""0.960""]","[0,1,1,1]",0,43,43,43,1,0,1,,,0,FALSE,,,,,,,,,,,,,,,,,,,,,,,,,,,,,,
,615f6dca1da7995918234a64,001,2022-04-28_20h06.02.830,classification_task,2021.2.3,MacIntel,59.99880002,615f6dca1da7995918234a64,626b377229c10585ec392f8a,626b39ebd2ec00a3a3c1f203,,,,,,,,,,,,,,,,,,,,,,,a,0,0.8032,"[""0.640"",""0.356"",""0.460"",""0.799""]","[0,1,1,1]",0,44,44,44,1,1,1,,,0,FALSE,,,,,,,,,,,,,,,,,,,,,,,,,,,,,,
,615f6dca1da7995918234a64,001,2022-04-28_20h06.02.830,classification_task,2021.2.3,MacIntel,59.99880002,615f6dca1da7995918234a64,626b377229c10585ec392f8a,626b39ebd2ec00a3a3c1f203,,,,,,,,,,,,,,,,,,,,,,,a,0,1.0184,"[""0.495"",""0.195"",""0.589"",""0.691""]","[0,1,1,1]",0,45,45,45,1,1,0,,,0,FALSE,,,,,,,,,,,,,,,,,,,,,,,,,,,,,,
,615f6dca1da7995918234a64,001,2022-04-28_20h06.02.830,classification_task,2021.2.3,MacIntel,59.99880002,615f6dca1da7995918234a64,626b377229c10585ec392f8a,626b39ebd2ec00a3a3c1f203,,,,,,,,,,,,,,,,,,,,,,,a,1,0.5835,"[""0.651"",""0.534"",""0.848"",""0.926""]","[0,1,1,1]",0,46,46,46,1,0,0,,,0,FALSE,,,,,,,,,,,,,,,,,,,,,,,,,,,,,,
,615f6dca1da7995918234a64,001,2022-04-28_20h06.02.830,classification_task,2021.2.3,MacIntel,59.99880002,615f6dca1da7995918234a64,626b377229c10585ec392f8a,626b39ebd2ec00a3a3c1f203,,,,,,,,,,,,,,,,,,,,,,,l,1,0.8672,"[""0.151"",""0.356"",""0.460"",""0.636""]","[1,1,1,0]",0,47,47,47,1,1,1,,,0,FALSE,,,,,,,,,,,,,,,,,,,,,,,,,,,,,,
,615f6dca1da7995918234a64,001,2022-04-28_20h06.02.830,classification_task,2021.2.3,MacIntel,59.99880002,615f6dca1da7995918234a64,626b377229c10585ec392f8a,626b39ebd2ec00a3a3c1f203,,,,,,,,,,,,,,,,,,,,,,,l,1,0.6985,"[""0.041"",""0.356"",""0.460"",""0.799""]","[0,1,1,1]",0,48,48,48,1,1,1,,,0,FALSE,,,,,,,,,,,,,,,,,,,,,,,,,,,,,,
,615f6dca1da7995918234a64,001,2022-04-28_20h06.02.830,classification_task,2021.2.3,MacIntel,59.99880002,615f6dca1da7995918234a64,626b377229c10585ec392f8a,626b39ebd2ec00a3a3c1f203,,,,,,,,,,,,,,,,,,,,,,,l,0,0.647,"[""0.272"",""0.393"",""0.051"",""0.960""]","[1,1,0,1]",0,49,49,49,1,0,1,,,0,FALSE,,,,,,,,,,,,,,,,,,,,,,,,,,,,,,
,615f6dca1da7995918234a64,001,2022-04-28_20h06.02.830,classification_task,2021.2.3,MacIntel,59.99880002,615f6dca1da7995918234a64,626b377229c10585ec392f8a,626b39ebd2ec00a3a3c1f203,,,,,,,,,,,,,,,,,,,,,,,l,1,0.5512,"[""0.096"",""0.195"",""0.589"",""0.636""]","[1,1,1,0]",0,50,50,50,1,1,0,,,0,FALSE,,,,,,,,,,,,,,,,,,,,,,,,,,,,,,
,615f6dca1da7995918234a64,001,2022-04-28_20h06.02.830,classification_task,2021.2.3,MacIntel,59.99880002,615f6dca1da7995918234a64,626b377229c10585ec392f8a,626b39ebd2ec00a3a3c1f203,,,,,,,,,,,,,,,,,,,,,,,a,1,0.75,"[""0.272"",""0.393"",""0.738"",""0.886""]","[1,1,1,0]",0,51,51,51,1,0,1,,,0,FALSE,,,,,,,,,,,,,,,,,,,,,,,,,,,,,,
,615f6dca1da7995918234a64,001,2022-04-28_20h06.02.830,classification_task,2021.2.3,MacIntel,59.99880002,615f6dca1da7995918234a64,626b377229c10585ec392f8a,626b39ebd2ec00a3a3c1f203,,,,,,,,,,,,,,,,,,,,,,,a,0,0.7073,"[""0.655"",""0.195"",""0.589"",""0.691""]","[0,1,1,1]",0,52,52,52,1,1,0,,,0,FALSE,,,,,,,,,,,,,,,,,,,,,,,,,,,,,,
,615f6dca1da7995918234a64,001,2022-04-28_20h06.02.830,classification_task,2021.2.3,MacIntel,59.99880002,615f6dca1da7995918234a64,626b377229c10585ec392f8a,626b39ebd2ec00a3a3c1f203,,,,,,,,,,,,,,,,,,,,,,,l,1,0.6377,"[""0.096"",""0.195"",""0.061"",""0.691""]","[1,1,0,1]",0,53,53,53,1,1,0,,,0,FALSE,,,,,,,,,,,,,,,,,,,,,,,,,,,,,,
,615f6dca1da7995918234a64,001,2022-04-28_20h06.02.830,classification_task,2021.2.3,MacIntel,59.99880002,615f6dca1da7995918234a64,626b377229c10585ec392f8a,626b39ebd2ec00a3a3c1f203,,,,,,,,,,,,,,,,,,,,,,,l,1,0.6648,"[""0.151"",""0.356"",""0.460"",""0.888""]","[1,1,1,0]",0,54,54,54,1,1,1,,,0,FALSE,,,,,,,,,,,,,,,,,,,,,,,,,,,,,,
,615f6dca1da7995918234a64,001,2022-04-28_20h06.02.830,classification_task,2021.2.3,MacIntel,59.99880002,615f6dca1da7995918234a64,626b377229c10585ec392f8a,626b39ebd2ec00a3a3c1f203,,,,,,,,,,,,,,,,,,,,,,,l,0,1.6012,"[""0.309"",""0.534"",""0.061"",""0.926""]","[1,1,0,1]",0,55,55,55,1,0,0,,,0,FALSE,,,,,,,,,,,,,,,,,,,,,,,,,,,,,,
,615f6dca1da7995918234a64,001,2022-04-28_20h06.02.830,classification_task,2021.2.3,MacIntel,59.99880002,615f6dca1da7995918234a64,626b377229c10585ec392f8a,626b39ebd2ec00a3a3c1f203,,,,,,,,,,,,,,,,,,,,,,,l,1,0.5985,"[""0.151"",""0.356"",""0.061"",""0.799""]","[1,1,0,1]",0,56,56,56,1,1,1,,,0,FALSE,,,,,,,,,,,,,,,,,,,,,,,,,,,,,,
,615f6dca1da7995918234a64,001,2022-04-28_20h06.02.830,classification_task,2021.2.3,MacIntel,59.99880002,615f6dca1da7995918234a64,626b377229c10585ec392f8a,626b39ebd2ec00a3a3c1f203,,,,,,,,,,,,,,,,,,,,,,,l,0,0.4841,"[""0.309"",""0.534"",""0.848"",""0.051""]","[1,1,1,0]",0,57,57,57,1,0,0,,,0,FALSE,,,,,,,,,,,,,,,,,,,,,,,,,,,,,,
,615f6dca1da7995918234a64,001,2022-04-28_20h06.02.830,classification_task,2021.2.3,MacIntel,59.99880002,615f6dca1da7995918234a64,626b377229c10585ec392f8a,626b39ebd2ec00a3a3c1f203,,,,,,,,,,,,,,,,,,,,,,,a,1,0.7847,"[""0.651"",""0.534"",""0.848"",""0.926""]","[0,1,1,1]",0,58,58,58,1,0,0,,,0,FALSE,,,,,,,,,,,,,,,,,,,,,,,,,,,,,,
,615f6dca1da7995918234a64,001,2022-04-28_20h06.02.830,classification_task,2021.2.3,MacIntel,59.99880002,615f6dca1da7995918234a64,626b377229c10585ec392f8a,626b39ebd2ec00a3a3c1f203,,,,,,,,,,,,,,,,,,,,,,,a,0,0.7351,"[""0.151"",""0.886"",""0.460"",""0.799""]","[1,0,1,1]",0,59,59,59,1,1,1,,,0,FALSE,,,,,,,,,,,,,,,,,,,,,,,,,,,,,,
,615f6dca1da7995918234a64,001,2022-04-28_20h06.02.830,classification_task,2021.2.3,MacIntel,59.99880002,615f6dca1da7995918234a64,626b377229c10585ec392f8a,626b39ebd2ec00a3a3c1f203,,,,,,,,,,,,,,,,,,,,,,,a,1,1.3825,"[""0.041"",""0.393"",""0.738"",""0.960""]","[0,1,1,1]",0,60,60,60,1,0,1,,,0,FALSE,,,,,,,,,,,,,,,,,,,,,,,,,,,,,,
,615f6dca1da7995918234a64,001,2022-04-28_20h06.02.830,classification_task,2021.2.3,MacIntel,59.99880002,615f6dca1da7995918234a64,626b377229c10585ec392f8a,626b39ebd2ec00a3a3c1f203,,,,,,,,,,,,,,,,,,,,,,,l,1,0.4559,"[""0.096"",""0.051"",""0.589"",""0.691""]","[1,0,1,1]",0,61,61,61,1,1,0,,,0,FALSE,,,,,,,,,,,,,,,,,,,,,,,,,,,,,,
,615f6dca1da7995918234a64,001,2022-04-28_20h06.02.830,classification_task,2021.2.3,MacIntel,59.99880002,615f6dca1da7995918234a64,626b377229c10585ec392f8a,626b39ebd2ec00a3a3c1f203,,,,,,,,,,,,,,,,,,,,,,,a,1,1.4313,"[""0.309"",""0.061"",""0.848"",""0.926""]","[1,0,1,1]",0,62,62,62,1,0,0,,,0,FALSE,,,,,,,,,,,,,,,,,,,,,,,,,,,,,,
,615f6dca1da7995918234a64,001,2022-04-28_20h06.02.830,classification_task,2021.2.3,MacIntel,59.99880002,615f6dca1da7995918234a64,626b377229c10585ec392f8a,626b39ebd2ec00a3a3c1f203,,,,,,,,,,,,,,,,,,,,,,,a,1,0.6192,"[""0.272"",""0.882"",""0.738"",""0.960""]","[1,0,1,1]",0,63,63,63,1,0,1,,,0,FALSE,,,,,,,,,,,,,,,,,,,,,,,,,,,,,,
,615f6dca1da7995918234a64,001,2022-04-28_20h06.02.830,classification_task,2021.2.3,MacIntel,59.99880002,615f6dca1da7995918234a64,626b377229c10585ec392f8a,626b39ebd2ec00a3a3c1f203,,,,,,,,,,,,,,,,,,,,,,,,,,,,,,,,,,,,,,,0, ,,0,1.380200798,144.8198,0,2,2,2,1,2,3,,,,,,,,,,,,,,,,,
,615f6dca1da7995918234a64,001,2022-04-28_20h06.02.830,classification_task,2021.2.3,MacIntel,59.99880002,615f6dca1da7995918234a64,626b377229c10585ec392f8a,626b39ebd2ec00a3a3c1f203,,,,,,,,,,,,,,,,,,,,,,,,,,,,,,,,,,,,,,,1,  ,,0,0.905809442,146.3846,0,2,2,2,1,2,3,,,,,,,,,,,,,,,,,
,615f6dca1da7995918234a64,001,2022-04-28_20h06.02.830,classification_task,2021.2.3,MacIntel,59.99880002,615f6dca1da7995918234a64,626b377229c10585ec392f8a,626b39ebd2ec00a3a3c1f203,,,,,,,,,,,,,,,,,,,,,,,,,,,,,,,,,,,,,,,2,  ,,0,0.734749536,149.4777,0,2,2,2,1,2,3,,,,,,,,,,,,,,,,,
,615f6dca1da7995918234a64,001,2022-04-28_20h06.02.830,classification_task,2021.2.3,MacIntel,59.99880002,615f6dca1da7995918234a64,626b377229c10585ec392f8a,626b39ebd2ec00a3a3c1f203,,,,,,,,,,,,,,,,,,,,,,,,,,,,,,,,,,,,,,,,,,,,,0,2,2,2,1,,3,,,,,,,,,,,,,,,,,
,615f6dca1da7995918234a64,001,2022-04-28_20h06.02.830,classification_task,2021.2.3,MacIntel,59.99880002,615f6dca1da7995918234a64,626b377229c10585ec392f8a,626b39ebd2ec00a3a3c1f203,,,,,,,,,,,,,,,,,,,,,,,,,,,,,,,,,,,,,,,,,,,,,,,,,,,,,I believe the aid is a competent performer,,0.7,0,4,732.4976,0,0,0,0,1,0,,,,
,615f6dca1da7995918234a64,001,2022-04-28_20h06.02.830,classification_task,2021.2.3,MacIntel,59.99880002,615f6dca1da7995918234a64,626b377229c10585ec392f8a,626b39ebd2ec00a3a3c1f203,,,,,,,,,,,,,,,,,,,,,,,,,,,,,,,,,,,,,,,,,,,,,,,,,,,,,I trust the aid,,0.7,0,4,733.4477,0,0,0,0,1,0,,,,
,615f6dca1da7995918234a64,001,2022-04-28_20h06.02.830,classification_task,2021.2.3,MacIntel,59.99880002,615f6dca1da7995918234a64,626b377229c10585ec392f8a,626b39ebd2ec00a3a3c1f203,,,,,,,,,,,,,,,,,,,,,,,,,,,,,,,,,,,,,,,,,,,,,,,,,,,,,I have confidence in the advice given by the aid,,0.7,0,4,735.3635,0,0,0,0,1,0,,,,
,615f6dca1da7995918234a64,001,2022-04-28_20h06.02.830,classification_task,2021.2.3,MacIntel,59.99880002,615f6dca1da7995918234a64,626b377229c10585ec392f8a,626b39ebd2ec00a3a3c1f203,,,,,,,,,,,,,,,,,,,,,,,,,,,,,,,,,,,,,,,,,,,,,,,,,,,,,I can depend on the aid,,0.7,0,4,737.1434,0,0,0,0,1,0,,,,
,615f6dca1da7995918234a64,001,2022-04-28_20h06.02.830,classification_task,2021.2.3,MacIntel,59.99880002,615f6dca1da7995918234a64,626b377229c10585ec392f8a,626b39ebd2ec00a3a3c1f203,,,,,,,,,,,,,,,,,,,,,,,,,,,,,,,,,,,,,,,,,,,,,,,,,,,,,I can rely on the aid to behave in consistent ways,,0.7,0,4,740.0321,0,0,0,0,1,0,,,,
,615f6dca1da7995918234a64,001,2022-04-28_20h06.02.830,classification_task,2021.2.3,MacIntel,59.99880002,615f6dca1da7995918234a64,626b377229c10585ec392f8a,626b39ebd2ec00a3a3c1f203,,,,,,,,,,,,,,,,,,,,,,,,,,,,,,,,,,,,,,,,,,,,,,,,,,,,,I can rely on the aid to do its best every time I take its advice,,0.7,0,4,742.4693,0,0,0,0,1,0,,,,
,615f6dca1da7995918234a64,001,2022-04-28_20h06.02.830,classification_task,2021.2.3,MacIntel,59.99880002,615f6dca1da7995918234a64,626b377229c10585ec392f8a,626b39ebd2ec00a3a3c1f203,,,,,,,,,,,,,,,,,,,,,,,,,,,,,,,,,,,,,,,,,,,,,,,,,,,,,"On trials you completed with assistance from the aid, how frequently did you think the aid was correct?",,0.7,0,80%,,0,0,0,0,1,0,,,,
,615f6dca1da7995918234a64,001,2022-04-28_20h06.02.830,classification_task,2021.2.3,MacIntel,59.99880002,615f6dca1da7995918234a64,626b377229c10585ec392f8a,626b39ebd2ec00a3a3c1f203,,,,,,,,,,,,,,,,,,,,,,,,,,,,,,,,,,,,,,,,,,,,,,,,,,,,,"On trials you completed without the aid, how frequently did you think you were correct?",,0.7,0,60%,,0,0,0,0,1,0,,,,
,615f6dca1da7995918234a64,001,2022-04-28_20h06.02.830,classification_task,2021.2.3,MacIntel,59.99880002,615f6dca1da7995918234a64,626b377229c10585ec392f8a,626b39ebd2ec00a3a3c1f203,,,,,,,,,,,,,,,,,,,,,,,,,,,,,,,,,,,,,,,,,,,,,,,,,,,,,,,,,,,0,0,0,0,1,,,,,
,615f6dca1da7995918234a64,001,2022-04-28_20h06.02.830,classification_task,2021.2.3,MacIntel,59.99880002,615f6dca1da7995918234a64,626b377229c10585ec392f8a,626b39ebd2ec00a3a3c1f203,,,,,,,,,,,,,,,,,,,,,,,,,,,,,,,,,,,,,,,,,,,,,,,,,,,,,,,,,,,,,,,,,space,11.15,769.1911,
,615f6dca1da7995918234a64,001,2022-04-28_20h06.02.830,classification_task,2021.2.3,MacIntel,59.99880002,615f6dca1da7995918234a64,626b377229c10585ec392f8a,626b39ebd2ec00a3a3c1f203,,,,,,,,,,,,,,,,,,,,,,,,,,,,,,,,,,,,,,,,,,,,,,,,,,,,,,,,,,,,,,,,,,,,"Mozilla/5.0 (Macintosh; Intel Mac OS X 10_15_7) AppleWebKit/537.36 (KHTML, like Gecko) Chrome/100.0.4896.127 Safari/537.36"
