usingWebGL,participant,session,date,expName,psychopyVersion,OS,frameRate,study_id,signatures_friend,signatures_foe,band_ranges_top,band_ranges_bottom,formitemText,formtype,formundefined,formitemWidth,formindex,formresponse,formrt,key_resp_2.keys,key_resp_2.rt,tute_resp.keys,tute_resp.rt,tutorial.thisRepN,tutorial.thisTrialN,tutorial.thisN,tutorial.thisIndex,tutorial.ran,key_resp_4.keys,key_resp_4.rt,key_resp.keys,key_resp.corr,key_resp.rt,lines_presented,is_signal_presented,trials.thisRepN,trials.thisTrialN,trials.thisN,trials.thisIndex,trials.ran,vessel,active_band,lines,is_signal,supported_pos,catch_trial,debrief_formindex,debrief_formitemText,debrief_formtype,debrief_formitemWidth,debrief_formresponse,debrief_formrt,phases.thisRepN,phases.thisTrialN,phases.thisN,phases.thisIndex,phases.ran,phases.order,phase,key_resp_3.keys,trustitemText,trusttype,trustitemWidth,trustindex,trustresponse,trustrt,support_status.thisRepN,support_status.thisTrialN,support_status.thisN,support_status.thisIndex,support_status.ran,support_status.order,key_resp_5.keys,key_resp_5.rt,globalClockTime,userAgent,manualCondition
TRUE,61621d61b0eedb6e196e0950,627c6fc12ca7f3627b95733f,2022-05-11_21h25.51.585,classification_task,2021.2.3,Win32,60.0528465,627c6715c52fd12f31907bcf,,,,,,,,,,,,,,,,,,,,,,,,,,,,,,,,,,,,,,,,,,,,,,,,,,,,,,,,,,,,,,,,,,,,,
,61621d61b0eedb6e196e0950,627c6fc12ca7f3627b95733f,2022-05-11_21h25.51.585,classification_task,2021.2.3,Win32,60.0528465,627c6715c52fd12f31907bcf,"[[""0.285"",""0.557"",""0.903"",""0.943""],[""0.320"",""0.412"",""0.633"",""0.845""]]","[[""0.074"",""0.214"",""0.599"",""0.805""],[""0.146"",""0.366"",""0.481"",""0.728""]]","[1,10]","[100,1000]",Video game experience,,,0.7,0,,,,,,,,,,,,,,,,,,,,,,,,,,,,,,,,,,,,,,,,,,,,,,,,,,,,,,,,,,,,
,61621d61b0eedb6e196e0950,627c6fc12ca7f3627b95733f,2022-05-11_21h25.51.585,classification_task,2021.2.3,Win32,60.0528465,627c6715c52fd12f31907bcf,,,,,Approximately how many hours did you spend playing video games in the last week?,,,0.7,0,8,,,,,,,,,,,,,,,,,,,,,,,,,,,,,,,,,,,,,,,,,,,,,,,,,,,,,,,,,,,
,61621d61b0eedb6e196e0950,627c6fc12ca7f3627b95733f,2022-05-11_21h25.51.585,classification_task,2021.2.3,Win32,60.0528465,627c6715c52fd12f31907bcf,,,,,"Which game did you play the most this year? (Enter ""None"" if you didn't play any)",,,0.7,0,Metal Gear Solid 4,,,,,,,,,,,,,,,,,,,,,,,,,,,,,,,,,,,,,,,,,,,,,,,,,,,,,,,,,,,
,61621d61b0eedb6e196e0950,627c6fc12ca7f3627b95733f,2022-05-11_21h25.51.585,classification_task,2021.2.3,Win32,60.0528465,627c6715c52fd12f31907bcf,,,,,Visual perception,,,0.7,0,,,,,,,,,,,,,,,,,,,,,,,,,,,,,,,,,,,,,,,,,,,,,,,,,,,,,,,,,,,,
,61621d61b0eedb6e196e0950,627c6fc12ca7f3627b95733f,2022-05-11_21h25.51.585,classification_task,2021.2.3,Win32,60.0528465,627c6715c52fd12f31907bcf,,,,,Do you have any form of color blindness?,,,0.7,0,No,55.2768,,,,,,,,,,,,,,,,,,,,,,,,,,,,,,,,,,,,,,,,,,,,,,,,,,,,,,,,,,
,61621d61b0eedb6e196e0950,627c6fc12ca7f3627b95733f,2022-05-11_21h25.51.585,classification_task,2021.2.3,Win32,60.0528465,627c6715c52fd12f31907bcf,,,,,Do you use software to change the colour temperature of your screen (e.g. f.lux)?,,,0.7,0,No,59.6555,,,,,,,,,,,,,,,,,,,,,,,,,,,,,,,,,,,,,,,,,,,,,,,,,,,,,,,,,,
,61621d61b0eedb6e196e0950,627c6fc12ca7f3627b95733f,2022-05-11_21h25.51.585,classification_task,2021.2.3,Win32,60.0528465,627c6715c52fd12f31907bcf,,,,,,,,,,,,space,51.8909,space,9.5804,0,0,0,0,1,,,,,,,,,,,,,,,,,,,,,,,,,,,,,,,,,,,,,,,,,,,,,,,,,
,61621d61b0eedb6e196e0950,627c6fc12ca7f3627b95733f,2022-05-11_21h25.51.585,classification_task,2021.2.3,Win32,60.0528465,627c6715c52fd12f31907bcf,,,,,,,,,,,,,,space,18.5672,1,0,1,0,1,,,,,,,,,,,,,,,,,,,,,,,,,,,,,,,,,,,,,,,,,,,,,,,,,
,61621d61b0eedb6e196e0950,627c6fc12ca7f3627b95733f,2022-05-11_21h25.51.585,classification_task,2021.2.3,Win32,60.0528465,627c6715c52fd12f31907bcf,,,,,,,,,,,,,,space,27.4997,2,0,2,0,1,,,,,,,,,,,,,,,,,,,,,,,,,,,,,,,,,,,,,,,,,,,,,,,,,
,61621d61b0eedb6e196e0950,627c6fc12ca7f3627b95733f,2022-05-11_21h25.51.585,classification_task,2021.2.3,Win32,60.0528465,627c6715c52fd12f31907bcf,,,,,,,,,,,,,,space,27.6256,3,0,3,0,1,,,,,,,,,,,,,,,,,,,,,,,,,,,,,,,,,,,,,,,,,,,,,,,,,
,61621d61b0eedb6e196e0950,627c6fc12ca7f3627b95733f,2022-05-11_21h25.51.585,classification_task,2021.2.3,Win32,60.0528465,627c6715c52fd12f31907bcf,,,,,,,,,,,,,,space,16.8836,4,0,4,0,1,,,,,,,,,,,,,,,,,,,,,,,,,,,,,,,,,,,,,,,,,,,,,,,,,
,61621d61b0eedb6e196e0950,627c6fc12ca7f3627b95733f,2022-05-11_21h25.51.585,classification_task,2021.2.3,Win32,60.0528465,627c6715c52fd12f31907bcf,,,,,,,,,,,,,,,,,,,,,space,24.8897,a,1,3.4421,"[""0.690"",""0.412"",""0.633"",""0.845""]","[0,1,1,1]",0,0,0,0,1,0,1,,,1,FALSE,,,,,,,,,,,,,,,,,,,,,,,,,,,,,,,
,61621d61b0eedb6e196e0950,627c6fc12ca7f3627b95733f,2022-05-11_21h25.51.585,classification_task,2021.2.3,Win32,60.0528465,627c6715c52fd12f31907bcf,,,,,,,,,,,,,,,,,,,,,,,a,1,6.0076,"[""0.285"",""0.557"",""0.903"",""0.690""]","[1,1,1,0]",0,1,1,1,1,0,0,,,1,FALSE,,,,,,,,,,,,,,,,,,,,,,,,,,,,,,,
,61621d61b0eedb6e196e0950,627c6fc12ca7f3627b95733f,2022-05-11_21h25.51.585,classification_task,2021.2.3,Win32,60.0528465,627c6715c52fd12f31907bcf,,,,,,,,,,,,,,,,,,,,,,,l,1,4.8935,"[""0.074"",""0.214"",""0.679"",""0.805""]","[1,1,0,1]",0,2,2,2,1,1,0,,,1,FALSE,,,,,,,,,,,,,,,,,,,,,,,,,,,,,,,
,61621d61b0eedb6e196e0950,627c6fc12ca7f3627b95733f,2022-05-11_21h25.51.585,classification_task,2021.2.3,Win32,60.0528465,627c6715c52fd12f31907bcf,,,,,,,,,,,,,,,,,,,,,,,l,1,3.5503,"[""0.074"",""0.031"",""0.599"",""0.805""]","[1,0,1,1]",0,3,3,3,1,1,0,,,1,FALSE,,,,,,,,,,,,,,,,,,,,,,,,,,,,,,,
,61621d61b0eedb6e196e0950,627c6fc12ca7f3627b95733f,2022-05-11_21h25.51.585,classification_task,2021.2.3,Win32,60.0528465,627c6715c52fd12f31907bcf,,,,,,,,,,,,,,,,,,,,,,,l,1,2.8878,"[""0.180"",""0.214"",""0.599"",""0.805""]","[0,1,1,1]",0,4,4,4,1,1,0,,,1,FALSE,,,,,,,,,,,,,,,,,,,,,,,,,,,,,,,
,61621d61b0eedb6e196e0950,627c6fc12ca7f3627b95733f,2022-05-11_21h25.51.585,classification_task,2021.2.3,Win32,60.0528465,627c6715c52fd12f31907bcf,,,,,,,,,,,,,,,,,,,,,,,l,1,4.1526,"[""0.146"",""0.366"",""0.481"",""0.692""]","[1,1,1,0]",0,5,5,5,1,1,1,,,1,FALSE,,,,,,,,,,,,,,,,,,,,,,,,,,,,,,,
,61621d61b0eedb6e196e0950,627c6fc12ca7f3627b95733f,2022-05-11_21h25.51.585,classification_task,2021.2.3,Win32,60.0528465,627c6715c52fd12f31907bcf,,,,,,,,,,,,,,,,,,,,,,,l,0,3.0847,"[""0.320"",""0.412"",""0.180"",""0.845""]","[1,1,0,1]",0,6,6,6,1,0,1,,,1,FALSE,,,,,,,,,,,,,,,,,,,,,,,,,,,,,,,
,61621d61b0eedb6e196e0950,627c6fc12ca7f3627b95733f,2022-05-11_21h25.51.585,classification_task,2021.2.3,Win32,60.0528465,627c6715c52fd12f31907bcf,,,,,,,,,,,,,,,,,,,,,,,l,1,4.6479,"[""0.146"",""0.692"",""0.481"",""0.728""]","[1,0,1,1]",0,7,7,7,1,1,1,,,1,FALSE,,,,,,,,,,,,,,,,,,,,,,,,,,,,,,,
,61621d61b0eedb6e196e0950,627c6fc12ca7f3627b95733f,2022-05-11_21h25.51.585,classification_task,2021.2.3,Win32,60.0528465,627c6715c52fd12f31907bcf,,,,,,,,,,,,,,,,,,,,,,,a,1,2.0216,"[""0.320"",""0.412"",""0.633"",""0.692""]","[1,1,1,0]",0,8,8,8,1,0,1,,,1,FALSE,,,,,,,,,,,,,,,,,,,,,,,,,,,,,,,
,61621d61b0eedb6e196e0950,627c6fc12ca7f3627b95733f,2022-05-11_21h25.51.585,classification_task,2021.2.3,Win32,60.0528465,627c6715c52fd12f31907bcf,,,,,,,,,,,,,,,,,,,,,,,a,1,1.7502,"[""0.320"",""0.690"",""0.633"",""0.845""]","[1,0,1,1]",0,9,9,9,1,0,1,,,1,FALSE,,,,,,,,,,,,,,,,,,,,,,,,,,,,,,,
,61621d61b0eedb6e196e0950,627c6fc12ca7f3627b95733f,2022-05-11_21h25.51.585,classification_task,2021.2.3,Win32,60.0528465,627c6715c52fd12f31907bcf,,,,,,,,,,,,,,,,,,,,,,,l,1,4.0456,"[""0.146"",""0.366"",""0.031"",""0.728""]","[1,1,0,1]",0,10,10,10,1,1,1,,,1,FALSE,,,,,,,,,,,,,,,,,,,,,,,,,,,,,,,
,61621d61b0eedb6e196e0950,627c6fc12ca7f3627b95733f,2022-05-11_21h25.51.585,classification_task,2021.2.3,Win32,60.0528465,627c6715c52fd12f31907bcf,,,,,,,,,,,,,,,,,,,,,,,a,1,2.4168,"[""0.285"",""0.763"",""0.903"",""0.943""]","[1,0,1,1]",0,11,11,11,1,0,0,,,1,FALSE,,,,,,,,,,,,,,,,,,,,,,,,,,,,,,,
,61621d61b0eedb6e196e0950,627c6fc12ca7f3627b95733f,2022-05-11_21h25.51.585,classification_task,2021.2.3,Win32,60.0528465,627c6715c52fd12f31907bcf,,,,,,,,,,,,,,,,,,,,,,,a,1,1.5938,"[""0.763"",""0.557"",""0.903"",""0.943""]","[0,1,1,1]",0,12,12,12,1,0,0,,,1,FALSE,,,,,,,,,,,,,,,,,,,,,,,,,,,,,,,
,61621d61b0eedb6e196e0950,627c6fc12ca7f3627b95733f,2022-05-11_21h25.51.585,classification_task,2021.2.3,Win32,60.0528465,627c6715c52fd12f31907bcf,,,,,,,,,,,,,,,,,,,,,,,l,1,2.6339,"[""0.074"",""0.214"",""0.599"",""0.180""]","[1,1,1,0]",0,13,13,13,1,1,0,,,1,FALSE,,,,,,,,,,,,,,,,,,,,,,,,,,,,,,,
,61621d61b0eedb6e196e0950,627c6fc12ca7f3627b95733f,2022-05-11_21h25.51.585,classification_task,2021.2.3,Win32,60.0528465,627c6715c52fd12f31907bcf,,,,,,,,,,,,,,,,,,,,,,,a,1,1.9351,"[""0.285"",""0.557"",""0.768"",""0.943""]","[1,1,0,1]",0,14,14,14,1,0,0,,,1,FALSE,,,,,,,,,,,,,,,,,,,,,,,,,,,,,,,
,61621d61b0eedb6e196e0950,627c6fc12ca7f3627b95733f,2022-05-11_21h25.51.585,classification_task,2021.2.3,Win32,60.0528465,627c6715c52fd12f31907bcf,,,,,,,,,,,,,,,,,,,,,,,l,1,2.4712,"[""0.677"",""0.366"",""0.481"",""0.728""]","[0,1,1,1]",0,15,15,15,1,1,1,,,1,FALSE,,,,,,,,,,,,,,,,,,,,,,,,,,,,,,,
,61621d61b0eedb6e196e0950,627c6fc12ca7f3627b95733f,2022-05-11_21h25.51.585,classification_task,2021.2.3,Win32,60.0528465,627c6715c52fd12f31907bcf,,,,,,,,,,,,,,,,,,,,,,,a,1,1.6673,"[""0.320"",""0.690"",""0.633"",""0.845""]","[1,0,1,1]",0,16,16,16,1,0,1,,,1,FALSE,,,,,,,,,,,,,,,,,,,,,,,,,,,,,,,
,61621d61b0eedb6e196e0950,627c6fc12ca7f3627b95733f,2022-05-11_21h25.51.585,classification_task,2021.2.3,Win32,60.0528465,627c6715c52fd12f31907bcf,,,,,,,,,,,,,,,,,,,,,,,l,1,2.9282,"[""0.074"",""0.214"",""0.519"",""0.805""]","[1,1,0,1]",0,17,17,17,1,1,0,,,1,FALSE,,,,,,,,,,,,,,,,,,,,,,,,,,,,,,,
,61621d61b0eedb6e196e0950,627c6fc12ca7f3627b95733f,2022-05-11_21h25.51.585,classification_task,2021.2.3,Win32,60.0528465,627c6715c52fd12f31907bcf,,,,,,,,,,,,,,,,,,,,,,,a,1,1.909,"[""0.320"",""0.412"",""0.689"",""0.845""]","[1,1,0,1]",0,18,18,18,1,0,1,,,1,FALSE,,,,,,,,,,,,,,,,,,,,,,,,,,,,,,,
,61621d61b0eedb6e196e0950,627c6fc12ca7f3627b95733f,2022-05-11_21h25.51.585,classification_task,2021.2.3,Win32,60.0528465,627c6715c52fd12f31907bcf,,,,,,,,,,,,,,,,,,,,,,,a,1,4.005,"[""0.763"",""0.412"",""0.633"",""0.845""]","[0,1,1,1]",0,19,19,19,1,0,1,,,1,FALSE,,,,,,,,,,,,,,,,,,,,,,,,,,,,,,,
,61621d61b0eedb6e196e0950,627c6fc12ca7f3627b95733f,2022-05-11_21h25.51.585,classification_task,2021.2.3,Win32,60.0528465,627c6715c52fd12f31907bcf,,,,,,,,,,,,,,,,,,,,,,,l,1,2.5185,"[""0.180"",""0.366"",""0.481"",""0.728""]","[0,1,1,1]",0,20,20,20,1,1,1,,,1,FALSE,,,,,,,,,,,,,,,,,,,,,,,,,,,,,,,
,61621d61b0eedb6e196e0950,627c6fc12ca7f3627b95733f,2022-05-11_21h25.51.585,classification_task,2021.2.3,Win32,60.0528465,627c6715c52fd12f31907bcf,,,,,,,,,,,,,,,,,,,,,,,l,1,1.8226,"[""0.146"",""0.769"",""0.481"",""0.728""]","[1,0,1,1]",0,21,21,21,1,1,1,,,1,FALSE,,,,,,,,,,,,,,,,,,,,,,,,,,,,,,,
,61621d61b0eedb6e196e0950,627c6fc12ca7f3627b95733f,2022-05-11_21h25.51.585,classification_task,2021.2.3,Win32,60.0528465,627c6715c52fd12f31907bcf,,,,,,,,,,,,,,,,,,,,,,,l,1,1.5583,"[""0.074"",""0.690"",""0.599"",""0.805""]","[1,0,1,1]",0,22,22,22,1,1,0,,,1,FALSE,,,,,,,,,,,,,,,,,,,,,,,,,,,,,,,
,61621d61b0eedb6e196e0950,627c6fc12ca7f3627b95733f,2022-05-11_21h25.51.585,classification_task,2021.2.3,Win32,60.0528465,627c6715c52fd12f31907bcf,,,,,,,,,,,,,,,,,,,,,,,a,1,2.3901,"[""0.285"",""0.557"",""0.516"",""0.943""]","[1,1,0,1]",0,23,23,23,1,0,0,,,1,FALSE,,,,,,,,,,,,,,,,,,,,,,,,,,,,,,,
,61621d61b0eedb6e196e0950,627c6fc12ca7f3627b95733f,2022-05-11_21h25.51.585,classification_task,2021.2.3,Win32,60.0528465,627c6715c52fd12f31907bcf,,,,,,,,,,,,,,,,,,,,,,,a,1,2.0093,"[""0.689"",""0.557"",""0.903"",""0.943""]","[0,1,1,1]",0,24,24,24,1,0,0,,,1,FALSE,,,,,,,,,,,,,,,,,,,,,,,,,,,,,,,
,61621d61b0eedb6e196e0950,627c6fc12ca7f3627b95733f,2022-05-11_21h25.51.585,classification_task,2021.2.3,Win32,60.0528465,627c6715c52fd12f31907bcf,,,,,,,,,,,,,,,,,,,,,,,l,1,2.803,"[""0.146"",""0.366"",""0.481"",""0.519""]","[1,1,1,0]",0,25,25,25,1,1,1,,,1,FALSE,,,,,,,,,,,,,,,,,,,,,,,,,,,,,,,
,61621d61b0eedb6e196e0950,627c6fc12ca7f3627b95733f,2022-05-11_21h25.51.585,classification_task,2021.2.3,Win32,60.0528465,627c6715c52fd12f31907bcf,,,,,,,,,,,,,,,,,,,,,,,l,1,1.814,"[""0.146"",""0.366"",""0.025"",""0.728""]","[1,1,0,1]",0,26,26,26,1,1,1,,,1,FALSE,,,,,,,,,,,,,,,,,,,,,,,,,,,,,,,
,61621d61b0eedb6e196e0950,627c6fc12ca7f3627b95733f,2022-05-11_21h25.51.585,classification_task,2021.2.3,Win32,60.0528465,627c6715c52fd12f31907bcf,,,,,,,,,,,,,,,,,,,,,,,a,1,2.0993,"[""0.285"",""0.557"",""0.903"",""0.763""]","[1,1,1,0]",0,27,27,27,1,0,0,,,1,FALSE,,,,,,,,,,,,,,,,,,,,,,,,,,,,,,,
,61621d61b0eedb6e196e0950,627c6fc12ca7f3627b95733f,2022-05-11_21h25.51.585,classification_task,2021.2.3,Win32,60.0528465,627c6715c52fd12f31907bcf,,,,,,,,,,,,,,,,,,,,,,,l,1,2.1416,"[""0.180"",""0.214"",""0.599"",""0.805""]","[0,1,1,1]",0,28,28,28,1,1,0,,,1,FALSE,,,,,,,,,,,,,,,,,,,,,,,,,,,,,,,
,61621d61b0eedb6e196e0950,627c6fc12ca7f3627b95733f,2022-05-11_21h25.51.585,classification_task,2021.2.3,Win32,60.0528465,627c6715c52fd12f31907bcf,,,,,,,,,,,,,,,,,,,,,,,l,0,1.7868,"[""0.285"",""0.031"",""0.903"",""0.943""]","[1,0,1,1]",0,29,29,29,1,0,0,,,1,FALSE,,,,,,,,,,,,,,,,,,,,,,,,,,,,,,,
,61621d61b0eedb6e196e0950,627c6fc12ca7f3627b95733f,2022-05-11_21h25.51.585,classification_task,2021.2.3,Win32,60.0528465,627c6715c52fd12f31907bcf,,,,,,,,,,,,,,,,,,,,,,,a,1,2.5264,"[""0.320"",""0.412"",""0.633"",""0.690""]","[1,1,1,0]",0,30,30,30,1,0,1,,,1,FALSE,,,,,,,,,,,,,,,,,,,,,,,,,,,,,,,
,61621d61b0eedb6e196e0950,627c6fc12ca7f3627b95733f,2022-05-11_21h25.51.585,classification_task,2021.2.3,Win32,60.0528465,627c6715c52fd12f31907bcf,,,,,,,,,,,,,,,,,,,,,,,l,1,3.725,"[""0.074"",""0.214"",""0.599"",""0.681""]","[1,1,1,0]",0,31,31,31,1,1,0,,,1,FALSE,,,,,,,,,,,,,,,,,,,,,,,,,,,,,,,
,61621d61b0eedb6e196e0950,627c6fc12ca7f3627b95733f,2022-05-11_21h25.51.585,classification_task,2021.2.3,Win32,60.0528465,627c6715c52fd12f31907bcf,,,,,,,,,,,,,,,,,,,,,,,a,1,3.6424,"[""0.320"",""0.690"",""0.633"",""0.845""]","[1,0,1,1]",0,32,32,32,1,0,1,,,1,FALSE,,,,,,,,,,,,,,,,,,,,,,,,,,,,,,,
,61621d61b0eedb6e196e0950,627c6fc12ca7f3627b95733f,2022-05-11_21h25.51.585,classification_task,2021.2.3,Win32,60.0528465,627c6715c52fd12f31907bcf,,,,,,,,,,,,,,,,,,,,,,,a,0,2.8357,"[""0.074"",""0.214"",""0.681"",""0.805""]","[1,1,0,1]",0,33,33,33,1,1,0,,,1,FALSE,,,,,,,,,,,,,,,,,,,,,,,,,,,,,,,
,61621d61b0eedb6e196e0950,627c6fc12ca7f3627b95733f,2022-05-11_21h25.51.585,classification_task,2021.2.3,Win32,60.0528465,627c6715c52fd12f31907bcf,,,,,,,,,,,,,,,,,,,,,,,l,1,1.9458,"[""0.763"",""0.366"",""0.481"",""0.728""]","[0,1,1,1]",0,34,34,34,1,1,1,,,1,FALSE,,,,,,,,,,,,,,,,,,,,,,,,,,,,,,,
,61621d61b0eedb6e196e0950,627c6fc12ca7f3627b95733f,2022-05-11_21h25.51.585,classification_task,2021.2.3,Win32,60.0528465,627c6715c52fd12f31907bcf,,,,,,,,,,,,,,,,,,,,,,,l,1,1.1445,"[""0.074"",""0.690"",""0.599"",""0.805""]","[1,0,1,1]",0,35,35,35,1,1,0,,,1,FALSE,,,,,,,,,,,,,,,,,,,,,,,,,,,,,,,
,61621d61b0eedb6e196e0950,627c6fc12ca7f3627b95733f,2022-05-11_21h25.51.585,classification_task,2021.2.3,Win32,60.0528465,627c6715c52fd12f31907bcf,,,,,,,,,,,,,,,,,,,,,,,a,1,1.0913,"[""0.763"",""0.412"",""0.633"",""0.845""]","[0,1,1,1]",0,36,36,36,1,0,1,,,1,FALSE,,,,,,,,,,,,,,,,,,,,,,,,,,,,,,,
,61621d61b0eedb6e196e0950,627c6fc12ca7f3627b95733f,2022-05-11_21h25.51.585,classification_task,2021.2.3,Win32,60.0528465,627c6715c52fd12f31907bcf,,,,,,,,,,,,,,,,,,,,,,,a,1,1.2335,"[""0.285"",""0.557"",""0.903"",""0.519""]","[1,1,1,0]",0,37,37,37,1,0,0,,,1,FALSE,,,,,,,,,,,,,,,,,,,,,,,,,,,,,,,
,61621d61b0eedb6e196e0950,627c6fc12ca7f3627b95733f,2022-05-11_21h25.51.585,classification_task,2021.2.3,Win32,60.0528465,627c6715c52fd12f31907bcf,,,,,,,,,,,,,,,,,,,,,,,l,1,1.5572,"[""0.146"",""0.366"",""0.481"",""0.677""]","[1,1,1,0]",0,38,38,38,1,1,1,,,1,FALSE,,,,,,,,,,,,,,,,,,,,,,,,,,,,,,,
,61621d61b0eedb6e196e0950,627c6fc12ca7f3627b95733f,2022-05-11_21h25.51.585,classification_task,2021.2.3,Win32,60.0528465,627c6715c52fd12f31907bcf,,,,,,,,,,,,,,,,,,,,,,,l,1,1.4323,"[""0.031"",""0.214"",""0.599"",""0.805""]","[0,1,1,1]",0,39,39,39,1,1,0,,,1,FALSE,,,,,,,,,,,,,,,,,,,,,,,,,,,,,,,
,61621d61b0eedb6e196e0950,627c6fc12ca7f3627b95733f,2022-05-11_21h25.51.585,classification_task,2021.2.3,Win32,60.0528465,627c6715c52fd12f31907bcf,,,,,,,,,,,,,,,,,,,,,,,a,1,1.2765,"[""0.285"",""0.677"",""0.903"",""0.943""]","[1,0,1,1]",0,40,40,40,1,0,0,,,1,FALSE,,,,,,,,,,,,,,,,,,,,,,,,,,,,,,,
,61621d61b0eedb6e196e0950,627c6fc12ca7f3627b95733f,2022-05-11_21h25.51.585,classification_task,2021.2.3,Win32,60.0528465,627c6715c52fd12f31907bcf,,,,,,,,,,,,,,,,,,,,,,,l,1,1.0567,"[""0.146"",""0.366"",""0.677"",""0.728""]","[1,1,0,1]",0,41,41,41,1,1,1,,,1,FALSE,,,,,,,,,,,,,,,,,,,,,,,,,,,,,,,
,61621d61b0eedb6e196e0950,627c6fc12ca7f3627b95733f,2022-05-11_21h25.51.585,classification_task,2021.2.3,Win32,60.0528465,627c6715c52fd12f31907bcf,,,,,,,,,,,,,,,,,,,,,,,l,1,0.9421,"[""0.074"",""0.214"",""0.599"",""0.180""]","[1,1,1,0]",0,42,42,42,1,1,0,,,1,FALSE,,,,,,,,,,,,,,,,,,,,,,,,,,,,,,,
,61621d61b0eedb6e196e0950,627c6fc12ca7f3627b95733f,2022-05-11_21h25.51.585,classification_task,2021.2.3,Win32,60.0528465,627c6715c52fd12f31907bcf,,,,,,,,,,,,,,,,,,,,,,,a,1,1.4243,"[""0.320"",""0.412"",""0.633"",""0.690""]","[1,1,1,0]",0,43,43,43,1,0,1,,,1,FALSE,,,,,,,,,,,,,,,,,,,,,,,,,,,,,,,
,61621d61b0eedb6e196e0950,627c6fc12ca7f3627b95733f,2022-05-11_21h25.51.585,classification_task,2021.2.3,Win32,60.0528465,627c6715c52fd12f31907bcf,,,,,,,,,,,,,,,,,,,,,,,a,1,1.119,"[""0.285"",""0.557"",""0.692"",""0.943""]","[1,1,0,1]",0,44,44,44,1,0,0,,,1,FALSE,,,,,,,,,,,,,,,,,,,,,,,,,,,,,,,
,61621d61b0eedb6e196e0950,627c6fc12ca7f3627b95733f,2022-05-11_21h25.51.585,classification_task,2021.2.3,Win32,60.0528465,627c6715c52fd12f31907bcf,,,,,,,,,,,,,,,,,,,,,,,l,0,1.1779,"[""0.320"",""0.412"",""0.180"",""0.845""]","[1,1,0,1]",0,45,45,45,1,0,1,,,1,FALSE,,,,,,,,,,,,,,,,,,,,,,,,,,,,,,,
,61621d61b0eedb6e196e0950,627c6fc12ca7f3627b95733f,2022-05-11_21h25.51.585,classification_task,2021.2.3,Win32,60.0528465,627c6715c52fd12f31907bcf,,,,,,,,,,,,,,,,,,,,,,,l,0,1.3007,"[""0.180"",""0.557"",""0.903"",""0.943""]","[0,1,1,1]",0,46,46,46,1,0,0,,,1,FALSE,,,,,,,,,,,,,,,,,,,,,,,,,,,,,,,
,61621d61b0eedb6e196e0950,627c6fc12ca7f3627b95733f,2022-05-11_21h25.51.585,classification_task,2021.2.3,Win32,60.0528465,627c6715c52fd12f31907bcf,,,,,,,,,,,,,,,,,,,,,,,l,1,1.1188,"[""0.146"",""0.025"",""0.481"",""0.728""]","[1,0,1,1]",0,47,47,47,1,1,1,,,1,FALSE,,,,,,,,,,,,,,,,,,,,,,,,,,,,,,,
,61621d61b0eedb6e196e0950,627c6fc12ca7f3627b95733f,2022-05-11_21h25.51.585,classification_task,2021.2.3,Win32,60.0528465,627c6715c52fd12f31907bcf,,,,,,,,,,,,,,,,,,,,,,,a,1,0.8341,"[""0.285"",""0.690"",""0.903"",""0.943""]","[1,0,1,1]",0,48,48,48,1,0,0,,,1,FALSE,,,,,,,,,,,,,,,,,,,,,,,,,,,,,,,
,61621d61b0eedb6e196e0950,627c6fc12ca7f3627b95733f,2022-05-11_21h25.51.585,classification_task,2021.2.3,Win32,60.0528465,627c6715c52fd12f31907bcf,,,,,,,,,,,,,,,,,,,,,,,a,1,0.7423,"[""0.285"",""0.557"",""0.677"",""0.943""]","[1,1,0,1]",0,49,49,49,1,0,0,,,1,FALSE,,,,,,,,,,,,,,,,,,,,,,,,,,,,,,,
,61621d61b0eedb6e196e0950,627c6fc12ca7f3627b95733f,2022-05-11_21h25.51.585,classification_task,2021.2.3,Win32,60.0528465,627c6715c52fd12f31907bcf,,,,,,,,,,,,,,,,,,,,,,,l,1,1.84,"[""0.692"",""0.214"",""0.599"",""0.805""]","[0,1,1,1]",0,50,50,50,1,1,0,,,1,FALSE,,,,,,,,,,,,,,,,,,,,,,,,,,,,,,,
,61621d61b0eedb6e196e0950,627c6fc12ca7f3627b95733f,2022-05-11_21h25.51.585,classification_task,2021.2.3,Win32,60.0528465,627c6715c52fd12f31907bcf,,,,,,,,,,,,,,,,,,,,,,,l,1,0.936,"[""0.146"",""0.366"",""0.481"",""0.692""]","[1,1,1,0]",0,51,51,51,1,1,1,,,1,FALSE,,,,,,,,,,,,,,,,,,,,,,,,,,,,,,,
,61621d61b0eedb6e196e0950,627c6fc12ca7f3627b95733f,2022-05-11_21h25.51.585,classification_task,2021.2.3,Win32,60.0528465,627c6715c52fd12f31907bcf,,,,,,,,,,,,,,,,,,,,,,,l,0,1.6165,"[""0.285"",""0.557"",""0.903"",""0.180""]","[1,1,1,0]",0,52,52,52,1,0,0,,,1,FALSE,,,,,,,,,,,,,,,,,,,,,,,,,,,,,,,
,61621d61b0eedb6e196e0950,627c6fc12ca7f3627b95733f,2022-05-11_21h25.51.585,classification_task,2021.2.3,Win32,60.0528465,627c6715c52fd12f31907bcf,,,,,,,,,,,,,,,,,,,,,,,a,0,0.791,"[""0.074"",""0.214"",""0.599"",""0.768""]","[1,1,1,0]",0,53,53,53,1,1,0,,,1,FALSE,,,,,,,,,,,,,,,,,,,,,,,,,,,,,,,
,61621d61b0eedb6e196e0950,627c6fc12ca7f3627b95733f,2022-05-11_21h25.51.585,classification_task,2021.2.3,Win32,60.0528465,627c6715c52fd12f31907bcf,,,,,,,,,,,,,,,,,,,,,,,a,0,1.616,"[""0.031"",""0.366"",""0.481"",""0.728""]","[0,1,1,1]",0,54,54,54,1,1,1,,,1,FALSE,,,,,,,,,,,,,,,,,,,,,,,,,,,,,,,
,61621d61b0eedb6e196e0950,627c6fc12ca7f3627b95733f,2022-05-11_21h25.51.585,classification_task,2021.2.3,Win32,60.0528465,627c6715c52fd12f31907bcf,,,,,,,,,,,,,,,,,,,,,,,a,1,1.3011,"[""0.681"",""0.557"",""0.903"",""0.943""]","[0,1,1,1]",0,55,55,55,1,0,0,,,1,FALSE,,,,,,,,,,,,,,,,,,,,,,,,,,,,,,,
,61621d61b0eedb6e196e0950,627c6fc12ca7f3627b95733f,2022-05-11_21h25.51.585,classification_task,2021.2.3,Win32,60.0528465,627c6715c52fd12f31907bcf,,,,,,,,,,,,,,,,,,,,,,,a,1,0.7607,"[""0.320"",""0.412"",""0.516"",""0.845""]","[1,1,0,1]",0,56,56,56,1,0,1,,,1,FALSE,,,,,,,,,,,,,,,,,,,,,,,,,,,,,,,
,61621d61b0eedb6e196e0950,627c6fc12ca7f3627b95733f,2022-05-11_21h25.51.585,classification_task,2021.2.3,Win32,60.0528465,627c6715c52fd12f31907bcf,,,,,,,,,,,,,,,,,,,,,,,a,1,0.834,"[""0.690"",""0.412"",""0.633"",""0.845""]","[0,1,1,1]",0,57,57,57,1,0,1,,,1,FALSE,,,,,,,,,,,,,,,,,,,,,,,,,,,,,,,
,61621d61b0eedb6e196e0950,627c6fc12ca7f3627b95733f,2022-05-11_21h25.51.585,classification_task,2021.2.3,Win32,60.0528465,627c6715c52fd12f31907bcf,,,,,,,,,,,,,,,,,,,,,,,a,1,0.6509,"[""0.320"",""0.412"",""0.633"",""0.689""]","[1,1,1,0]",0,58,58,58,1,0,1,,,1,FALSE,,,,,,,,,,,,,,,,,,,,,,,,,,,,,,,
,61621d61b0eedb6e196e0950,627c6fc12ca7f3627b95733f,2022-05-11_21h25.51.585,classification_task,2021.2.3,Win32,60.0528465,627c6715c52fd12f31907bcf,,,,,,,,,,,,,,,,,,,,,,,l,1,1.0935,"[""0.074"",""0.214"",""0.690"",""0.805""]","[1,1,0,1]",0,59,59,59,1,1,0,,,1,FALSE,,,,,,,,,,,,,,,,,,,,,,,,,,,,,,,
,61621d61b0eedb6e196e0950,627c6fc12ca7f3627b95733f,2022-05-11_21h25.51.585,classification_task,2021.2.3,Win32,60.0528465,627c6715c52fd12f31907bcf,,,,,,,,,,,,,,,,,,,,,,,l,1,1.0415,"[""0.146"",""0.768"",""0.481"",""0.728""]","[1,0,1,1]",0,60,60,60,1,1,1,,,1,FALSE,,,,,,,,,,,,,,,,,,,,,,,,,,,,,,,
,61621d61b0eedb6e196e0950,627c6fc12ca7f3627b95733f,2022-05-11_21h25.51.585,classification_task,2021.2.3,Win32,60.0528465,627c6715c52fd12f31907bcf,,,,,,,,,,,,,,,,,,,,,,,a,1,0.9754,"[""0.320"",""0.692"",""0.633"",""0.845""]","[1,0,1,1]",0,61,61,61,1,0,1,,,1,FALSE,,,,,,,,,,,,,,,,,,,,,,,,,,,,,,,
,61621d61b0eedb6e196e0950,627c6fc12ca7f3627b95733f,2022-05-11_21h25.51.585,classification_task,2021.2.3,Win32,60.0528465,627c6715c52fd12f31907bcf,,,,,,,,,,,,,,,,,,,,,,,l,1,0.7198,"[""0.146"",""0.366"",""0.689"",""0.728""]","[1,1,0,1]",0,62,62,62,1,1,1,,,1,FALSE,,,,,,,,,,,,,,,,,,,,,,,,,,,,,,,
,61621d61b0eedb6e196e0950,627c6fc12ca7f3627b95733f,2022-05-11_21h25.51.585,classification_task,2021.2.3,Win32,60.0528465,627c6715c52fd12f31907bcf,,,,,,,,,,,,,,,,,,,,,,,l,1,0.8263,"[""0.074"",""0.519"",""0.599"",""0.805""]","[1,0,1,1]",0,63,63,63,1,1,0,,,1,FALSE,,,,,,,,,,,,,,,,,,,,,,,,,,,,,,,
,61621d61b0eedb6e196e0950,627c6fc12ca7f3627b95733f,2022-05-11_21h25.51.585,classification_task,2021.2.3,Win32,60.0528465,627c6715c52fd12f31907bcf,,,,,,,,,,,,,,,,,,,,,,,,,,,,,,,,,,,,,,,0, ,,0,10,484.1827,0,0,0,0,1,2,1,,,,,,,,,,,,,,,,,,
,61621d61b0eedb6e196e0950,627c6fc12ca7f3627b95733f,2022-05-11_21h25.51.585,classification_task,2021.2.3,Win32,60.0528465,627c6715c52fd12f31907bcf,,,,,,,,,,,,,,,,,,,,,,,,,,,,,,,,,,,,,,,1,  ,,0,9.923574368,489.382,0,0,0,0,1,2,1,,,,,,,,,,,,,,,,,,
,61621d61b0eedb6e196e0950,627c6fc12ca7f3627b95733f,2022-05-11_21h25.51.585,classification_task,2021.2.3,Win32,60.0528465,627c6715c52fd12f31907bcf,,,,,,,,,,,,,,,,,,,,,,,,,,,,,,,,,,,,,,,2,  ,,0,2.427983539,501.1901,0,0,0,0,1,2,1,,,,,,,,,,,,,,,,,,
,61621d61b0eedb6e196e0950,627c6fc12ca7f3627b95733f,2022-05-11_21h25.51.585,classification_task,2021.2.3,Win32,60.0528465,627c6715c52fd12f31907bcf,,,,,,,,,,,,,,,,,,,,,,,,,,,,,,,,,,,,,,,,,,,,,0,0,0,0,1,,1,,,,,,,,,,,,,,,,,,
,61621d61b0eedb6e196e0950,627c6fc12ca7f3627b95733f,2022-05-11_21h25.51.585,classification_task,2021.2.3,Win32,60.0528465,627c6715c52fd12f31907bcf,,,,,,,,,,,,,,,,,,,,,space,28.2359,l,0,3.9392,"[""0.285"",""0.681"",""0.903"",""0.943""]","[1,0,1,1]",0,0,0,0,1,0,0,,,1,FALSE,,,,,,,,,,,,,,,,,,,,,,,,,,,,,,,
,61621d61b0eedb6e196e0950,627c6fc12ca7f3627b95733f,2022-05-11_21h25.51.585,classification_task,2021.2.3,Win32,60.0528465,627c6715c52fd12f31907bcf,,,,,,,,,,,,,,,,,,,,,,,l,1,2.196,"[""0.074"",""0.214"",""0.516"",""0.805""]","[1,1,0,1]",0,1,1,1,1,1,0,,,1,FALSE,,,,,,,,,,,,,,,,,,,,,,,,,,,,,,,
,61621d61b0eedb6e196e0950,627c6fc12ca7f3627b95733f,2022-05-11_21h25.51.585,classification_task,2021.2.3,Win32,60.0528465,627c6715c52fd12f31907bcf,,,,,,,,,,,,,,,,,,,,,,,a,0,1.2028,"[""0.180"",""0.214"",""0.599"",""0.805""]","[0,1,1,1]",0,2,2,2,1,1,0,,,1,FALSE,,,,,,,,,,,,,,,,,,,,,,,,,,,,,,,
,61621d61b0eedb6e196e0950,627c6fc12ca7f3627b95733f,2022-05-11_21h25.51.585,classification_task,2021.2.3,Win32,60.0528465,627c6715c52fd12f31907bcf,,,,,,,,,,,,,,,,,,,,,,,l,1,2.6704,"[""0.146"",""0.366"",""0.689"",""0.728""]","[1,1,0,1]",0,3,3,3,1,1,1,,,1,FALSE,,,,,,,,,,,,,,,,,,,,,,,,,,,,,,,
,61621d61b0eedb6e196e0950,627c6fc12ca7f3627b95733f,2022-05-11_21h25.51.585,classification_task,2021.2.3,Win32,60.0528465,627c6715c52fd12f31907bcf,,,,,,,,,,,,,,,,,,,,,,,a,1,0.9032,"[""0.320"",""0.679"",""0.633"",""0.845""]","[1,0,1,1]",0,4,4,4,1,0,1,,,1,FALSE,,,,,,,,,,,,,,,,,,,,,,,,,,,,,,,
,61621d61b0eedb6e196e0950,627c6fc12ca7f3627b95733f,2022-05-11_21h25.51.585,classification_task,2021.2.3,Win32,60.0528465,627c6715c52fd12f31907bcf,,,,,,,,,,,,,,,,,,,,,,,a,1,0.6889,"[""0.320"",""0.412"",""0.633"",""0.690""]","[1,1,1,0]",0,5,5,5,1,0,1,,,1,FALSE,,,,,,,,,,,,,,,,,,,,,,,,,,,,,,,
,61621d61b0eedb6e196e0950,627c6fc12ca7f3627b95733f,2022-05-11_21h25.51.585,classification_task,2021.2.3,Win32,60.0528465,627c6715c52fd12f31907bcf,,,,,,,,,,,,,,,,,,,,,,,a,1,1.4504,"[""0.692"",""0.557"",""0.903"",""0.943""]","[0,1,1,1]",0,6,6,6,1,0,0,,,1,FALSE,,,,,,,,,,,,,,,,,,,,,,,,,,,,,,,
,61621d61b0eedb6e196e0950,627c6fc12ca7f3627b95733f,2022-05-11_21h25.51.585,classification_task,2021.2.3,Win32,60.0528465,627c6715c52fd12f31907bcf,,,,,,,,,,,,,,,,,,,,,,,l,1,0.8675,"[""0.074"",""0.214"",""0.599"",""0.681""]","[1,1,1,0]",0,7,7,7,1,1,0,,,1,FALSE,,,,,,,,,,,,,,,,,,,,,,,,,,,,,,,
,61621d61b0eedb6e196e0950,627c6fc12ca7f3627b95733f,2022-05-11_21h25.51.585,classification_task,2021.2.3,Win32,60.0528465,627c6715c52fd12f31907bcf,,,,,,,,,,,,,,,,,,,,,,,a,1,0.6065,"[""0.285"",""0.557"",""0.692"",""0.943""]","[1,1,0,1]",0,8,8,8,1,0,0,,,1,FALSE,,,,,,,,,,,,,,,,,,,,,,,,,,,,,,,
,61621d61b0eedb6e196e0950,627c6fc12ca7f3627b95733f,2022-05-11_21h25.51.585,classification_task,2021.2.3,Win32,60.0528465,627c6715c52fd12f31907bcf,,,,,,,,,,,,,,,,,,,,,,,l,1,0.6685,"[""0.146"",""0.366"",""0.481"",""0.769""]","[1,1,1,0]",0,9,9,9,1,1,1,,,1,FALSE,,,,,,,,,,,,,,,,,,,,,,,,,,,,,,,
,61621d61b0eedb6e196e0950,627c6fc12ca7f3627b95733f,2022-05-11_21h25.51.585,classification_task,2021.2.3,Win32,60.0528465,627c6715c52fd12f31907bcf,,,,,,,,,,,,,,,,,,,,,,,l,1,0.5224,"[""0.681"",""0.366"",""0.481"",""0.728""]","[0,1,1,1]",0,10,10,10,1,1,1,,,1,FALSE,,,,,,,,,,,,,,,,,,,,,,,,,,,,,,,
,61621d61b0eedb6e196e0950,627c6fc12ca7f3627b95733f,2022-05-11_21h25.51.585,classification_task,2021.2.3,Win32,60.0528465,627c6715c52fd12f31907bcf,,,,,,,,,,,,,,,,,,,,,,,l,1,0.4924,"[""0.146"",""0.031"",""0.481"",""0.728""]","[1,0,1,1]",0,11,11,11,1,1,1,,,1,FALSE,,,,,,,,,,,,,,,,,,,,,,,,,,,,,,,
,61621d61b0eedb6e196e0950,627c6fc12ca7f3627b95733f,2022-05-11_21h25.51.585,classification_task,2021.2.3,Win32,60.0528465,627c6715c52fd12f31907bcf,,,,,,,,,,,,,,,,,,,,,,,l,0,1.4398,"[""0.285"",""0.557"",""0.903"",""0.769""]","[1,1,1,0]",0,12,12,12,1,0,0,,,1,FALSE,,,,,,,,,,,,,,,,,,,,,,,,,,,,,,,
,61621d61b0eedb6e196e0950,627c6fc12ca7f3627b95733f,2022-05-11_21h25.51.585,classification_task,2021.2.3,Win32,60.0528465,627c6715c52fd12f31907bcf,,,,,,,,,,,,,,,,,,,,,,,a,1,0.7811,"[""0.320"",""0.412"",""0.768"",""0.845""]","[1,1,0,1]",0,13,13,13,1,0,1,,,1,FALSE,,,,,,,,,,,,,,,,,,,,,,,,,,,,,,,
,61621d61b0eedb6e196e0950,627c6fc12ca7f3627b95733f,2022-05-11_21h25.51.585,classification_task,2021.2.3,Win32,60.0528465,627c6715c52fd12f31907bcf,,,,,,,,,,,,,,,,,,,,,,,a,1,0.4235,"[""0.679"",""0.412"",""0.633"",""0.845""]","[0,1,1,1]",0,14,14,14,1,0,1,,,1,FALSE,,,,,,,,,,,,,,,,,,,,,,,,,,,,,,,
,61621d61b0eedb6e196e0950,627c6fc12ca7f3627b95733f,2022-05-11_21h25.51.585,classification_task,2021.2.3,Win32,60.0528465,627c6715c52fd12f31907bcf,,,,,,,,,,,,,,,,,,,,,,,l,1,1.1159,"[""0.074"",""0.689"",""0.599"",""0.805""]","[1,0,1,1]",0,15,15,15,1,1,0,,,1,FALSE,,,,,,,,,,,,,,,,,,,,,,,,,,,,,,,
,61621d61b0eedb6e196e0950,627c6fc12ca7f3627b95733f,2022-05-11_21h25.51.585,classification_task,2021.2.3,Win32,60.0528465,627c6715c52fd12f31907bcf,,,,,,,,,,,,,,,,,,,,,,,a,1,0.6647,"[""0.320"",""0.412"",""0.180"",""0.845""]","[1,1,0,1]",0,16,16,16,1,0,1,,,1,FALSE,,,,,,,,,,,,,,,,,,,,,,,,,,,,,,,
,61621d61b0eedb6e196e0950,627c6fc12ca7f3627b95733f,2022-05-11_21h25.51.585,classification_task,2021.2.3,Win32,60.0528465,627c6715c52fd12f31907bcf,,,,,,,,,,,,,,,,,,,,,,,l,1,0.7408,"[""0.146"",""0.681"",""0.481"",""0.728""]","[1,0,1,1]",0,17,17,17,1,1,1,,,1,FALSE,,,,,,,,,,,,,,,,,,,,,,,,,,,,,,,
,61621d61b0eedb6e196e0950,627c6fc12ca7f3627b95733f,2022-05-11_21h25.51.585,classification_task,2021.2.3,Win32,60.0528465,627c6715c52fd12f31907bcf,,,,,,,,,,,,,,,,,,,,,,,l,1,0.5754,"[""0.146"",""0.366"",""0.481"",""0.031""]","[1,1,1,0]",0,18,18,18,1,1,1,,,1,FALSE,,,,,,,,,,,,,,,,,,,,,,,,,,,,,,,
,61621d61b0eedb6e196e0950,627c6fc12ca7f3627b95733f,2022-05-11_21h25.51.585,classification_task,2021.2.3,Win32,60.0528465,627c6715c52fd12f31907bcf,,,,,,,,,,,,,,,,,,,,,,,l,1,1.1181,"[""0.031"",""0.214"",""0.599"",""0.805""]","[0,1,1,1]",0,19,19,19,1,1,0,,,1,FALSE,,,,,,,,,,,,,,,,,,,,,,,,,,,,,,,
,61621d61b0eedb6e196e0950,627c6fc12ca7f3627b95733f,2022-05-11_21h25.51.585,classification_task,2021.2.3,Win32,60.0528465,627c6715c52fd12f31907bcf,,,,,,,,,,,,,,,,,,,,,,,l,1,0.7769,"[""0.146"",""0.366"",""0.763"",""0.728""]","[1,1,0,1]",0,20,20,20,1,1,1,,,1,FALSE,,,,,,,,,,,,,,,,,,,,,,,,,,,,,,,
,61621d61b0eedb6e196e0950,627c6fc12ca7f3627b95733f,2022-05-11_21h25.51.585,classification_task,2021.2.3,Win32,60.0528465,627c6715c52fd12f31907bcf,,,,,,,,,,,,,,,,,,,,,,,a,1,0.7383,"[""0.285"",""0.557"",""0.679"",""0.943""]","[1,1,0,1]",0,21,21,21,1,0,0,,,1,FALSE,,,,,,,,,,,,,,,,,,,,,,,,,,,,,,,
,61621d61b0eedb6e196e0950,627c6fc12ca7f3627b95733f,2022-05-11_21h25.51.585,classification_task,2021.2.3,Win32,60.0528465,627c6715c52fd12f31907bcf,,,,,,,,,,,,,,,,,,,,,,,l,1,0.783,"[""0.074"",""0.214"",""0.599"",""0.679""]","[1,1,1,0]",0,22,22,22,1,1,0,,,1,FALSE,,,,,,,,,,,,,,,,,,,,,,,,,,,,,,,
,61621d61b0eedb6e196e0950,627c6fc12ca7f3627b95733f,2022-05-11_21h25.51.585,classification_task,2021.2.3,Win32,60.0528465,627c6715c52fd12f31907bcf,,,,,,,,,,,,,,,,,,,,,,,a,1,0.4849,"[""0.285"",""0.516"",""0.903"",""0.943""]","[1,0,1,1]",0,23,23,23,1,0,0,,,1,FALSE,,,,,,,,,,,,,,,,,,,,,,,,,,,,,,,
,61621d61b0eedb6e196e0950,627c6fc12ca7f3627b95733f,2022-05-11_21h25.51.585,classification_task,2021.2.3,Win32,60.0528465,627c6715c52fd12f31907bcf,,,,,,,,,,,,,,,,,,,,,,,a,1,0.7163,"[""0.692"",""0.557"",""0.903"",""0.943""]","[0,1,1,1]",0,24,24,24,1,0,0,,,1,FALSE,,,,,,,,,,,,,,,,,,,,,,,,,,,,,,,
,61621d61b0eedb6e196e0950,627c6fc12ca7f3627b95733f,2022-05-11_21h25.51.585,classification_task,2021.2.3,Win32,60.0528465,627c6715c52fd12f31907bcf,,,,,,,,,,,,,,,,,,,,,,,l,1,0.5639,"[""0.679"",""0.366"",""0.481"",""0.728""]","[0,1,1,1]",0,25,25,25,1,1,1,,,1,FALSE,,,,,,,,,,,,,,,,,,,,,,,,,,,,,,,
,61621d61b0eedb6e196e0950,627c6fc12ca7f3627b95733f,2022-05-11_21h25.51.585,classification_task,2021.2.3,Win32,60.0528465,627c6715c52fd12f31907bcf,,,,,,,,,,,,,,,,,,,,,,,a,1,0.5159,"[""0.677"",""0.412"",""0.633"",""0.845""]","[0,1,1,1]",0,26,26,26,1,0,1,,,1,FALSE,,,,,,,,,,,,,,,,,,,,,,,,,,,,,,,
,61621d61b0eedb6e196e0950,627c6fc12ca7f3627b95733f,2022-05-11_21h25.51.585,classification_task,2021.2.3,Win32,60.0528465,627c6715c52fd12f31907bcf,,,,,,,,,,,,,,,,,,,,,,,l,1,1.0944,"[""0.074"",""0.214"",""0.180"",""0.805""]","[1,1,0,1]",0,27,27,27,1,1,0,,,1,FALSE,,,,,,,,,,,,,,,,,,,,,,,,,,,,,,,
,61621d61b0eedb6e196e0950,627c6fc12ca7f3627b95733f,2022-05-11_21h25.51.585,classification_task,2021.2.3,Win32,60.0528465,627c6715c52fd12f31907bcf,,,,,,,,,,,,,,,,,,,,,,,a,1,0.7071,"[""0.285"",""0.557"",""0.903"",""0.677""]","[1,1,1,0]",0,28,28,28,1,0,0,,,1,FALSE,,,,,,,,,,,,,,,,,,,,,,,,,,,,,,,
,61621d61b0eedb6e196e0950,627c6fc12ca7f3627b95733f,2022-05-11_21h25.51.585,classification_task,2021.2.3,Win32,60.0528465,627c6715c52fd12f31907bcf,,,,,,,,,,,,,,,,,,,,,,,a,1,0.62,"[""0.320"",""0.412"",""0.633"",""0.763""]","[1,1,1,0]",0,29,29,29,1,0,1,,,1,FALSE,,,,,,,,,,,,,,,,,,,,,,,,,,,,,,,
,61621d61b0eedb6e196e0950,627c6fc12ca7f3627b95733f,2022-05-11_21h25.51.585,classification_task,2021.2.3,Win32,60.0528465,627c6715c52fd12f31907bcf,,,,,,,,,,,,,,,,,,,,,,,l,1,1.036,"[""0.074"",""0.692"",""0.599"",""0.805""]","[1,0,1,1]",0,30,30,30,1,1,0,,,1,FALSE,,,,,,,,,,,,,,,,,,,,,,,,,,,,,,,
,61621d61b0eedb6e196e0950,627c6fc12ca7f3627b95733f,2022-05-11_21h25.51.585,classification_task,2021.2.3,Win32,60.0528465,627c6715c52fd12f31907bcf,,,,,,,,,,,,,,,,,,,,,,,a,1,0.5854,"[""0.320"",""0.025"",""0.633"",""0.845""]","[1,0,1,1]",0,31,31,31,1,0,1,,,1,FALSE,,,,,,,,,,,,,,,,,,,,,,,,,,,,,,,
,61621d61b0eedb6e196e0950,627c6fc12ca7f3627b95733f,2022-05-11_21h25.51.585,classification_task,2021.2.3,Win32,60.0528465,627c6715c52fd12f31907bcf,,,,,,,,,,,,,,,,,,,,,,,a,1,0.4745,"[""0.180"",""0.412"",""0.633"",""0.845""]","[0,1,1,1]",0,32,32,32,1,0,1,,,1,FALSE,,,,,,,,,,,,,,,,,,,,,,,,,,,,,,,
,61621d61b0eedb6e196e0950,627c6fc12ca7f3627b95733f,2022-05-11_21h25.51.585,classification_task,2021.2.3,Win32,60.0528465,627c6715c52fd12f31907bcf,,,,,,,,,,,,,,,,,,,,,,,a,1,0.7985,"[""0.285"",""0.557"",""0.768"",""0.943""]","[1,1,0,1]",0,33,33,33,1,0,0,,,1,FALSE,,,,,,,,,,,,,,,,,,,,,,,,,,,,,,,
,61621d61b0eedb6e196e0950,627c6fc12ca7f3627b95733f,2022-05-11_21h25.51.585,classification_task,2021.2.3,Win32,60.0528465,627c6715c52fd12f31907bcf,,,,,,,,,,,,,,,,,,,,,,,a,1,0.5001,"[""0.320"",""0.412"",""0.031"",""0.845""]","[1,1,0,1]",0,34,34,34,1,0,1,,,1,FALSE,,,,,,,,,,,,,,,,,,,,,,,,,,,,,,,
,61621d61b0eedb6e196e0950,627c6fc12ca7f3627b95733f,2022-05-11_21h25.51.585,classification_task,2021.2.3,Win32,60.0528465,627c6715c52fd12f31907bcf,,,,,,,,,,,,,,,,,,,,,,,l,1,0.8566,"[""0.074"",""0.214"",""0.025"",""0.805""]","[1,1,0,1]",0,35,35,35,1,1,0,,,1,FALSE,,,,,,,,,,,,,,,,,,,,,,,,,,,,,,,
,61621d61b0eedb6e196e0950,627c6fc12ca7f3627b95733f,2022-05-11_21h25.51.585,classification_task,2021.2.3,Win32,60.0528465,627c6715c52fd12f31907bcf,,,,,,,,,,,,,,,,,,,,,,,a,1,0.4981,"[""0.320"",""0.681"",""0.633"",""0.845""]","[1,0,1,1]",0,36,36,36,1,0,1,,,1,FALSE,,,,,,,,,,,,,,,,,,,,,,,,,,,,,,,
,61621d61b0eedb6e196e0950,627c6fc12ca7f3627b95733f,2022-05-11_21h25.51.585,classification_task,2021.2.3,Win32,60.0528465,627c6715c52fd12f31907bcf,,,,,,,,,,,,,,,,,,,,,,,a,1,0.7697,"[""0.285"",""0.557"",""0.903"",""0.679""]","[1,1,1,0]",0,37,37,37,1,0,0,,,1,FALSE,,,,,,,,,,,,,,,,,,,,,,,,,,,,,,,
,61621d61b0eedb6e196e0950,627c6fc12ca7f3627b95733f,2022-05-11_21h25.51.585,classification_task,2021.2.3,Win32,60.0528465,627c6715c52fd12f31907bcf,,,,,,,,,,,,,,,,,,,,,,,l,1,0.7807,"[""0.146"",""0.366"",""0.481"",""0.180""]","[1,1,1,0]",0,38,38,38,1,1,1,,,1,FALSE,,,,,,,,,,,,,,,,,,,,,,,,,,,,,,,
,61621d61b0eedb6e196e0950,627c6fc12ca7f3627b95733f,2022-05-11_21h25.51.585,classification_task,2021.2.3,Win32,60.0528465,627c6715c52fd12f31907bcf,,,,,,,,,,,,,,,,,,,,,,,a,1,1.1385,"[""0.285"",""0.025"",""0.903"",""0.943""]","[1,0,1,1]",0,39,39,39,1,0,0,,,1,FALSE,,,,,,,,,,,,,,,,,,,,,,,,,,,,,,,
,61621d61b0eedb6e196e0950,627c6fc12ca7f3627b95733f,2022-05-11_21h25.51.585,classification_task,2021.2.3,Win32,60.0528465,627c6715c52fd12f31907bcf,,,,,,,,,,,,,,,,,,,,,,,l,1,0.7752,"[""0.146"",""0.180"",""0.481"",""0.728""]","[1,0,1,1]",0,40,40,40,1,1,1,,,1,FALSE,,,,,,,,,,,,,,,,,,,,,,,,,,,,,,,
,61621d61b0eedb6e196e0950,627c6fc12ca7f3627b95733f,2022-05-11_21h25.51.585,classification_task,2021.2.3,Win32,60.0528465,627c6715c52fd12f31907bcf,,,,,,,,,,,,,,,,,,,,,,,a,0,0.5987,"[""0.074"",""0.214"",""0.599"",""0.679""]","[1,1,1,0]",0,41,41,41,1,1,0,,,1,FALSE,,,,,,,,,,,,,,,,,,,,,,,,,,,,,,,
,61621d61b0eedb6e196e0950,627c6fc12ca7f3627b95733f,2022-05-11_21h25.51.585,classification_task,2021.2.3,Win32,60.0528465,627c6715c52fd12f31907bcf,,,,,,,,,,,,,,,,,,,,,,,a,0,0.8846,"[""0.074"",""0.025"",""0.599"",""0.805""]","[1,0,1,1]",0,42,42,42,1,1,0,,,1,FALSE,,,,,,,,,,,,,,,,,,,,,,,,,,,,,,,
,61621d61b0eedb6e196e0950,627c6fc12ca7f3627b95733f,2022-05-11_21h25.51.585,classification_task,2021.2.3,Win32,60.0528465,627c6715c52fd12f31907bcf,,,,,,,,,,,,,,,,,,,,,,,a,0,0.8093,"[""0.519"",""0.214"",""0.599"",""0.805""]","[0,1,1,1]",0,43,43,43,1,1,0,,,1,FALSE,,,,,,,,,,,,,,,,,,,,,,,,,,,,,,,
,61621d61b0eedb6e196e0950,627c6fc12ca7f3627b95733f,2022-05-11_21h25.51.585,classification_task,2021.2.3,Win32,60.0528465,627c6715c52fd12f31907bcf,,,,,,,,,,,,,,,,,,,,,,,l,1,0.8648,"[""0.146"",""0.366"",""0.516"",""0.728""]","[1,1,0,1]",0,44,44,44,1,1,1,,,1,FALSE,,,,,,,,,,,,,,,,,,,,,,,,,,,,,,,
,61621d61b0eedb6e196e0950,627c6fc12ca7f3627b95733f,2022-05-11_21h25.51.585,classification_task,2021.2.3,Win32,60.0528465,627c6715c52fd12f31907bcf,,,,,,,,,,,,,,,,,,,,,,,a,1,0.5007,"[""0.320"",""0.412"",""0.633"",""0.180""]","[1,1,1,0]",0,45,45,45,1,0,1,,,1,FALSE,,,,,,,,,,,,,,,,,,,,,,,,,,,,,,,
,61621d61b0eedb6e196e0950,627c6fc12ca7f3627b95733f,2022-05-11_21h25.51.585,classification_task,2021.2.3,Win32,60.0528465,627c6715c52fd12f31907bcf,,,,,,,,,,,,,,,,,,,,,,,a,1,0.9028,"[""0.180"",""0.557"",""0.903"",""0.943""]","[0,1,1,1]",0,46,46,46,1,0,0,,,1,FALSE,,,,,,,,,,,,,,,,,,,,,,,,,,,,,,,
,61621d61b0eedb6e196e0950,627c6fc12ca7f3627b95733f,2022-05-11_21h25.51.585,classification_task,2021.2.3,Win32,60.0528465,627c6715c52fd12f31907bcf,,,,,,,,,,,,,,,,,,,,,,,l,1,0.5542,"[""0.690"",""0.366"",""0.481"",""0.728""]","[0,1,1,1]",0,47,47,47,1,1,1,,,1,FALSE,,,,,,,,,,,,,,,,,,,,,,,,,,,,,,,
,61621d61b0eedb6e196e0950,627c6fc12ca7f3627b95733f,2022-05-11_21h25.51.585,classification_task,2021.2.3,Win32,60.0528465,627c6715c52fd12f31907bcf,,,,,,,,,,,,,,,,,,,,,,,l,1,0.4166,"[""0.146"",""0.366"",""0.769"",""0.728""]","[1,1,0,1]",0,48,48,48,1,1,1,,,1,FALSE,,,,,,,,,,,,,,,,,,,,,,,,,,,,,,,
,61621d61b0eedb6e196e0950,627c6fc12ca7f3627b95733f,2022-05-11_21h25.51.585,classification_task,2021.2.3,Win32,60.0528465,627c6715c52fd12f31907bcf,,,,,,,,,,,,,,,,,,,,,,,l,1,0.4842,"[""0.146"",""0.366"",""0.481"",""0.679""]","[1,1,1,0]",0,49,49,49,1,1,1,,,1,FALSE,,,,,,,,,,,,,,,,,,,,,,,,,,,,,,,
,61621d61b0eedb6e196e0950,627c6fc12ca7f3627b95733f,2022-05-11_21h25.51.585,classification_task,2021.2.3,Win32,60.0528465,627c6715c52fd12f31907bcf,,,,,,,,,,,,,,,,,,,,,,,a,1,0.7901,"[""0.285"",""0.557"",""0.903"",""0.681""]","[1,1,1,0]",0,50,50,50,1,0,0,,,1,FALSE,,,,,,,,,,,,,,,,,,,,,,,,,,,,,,,
,61621d61b0eedb6e196e0950,627c6fc12ca7f3627b95733f,2022-05-11_21h25.51.585,classification_task,2021.2.3,Win32,60.0528465,627c6715c52fd12f31907bcf,,,,,,,,,,,,,,,,,,,,,,,l,1,0.572,"[""0.031"",""0.366"",""0.481"",""0.728""]","[0,1,1,1]",0,51,51,51,1,1,1,,,1,FALSE,,,,,,,,,,,,,,,,,,,,,,,,,,,,,,,
,61621d61b0eedb6e196e0950,627c6fc12ca7f3627b95733f,2022-05-11_21h25.51.585,classification_task,2021.2.3,Win32,60.0528465,627c6715c52fd12f31907bcf,,,,,,,,,,,,,,,,,,,,,,,a,0,0.8152,"[""0.679"",""0.214"",""0.599"",""0.805""]","[0,1,1,1]",0,52,52,52,1,1,0,,,1,FALSE,,,,,,,,,,,,,,,,,,,,,,,,,,,,,,,
,61621d61b0eedb6e196e0950,627c6fc12ca7f3627b95733f,2022-05-11_21h25.51.585,classification_task,2021.2.3,Win32,60.0528465,627c6715c52fd12f31907bcf,,,,,,,,,,,,,,,,,,,,,,,a,1,1.5084,"[""0.320"",""0.412"",""0.633"",""0.519""]","[1,1,1,0]",0,53,53,53,1,0,1,,,1,FALSE,,,,,,,,,,,,,,,,,,,,,,,,,,,,,,,
,61621d61b0eedb6e196e0950,627c6fc12ca7f3627b95733f,2022-05-11_21h25.51.585,classification_task,2021.2.3,Win32,60.0528465,627c6715c52fd12f31907bcf,,,,,,,,,,,,,,,,,,,,,,,l,1,0.5931,"[""0.146"",""0.690"",""0.481"",""0.728""]","[1,0,1,1]",0,54,54,54,1,1,1,,,1,FALSE,,,,,,,,,,,,,,,,,,,,,,,,,,,,,,,
,61621d61b0eedb6e196e0950,627c6fc12ca7f3627b95733f,2022-05-11_21h25.51.585,classification_task,2021.2.3,Win32,60.0528465,627c6715c52fd12f31907bcf,,,,,,,,,,,,,,,,,,,,,,,l,0,2.1148,"[""0.285"",""0.025"",""0.903"",""0.943""]","[1,0,1,1]",0,55,55,55,1,0,0,,,1,FALSE,,,,,,,,,,,,,,,,,,,,,,,,,,,,,,,
,61621d61b0eedb6e196e0950,627c6fc12ca7f3627b95733f,2022-05-11_21h25.51.585,classification_task,2021.2.3,Win32,60.0528465,627c6715c52fd12f31907bcf,,,,,,,,,,,,,,,,,,,,,,,a,1,0.7065,"[""0.320"",""0.412"",""0.180"",""0.845""]","[1,1,0,1]",0,56,56,56,1,0,1,,,1,FALSE,,,,,,,,,,,,,,,,,,,,,,,,,,,,,,,
,61621d61b0eedb6e196e0950,627c6fc12ca7f3627b95733f,2022-05-11_21h25.51.585,classification_task,2021.2.3,Win32,60.0528465,627c6715c52fd12f31907bcf,,,,,,,,,,,,,,,,,,,,,,,l,1,1.1025,"[""0.074"",""0.214"",""0.681"",""0.805""]","[1,1,0,1]",0,57,57,57,1,1,0,,,1,FALSE,,,,,,,,,,,,,,,,,,,,,,,,,,,,,,,
,61621d61b0eedb6e196e0950,627c6fc12ca7f3627b95733f,2022-05-11_21h25.51.585,classification_task,2021.2.3,Win32,60.0528465,627c6715c52fd12f31907bcf,,,,,,,,,,,,,,,,,,,,,,,a,1,0.8732,"[""0.320"",""0.031"",""0.633"",""0.845""]","[1,0,1,1]",0,58,58,58,1,0,1,,,1,FALSE,,,,,,,,,,,,,,,,,,,,,,,,,,,,,,,
,61621d61b0eedb6e196e0950,627c6fc12ca7f3627b95733f,2022-05-11_21h25.51.585,classification_task,2021.2.3,Win32,60.0528465,627c6715c52fd12f31907bcf,,,,,,,,,,,,,,,,,,,,,,,l,1,1.3109,"[""0.074"",""0.214"",""0.599"",""0.519""]","[1,1,1,0]",0,59,59,59,1,1,0,,,1,FALSE,,,,,,,,,,,,,,,,,,,,,,,,,,,,,,,
,61621d61b0eedb6e196e0950,627c6fc12ca7f3627b95733f,2022-05-11_21h25.51.585,classification_task,2021.2.3,Win32,60.0528465,627c6715c52fd12f31907bcf,,,,,,,,,,,,,,,,,,,,,,,a,1,0.673,"[""0.768"",""0.412"",""0.633"",""0.845""]","[0,1,1,1]",0,60,60,60,1,0,1,,,1,FALSE,,,,,,,,,,,,,,,,,,,,,,,,,,,,,,,
,61621d61b0eedb6e196e0950,627c6fc12ca7f3627b95733f,2022-05-11_21h25.51.585,classification_task,2021.2.3,Win32,60.0528465,627c6715c52fd12f31907bcf,,,,,,,,,,,,,,,,,,,,,,,a,1,0.8313,"[""0.690"",""0.557"",""0.903"",""0.943""]","[0,1,1,1]",0,61,61,61,1,0,0,,,1,FALSE,,,,,,,,,,,,,,,,,,,,,,,,,,,,,,,
,61621d61b0eedb6e196e0950,627c6fc12ca7f3627b95733f,2022-05-11_21h25.51.585,classification_task,2021.2.3,Win32,60.0528465,627c6715c52fd12f31907bcf,,,,,,,,,,,,,,,,,,,,,,,a,1,0.9017,"[""0.285"",""0.557"",""0.519"",""0.943""]","[1,1,0,1]",0,62,62,62,1,0,0,,,1,FALSE,,,,,,,,,,,,,,,,,,,,,,,,,,,,,,,
,61621d61b0eedb6e196e0950,627c6fc12ca7f3627b95733f,2022-05-11_21h25.51.585,classification_task,2021.2.3,Win32,60.0528465,627c6715c52fd12f31907bcf,,,,,,,,,,,,,,,,,,,,,,,l,1,1.0836,"[""0.074"",""0.692"",""0.599"",""0.805""]","[1,0,1,1]",0,63,63,63,1,1,0,,,1,FALSE,,,,,,,,,,,,,,,,,,,,,,,,,,,,,,,
,61621d61b0eedb6e196e0950,627c6fc12ca7f3627b95733f,2022-05-11_21h25.51.585,classification_task,2021.2.3,Win32,60.0528465,627c6715c52fd12f31907bcf,,,,,,,,,,,,,,,,,,,,,,,,,,,,,,,,,,,,,,,0, ,,0,10,157.9114,0,1,1,1,1,2,2,,,,,,,,,,,,,,,,,,
,61621d61b0eedb6e196e0950,627c6fc12ca7f3627b95733f,2022-05-11_21h25.51.585,classification_task,2021.2.3,Win32,60.0528465,627c6715c52fd12f31907bcf,,,,,,,,,,,,,,,,,,,,,,,,,,,,,,,,,,,,,,,1,  ,,0,7.523025671,167.167,0,1,1,1,1,2,2,,,,,,,,,,,,,,,,,,
,61621d61b0eedb6e196e0950,627c6fc12ca7f3627b95733f,2022-05-11_21h25.51.585,classification_task,2021.2.3,Win32,60.0528465,627c6715c52fd12f31907bcf,,,,,,,,,,,,,,,,,,,,,,,,,,,,,,,,,,,,,,,2,  ,,0,3.505780913,168.9025,0,1,1,1,1,2,2,,,,,,,,,,,,,,,,,,
,61621d61b0eedb6e196e0950,627c6fc12ca7f3627b95733f,2022-05-11_21h25.51.585,classification_task,2021.2.3,Win32,60.0528465,627c6715c52fd12f31907bcf,,,,,,,,,,,,,,,,,,,,,,,,,,,,,,,,,,,,,,,,,,,,,0,1,1,1,1,,2,,,,,,,,,,,,,,,,,,
,61621d61b0eedb6e196e0950,627c6fc12ca7f3627b95733f,2022-05-11_21h25.51.585,classification_task,2021.2.3,Win32,60.0528465,627c6715c52fd12f31907bcf,,,,,,,,,,,,,,,,,,,,,space,10.1083,a,1,1.1356,"[""0.285"",""0.557"",""0.516"",""0.943""]","[1,1,0,1]",0,0,0,0,1,0,0,,,1,FALSE,,,,,,,,,,,,,,,,,,,,,,,,,,,,,,,
,61621d61b0eedb6e196e0950,627c6fc12ca7f3627b95733f,2022-05-11_21h25.51.585,classification_task,2021.2.3,Win32,60.0528465,627c6715c52fd12f31907bcf,,,,,,,,,,,,,,,,,,,,,,,a,1,1.0898,"[""0.285"",""0.557"",""0.903"",""0.692""]","[1,1,1,0]",0,1,1,1,1,0,0,,,1,FALSE,,,,,,,,,,,,,,,,,,,,,,,,,,,,,,,
,61621d61b0eedb6e196e0950,627c6fc12ca7f3627b95733f,2022-05-11_21h25.51.585,classification_task,2021.2.3,Win32,60.0528465,627c6715c52fd12f31907bcf,,,,,,,,,,,,,,,,,,,,,,,l,0,2.6054,"[""0.320"",""0.412"",""0.677"",""0.845""]","[1,1,0,1]",0,2,2,2,1,0,1,,,1,FALSE,,,,,,,,,,,,,,,,,,,,,,,,,,,,,,,
,61621d61b0eedb6e196e0950,627c6fc12ca7f3627b95733f,2022-05-11_21h25.51.585,classification_task,2021.2.3,Win32,60.0528465,627c6715c52fd12f31907bcf,,,,,,,,,,,,,,,,,,,,,,,a,0,1.1167,"[""0.025"",""0.214"",""0.599"",""0.805""]","[0,1,1,1]",0,3,3,3,1,1,0,,,1,FALSE,,,,,,,,,,,,,,,,,,,,,,,,,,,,,,,
,61621d61b0eedb6e196e0950,627c6fc12ca7f3627b95733f,2022-05-11_21h25.51.585,classification_task,2021.2.3,Win32,60.0528465,627c6715c52fd12f31907bcf,,,,,,,,,,,,,,,,,,,,,,,l,0,1.6079,"[""0.320"",""0.412"",""0.633"",""0.180""]","[1,1,1,0]",0,4,4,4,1,0,1,,,1,FALSE,,,,,,,,,,,,,,,,,,,,,,,,,,,,,,,
,61621d61b0eedb6e196e0950,627c6fc12ca7f3627b95733f,2022-05-11_21h25.51.585,classification_task,2021.2.3,Win32,60.0528465,627c6715c52fd12f31907bcf,,,,,,,,,,,,,,,,,,,,,,,l,1,0.7771,"[""0.146"",""0.366"",""0.180"",""0.728""]","[1,1,0,1]",0,5,5,5,1,1,1,,,1,FALSE,,,,,,,,,,,,,,,,,,,,,,,,,,,,,,,
,61621d61b0eedb6e196e0950,627c6fc12ca7f3627b95733f,2022-05-11_21h25.51.585,classification_task,2021.2.3,Win32,60.0528465,627c6715c52fd12f31907bcf,,,,,,,,,,,,,,,,,,,,,,,l,1,0.7581,"[""0.146"",""0.679"",""0.481"",""0.728""]","[1,0,1,1]",0,6,6,6,1,1,1,,,1,FALSE,,,,,,,,,,,,,,,,,,,,,,,,,,,,,,,
,61621d61b0eedb6e196e0950,627c6fc12ca7f3627b95733f,2022-05-11_21h25.51.585,classification_task,2021.2.3,Win32,60.0528465,627c6715c52fd12f31907bcf,,,,,,,,,,,,,,,,,,,,,,,l,1,1.0084,"[""0.074"",""0.214"",""0.692"",""0.805""]","[1,1,0,1]",0,7,7,7,1,1,0,,,1,FALSE,,,,,,,,,,,,,,,,,,,,,,,,,,,,,,,
,61621d61b0eedb6e196e0950,627c6fc12ca7f3627b95733f,2022-05-11_21h25.51.585,classification_task,2021.2.3,Win32,60.0528465,627c6715c52fd12f31907bcf,,,,,,,,,,,,,,,,,,,,,,,l,1,0.5271,"[""0.074"",""0.768"",""0.599"",""0.805""]","[1,0,1,1]",0,8,8,8,1,1,0,,,1,FALSE,,,,,,,,,,,,,,,,,,,,,,,,,,,,,,,
,61621d61b0eedb6e196e0950,627c6fc12ca7f3627b95733f,2022-05-11_21h25.51.585,classification_task,2021.2.3,Win32,60.0528465,627c6715c52fd12f31907bcf,,,,,,,,,,,,,,,,,,,,,,,a,1,0.6902,"[""0.763"",""0.557"",""0.903"",""0.943""]","[0,1,1,1]",0,9,9,9,1,0,0,,,1,FALSE,,,,,,,,,,,,,,,,,,,,,,,,,,,,,,,
,61621d61b0eedb6e196e0950,627c6fc12ca7f3627b95733f,2022-05-11_21h25.51.585,classification_task,2021.2.3,Win32,60.0528465,627c6715c52fd12f31907bcf,,,,,,,,,,,,,,,,,,,,,,,a,0,0.833,"[""0.677"",""0.366"",""0.481"",""0.728""]","[0,1,1,1]",0,10,10,10,1,1,1,,,1,FALSE,,,,,,,,,,,,,,,,,,,,,,,,,,,,,,,
,61621d61b0eedb6e196e0950,627c6fc12ca7f3627b95733f,2022-05-11_21h25.51.585,classification_task,2021.2.3,Win32,60.0528465,627c6715c52fd12f31907bcf,,,,,,,,,,,,,,,,,,,,,,,l,1,0.9167,"[""0.146"",""0.366"",""0.481"",""0.679""]","[1,1,1,0]",0,11,11,11,1,1,1,,,1,FALSE,,,,,,,,,,,,,,,,,,,,,,,,,,,,,,,
,61621d61b0eedb6e196e0950,627c6fc12ca7f3627b95733f,2022-05-11_21h25.51.585,classification_task,2021.2.3,Win32,60.0528465,627c6715c52fd12f31907bcf,,,,,,,,,,,,,,,,,,,,,,,l,0,1.5744,"[""0.320"",""0.180"",""0.633"",""0.845""]","[1,0,1,1]",0,12,12,12,1,0,1,,,1,FALSE,,,,,,,,,,,,,,,,,,,,,,,,,,,,,,,
,61621d61b0eedb6e196e0950,627c6fc12ca7f3627b95733f,2022-05-11_21h25.51.585,classification_task,2021.2.3,Win32,60.0528465,627c6715c52fd12f31907bcf,,,,,,,,,,,,,,,,,,,,,,,a,1,0.6389,"[""0.285"",""0.768"",""0.903"",""0.943""]","[1,0,1,1]",0,13,13,13,1,0,0,,,1,FALSE,,,,,,,,,,,,,,,,,,,,,,,,,,,,,,,
,61621d61b0eedb6e196e0950,627c6fc12ca7f3627b95733f,2022-05-11_21h25.51.585,classification_task,2021.2.3,Win32,60.0528465,627c6715c52fd12f31907bcf,,,,,,,,,,,,,,,,,,,,,,,a,1,0.5573,"[""0.690"",""0.412"",""0.633"",""0.845""]","[0,1,1,1]",0,14,14,14,1,0,1,,,1,FALSE,,,,,,,,,,,,,,,,,,,,,,,,,,,,,,,
,61621d61b0eedb6e196e0950,627c6fc12ca7f3627b95733f,2022-05-11_21h25.51.585,classification_task,2021.2.3,Win32,60.0528465,627c6715c52fd12f31907bcf,,,,,,,,,,,,,,,,,,,,,,,l,1,1.7105,"[""0.074"",""0.214"",""0.599"",""0.690""]","[1,1,1,0]",0,15,15,15,1,1,0,,,1,FALSE,,,,,,,,,,,,,,,,,,,,,,,,,,,,,,,
,61621d61b0eedb6e196e0950,627c6fc12ca7f3627b95733f,2022-05-11_21h25.51.585,classification_task,2021.2.3,Win32,60.0528465,627c6715c52fd12f31907bcf,,,,,,,,,,,,,,,,,,,,,,,a,1,1.7939,"[""0.285"",""0.557"",""0.180"",""0.943""]","[1,1,0,1]",0,16,16,16,1,0,0,,,1,FALSE,,,,,,,,,,,,,,,,,,,,,,,,,,,,,,,
,61621d61b0eedb6e196e0950,627c6fc12ca7f3627b95733f,2022-05-11_21h25.51.585,classification_task,2021.2.3,Win32,60.0528465,627c6715c52fd12f31907bcf,,,,,,,,,,,,,,,,,,,,,,,l,1,1.1475,"[""0.146"",""0.679"",""0.481"",""0.728""]","[1,0,1,1]",0,17,17,17,1,1,1,,,1,FALSE,,,,,,,,,,,,,,,,,,,,,,,,,,,,,,,
,61621d61b0eedb6e196e0950,627c6fc12ca7f3627b95733f,2022-05-11_21h25.51.585,classification_task,2021.2.3,Win32,60.0528465,627c6715c52fd12f31907bcf,,,,,,,,,,,,,,,,,,,,,,,a,1,0.9386,"[""0.285"",""0.557"",""0.903"",""0.519""]","[1,1,1,0]",0,18,18,18,1,0,0,,,1,FALSE,,,,,,,,,,,,,,,,,,,,,,,,,,,,,,,
,61621d61b0eedb6e196e0950,627c6fc12ca7f3627b95733f,2022-05-11_21h25.51.585,classification_task,2021.2.3,Win32,60.0528465,627c6715c52fd12f31907bcf,,,,,,,,,,,,,,,,,,,,,,,a,0,0.941,"[""0.074"",""0.214"",""0.031"",""0.805""]","[1,1,0,1]",0,19,19,19,1,1,0,,,1,FALSE,,,,,,,,,,,,,,,,,,,,,,,,,,,,,,,
,61621d61b0eedb6e196e0950,627c6fc12ca7f3627b95733f,2022-05-11_21h25.51.585,classification_task,2021.2.3,Win32,60.0528465,627c6715c52fd12f31907bcf,,,,,,,,,,,,,,,,,,,,,,,l,1,1.3273,"[""0.146"",""0.366"",""0.692"",""0.728""]","[1,1,0,1]",0,20,20,20,1,1,1,,,1,FALSE,,,,,,,,,,,,,,,,,,,,,,,,,,,,,,,
,61621d61b0eedb6e196e0950,627c6fc12ca7f3627b95733f,2022-05-11_21h25.51.585,classification_task,2021.2.3,Win32,60.0528465,627c6715c52fd12f31907bcf,,,,,,,,,,,,,,,,,,,,,,,l,1,1.5375,"[""0.180"",""0.366"",""0.481"",""0.728""]","[0,1,1,1]",0,21,21,21,1,1,1,,,1,FALSE,,,,,,,,,,,,,,,,,,,,,,,,,,,,,,,
,61621d61b0eedb6e196e0950,627c6fc12ca7f3627b95733f,2022-05-11_21h25.51.585,classification_task,2021.2.3,Win32,60.0528465,627c6715c52fd12f31907bcf,,,,,,,,,,,,,,,,,,,,,,,a,1,0.6369,"[""0.769"",""0.557"",""0.903"",""0.943""]","[0,1,1,1]",0,22,22,22,1,0,0,,,1,FALSE,,,,,,,,,,,,,,,,,,,,,,,,,,,,,,,
,61621d61b0eedb6e196e0950,627c6fc12ca7f3627b95733f,2022-05-11_21h25.51.585,classification_task,2021.2.3,Win32,60.0528465,627c6715c52fd12f31907bcf,,,,,,,,,,,,,,,,,,,,,,,a,1,0.6178,"[""0.285"",""0.180"",""0.903"",""0.943""]","[1,0,1,1]",0,23,23,23,1,0,0,,,1,FALSE,,,,,,,,,,,,,,,,,,,,,,,,,,,,,,,
,61621d61b0eedb6e196e0950,627c6fc12ca7f3627b95733f,2022-05-11_21h25.51.585,classification_task,2021.2.3,Win32,60.0528465,627c6715c52fd12f31907bcf,,,,,,,,,,,,,,,,,,,,,,,l,1,0.8722,"[""0.074"",""0.214"",""0.599"",""0.516""]","[1,1,1,0]",0,24,24,24,1,1,0,,,1,FALSE,,,,,,,,,,,,,,,,,,,,,,,,,,,,,,,
,61621d61b0eedb6e196e0950,627c6fc12ca7f3627b95733f,2022-05-11_21h25.51.585,classification_task,2021.2.3,Win32,60.0528465,627c6715c52fd12f31907bcf,,,,,,,,,,,,,,,,,,,,,,,a,1,0.6213,"[""0.768"",""0.412"",""0.633"",""0.845""]","[0,1,1,1]",0,25,25,25,1,0,1,,,1,FALSE,,,,,,,,,,,,,,,,,,,,,,,,,,,,,,,
,61621d61b0eedb6e196e0950,627c6fc12ca7f3627b95733f,2022-05-11_21h25.51.585,classification_task,2021.2.3,Win32,60.0528465,627c6715c52fd12f31907bcf,,,,,,,,,,,,,,,,,,,,,,,l,1,0.7958,"[""0.074"",""0.516"",""0.599"",""0.805""]","[1,0,1,1]",0,26,26,26,1,1,0,,,1,FALSE,,,,,,,,,,,,,,,,,,,,,,,,,,,,,,,
,61621d61b0eedb6e196e0950,627c6fc12ca7f3627b95733f,2022-05-11_21h25.51.585,classification_task,2021.2.3,Win32,60.0528465,627c6715c52fd12f31907bcf,,,,,,,,,,,,,,,,,,,,,,,a,0,0.9499,"[""0.146"",""0.366"",""0.481"",""0.031""]","[1,1,1,0]",0,27,27,27,1,1,1,,,1,FALSE,,,,,,,,,,,,,,,,,,,,,,,,,,,,,,,
,61621d61b0eedb6e196e0950,627c6fc12ca7f3627b95733f,2022-05-11_21h25.51.585,classification_task,2021.2.3,Win32,60.0528465,627c6715c52fd12f31907bcf,,,,,,,,,,,,,,,,,,,,,,,l,1,1.4932,"[""0.690"",""0.214"",""0.599"",""0.805""]","[0,1,1,1]",0,28,28,28,1,1,0,,,1,FALSE,,,,,,,,,,,,,,,,,,,,,,,,,,,,,,,
,61621d61b0eedb6e196e0950,627c6fc12ca7f3627b95733f,2022-05-11_21h25.51.585,classification_task,2021.2.3,Win32,60.0528465,627c6715c52fd12f31907bcf,,,,,,,,,,,,,,,,,,,,,,,a,1,0.9,"[""0.320"",""0.412"",""0.633"",""0.677""]","[1,1,1,0]",0,29,29,29,1,0,1,,,1,FALSE,,,,,,,,,,,,,,,,,,,,,,,,,,,,,,,
,61621d61b0eedb6e196e0950,627c6fc12ca7f3627b95733f,2022-05-11_21h25.51.585,classification_task,2021.2.3,Win32,60.0528465,627c6715c52fd12f31907bcf,,,,,,,,,,,,,,,,,,,,,,,a,1,0.7561,"[""0.320"",""0.412"",""0.180"",""0.845""]","[1,1,0,1]",0,30,30,30,1,0,1,,,1,FALSE,,,,,,,,,,,,,,,,,,,,,,,,,,,,,,,
,61621d61b0eedb6e196e0950,627c6fc12ca7f3627b95733f,2022-05-11_21h25.51.585,classification_task,2021.2.3,Win32,60.0528465,627c6715c52fd12f31907bcf,,,,,,,,,,,,,,,,,,,,,,,a,1,0.6211,"[""0.320"",""0.768"",""0.633"",""0.845""]","[1,0,1,1]",0,31,31,31,1,0,1,,,1,FALSE,,,,,,,,,,,,,,,,,,,,,,,,,,,,,,,
,61621d61b0eedb6e196e0950,627c6fc12ca7f3627b95733f,2022-05-11_21h25.51.585,classification_task,2021.2.3,Win32,60.0528465,627c6715c52fd12f31907bcf,,,,,,,,,,,,,,,,,,,,,,,a,0,0.7327,"[""0.074"",""0.025"",""0.599"",""0.805""]","[1,0,1,1]",0,32,32,32,1,1,0,,,1,FALSE,,,,,,,,,,,,,,,,,,,,,,,,,,,,,,,
,61621d61b0eedb6e196e0950,627c6fc12ca7f3627b95733f,2022-05-11_21h25.51.585,classification_task,2021.2.3,Win32,60.0528465,627c6715c52fd12f31907bcf,,,,,,,,,,,,,,,,,,,,,,,l,1,0.9836,"[""0.516"",""0.214"",""0.599"",""0.805""]","[0,1,1,1]",0,33,33,33,1,1,0,,,1,FALSE,,,,,,,,,,,,,,,,,,,,,,,,,,,,,,,
,61621d61b0eedb6e196e0950,627c6fc12ca7f3627b95733f,2022-05-11_21h25.51.585,classification_task,2021.2.3,Win32,60.0528465,627c6715c52fd12f31907bcf,,,,,,,,,,,,,,,,,,,,,,,a,1,0.71,"[""0.285"",""0.516"",""0.903"",""0.943""]","[1,0,1,1]",0,34,34,34,1,0,0,,,1,FALSE,,,,,,,,,,,,,,,,,,,,,,,,,,,,,,,
,61621d61b0eedb6e196e0950,627c6fc12ca7f3627b95733f,2022-05-11_21h25.51.585,classification_task,2021.2.3,Win32,60.0528465,627c6715c52fd12f31907bcf,,,,,,,,,,,,,,,,,,,,,,,a,1,0.5612,"[""0.519"",""0.412"",""0.633"",""0.845""]","[0,1,1,1]",0,35,35,35,1,0,1,,,1,FALSE,,,,,,,,,,,,,,,,,,,,,,,,,,,,,,,
,61621d61b0eedb6e196e0950,627c6fc12ca7f3627b95733f,2022-05-11_21h25.51.585,classification_task,2021.2.3,Win32,60.0528465,627c6715c52fd12f31907bcf,,,,,,,,,,,,,,,,,,,,,,,l,1,1.3949,"[""0.146"",""0.366"",""0.481"",""0.763""]","[1,1,1,0]",0,36,36,36,1,1,1,,,1,FALSE,,,,,,,,,,,,,,,,,,,,,,,,,,,,,,,
,61621d61b0eedb6e196e0950,627c6fc12ca7f3627b95733f,2022-05-11_21h25.51.585,classification_task,2021.2.3,Win32,60.0528465,627c6715c52fd12f31907bcf,,,,,,,,,,,,,,,,,,,,,,,l,1,1.0428,"[""0.146"",""0.677"",""0.481"",""0.728""]","[1,0,1,1]",0,37,37,37,1,1,1,,,1,FALSE,,,,,,,,,,,,,,,,,,,,,,,,,,,,,,,
,61621d61b0eedb6e196e0950,627c6fc12ca7f3627b95733f,2022-05-11_21h25.51.585,classification_task,2021.2.3,Win32,60.0528465,627c6715c52fd12f31907bcf,,,,,,,,,,,,,,,,,,,,,,,a,1,0.8494,"[""0.320"",""0.412"",""0.519"",""0.845""]","[1,1,0,1]",0,38,38,38,1,0,1,,,1,FALSE,,,,,,,,,,,,,,,,,,,,,,,,,,,,,,,
,61621d61b0eedb6e196e0950,627c6fc12ca7f3627b95733f,2022-05-11_21h25.51.585,classification_task,2021.2.3,Win32,60.0528465,627c6715c52fd12f31907bcf,,,,,,,,,,,,,,,,,,,,,,,a,0,0.8059,"[""0.074"",""0.214"",""0.025"",""0.805""]","[1,1,0,1]",0,39,39,39,1,1,0,,,1,FALSE,,,,,,,,,,,,,,,,,,,,,,,,,,,,,,,
,61621d61b0eedb6e196e0950,627c6fc12ca7f3627b95733f,2022-05-11_21h25.51.585,classification_task,2021.2.3,Win32,60.0528465,627c6715c52fd12f31907bcf,,,,,,,,,,,,,,,,,,,,,,,l,1,1.293,"[""0.074"",""0.214"",""0.599"",""0.677""]","[1,1,1,0]",0,40,40,40,1,1,0,,,1,FALSE,,,,,,,,,,,,,,,,,,,,,,,,,,,,,,,
,61621d61b0eedb6e196e0950,627c6fc12ca7f3627b95733f,2022-05-11_21h25.51.585,classification_task,2021.2.3,Win32,60.0528465,627c6715c52fd12f31907bcf,,,,,,,,,,,,,,,,,,,,,,,a,0,0.6574,"[""0.763"",""0.366"",""0.481"",""0.728""]","[0,1,1,1]",0,41,41,41,1,1,1,,,1,FALSE,,,,,,,,,,,,,,,,,,,,,,,,,,,,,,,
,61621d61b0eedb6e196e0950,627c6fc12ca7f3627b95733f,2022-05-11_21h25.51.585,classification_task,2021.2.3,Win32,60.0528465,627c6715c52fd12f31907bcf,,,,,,,,,,,,,,,,,,,,,,,a,1,1.0714,"[""0.320"",""0.412"",""0.633"",""0.769""]","[1,1,1,0]",0,42,42,42,1,0,1,,,1,FALSE,,,,,,,,,,,,,,,,,,,,,,,,,,,,,,,
,61621d61b0eedb6e196e0950,627c6fc12ca7f3627b95733f,2022-05-11_21h25.51.585,classification_task,2021.2.3,Win32,60.0528465,627c6715c52fd12f31907bcf,,,,,,,,,,,,,,,,,,,,,,,a,1,1.0996,"[""0.285"",""0.557"",""0.690"",""0.943""]","[1,1,0,1]",0,43,43,43,1,0,0,,,1,FALSE,,,,,,,,,,,,,,,,,,,,,,,,,,,,,,,
,61621d61b0eedb6e196e0950,627c6fc12ca7f3627b95733f,2022-05-11_21h25.51.585,classification_task,2021.2.3,Win32,60.0528465,627c6715c52fd12f31907bcf,,,,,,,,,,,,,,,,,,,,,,,a,1,0.8223,"[""0.689"",""0.557"",""0.903"",""0.943""]","[0,1,1,1]",0,44,44,44,1,0,0,,,1,FALSE,,,,,,,,,,,,,,,,,,,,,,,,,,,,,,,
,61621d61b0eedb6e196e0950,627c6fc12ca7f3627b95733f,2022-05-11_21h25.51.585,classification_task,2021.2.3,Win32,60.0528465,627c6715c52fd12f31907bcf,,,,,,,,,,,,,,,,,,,,,,,a,1,0.7006,"[""0.320"",""0.519"",""0.633"",""0.845""]","[1,0,1,1]",0,45,45,45,1,0,1,,,1,FALSE,,,,,,,,,,,,,,,,,,,,,,,,,,,,,,,
,61621d61b0eedb6e196e0950,627c6fc12ca7f3627b95733f,2022-05-11_21h25.51.585,classification_task,2021.2.3,Win32,60.0528465,627c6715c52fd12f31907bcf,,,,,,,,,,,,,,,,,,,,,,,l,1,1.0002,"[""0.146"",""0.366"",""0.769"",""0.728""]","[1,1,0,1]",0,46,46,46,1,1,1,,,1,FALSE,,,,,,,,,,,,,,,,,,,,,,,,,,,,,,,
,61621d61b0eedb6e196e0950,627c6fc12ca7f3627b95733f,2022-05-11_21h25.51.585,classification_task,2021.2.3,Win32,60.0528465,627c6715c52fd12f31907bcf,,,,,,,,,,,,,,,,,,,,,,,a,1,0.728,"[""0.285"",""0.557"",""0.903"",""0.768""]","[1,1,1,0]",0,47,47,47,1,0,0,,,1,FALSE,,,,,,,,,,,,,,,,,,,,,,,,,,,,,,,
,61621d61b0eedb6e196e0950,627c6fc12ca7f3627b95733f,2022-05-11_21h25.51.585,classification_task,2021.2.3,Win32,60.0528465,627c6715c52fd12f31907bcf,,,,,,,,,,,,,,,,,,,,,,,l,1,0.9158,"[""0.146"",""0.366"",""0.690"",""0.728""]","[1,1,0,1]",0,48,48,48,1,1,1,,,1,FALSE,,,,,,,,,,,,,,,,,,,,,,,,,,,,,,,
,61621d61b0eedb6e196e0950,627c6fc12ca7f3627b95733f,2022-05-11_21h25.51.585,classification_task,2021.2.3,Win32,60.0528465,627c6715c52fd12f31907bcf,,,,,,,,,,,,,,,,,,,,,,,l,1,6.0376,"[""0.690"",""0.214"",""0.599"",""0.805""]","[0,1,1,1]",0,49,49,49,1,1,0,,,1,FALSE,,,,,,,,,,,,,,,,,,,,,,,,,,,,,,,
,61621d61b0eedb6e196e0950,627c6fc12ca7f3627b95733f,2022-05-11_21h25.51.585,classification_task,2021.2.3,Win32,60.0528465,627c6715c52fd12f31907bcf,,,,,,,,,,,,,,,,,,,,,,,l,1,1.0457,"[""0.146"",""0.690"",""0.481"",""0.728""]","[1,0,1,1]",0,50,50,50,1,1,1,,,1,FALSE,,,,,,,,,,,,,,,,,,,,,,,,,,,,,,,
,61621d61b0eedb6e196e0950,627c6fc12ca7f3627b95733f,2022-05-11_21h25.51.585,classification_task,2021.2.3,Win32,60.0528465,627c6715c52fd12f31907bcf,,,,,,,,,,,,,,,,,,,,,,,a,1,0.5533,"[""0.320"",""0.412"",""0.689"",""0.845""]","[1,1,0,1]",0,51,51,51,1,0,1,,,1,FALSE,,,,,,,,,,,,,,,,,,,,,,,,,,,,,,,
,61621d61b0eedb6e196e0950,627c6fc12ca7f3627b95733f,2022-05-11_21h25.51.585,classification_task,2021.2.3,Win32,60.0528465,627c6715c52fd12f31907bcf,,,,,,,,,,,,,,,,,,,,,,,a,1,0.6833,"[""0.285"",""0.768"",""0.903"",""0.943""]","[1,0,1,1]",0,52,52,52,1,0,0,,,1,FALSE,,,,,,,,,,,,,,,,,,,,,,,,,,,,,,,
,61621d61b0eedb6e196e0950,627c6fc12ca7f3627b95733f,2022-05-11_21h25.51.585,classification_task,2021.2.3,Win32,60.0528465,627c6715c52fd12f31907bcf,,,,,,,,,,,,,,,,,,,,,,,a,1,0.7257,"[""0.320"",""0.412"",""0.633"",""0.689""]","[1,1,1,0]",0,53,53,53,1,0,1,,,1,FALSE,,,,,,,,,,,,,,,,,,,,,,,,,,,,,,,
,61621d61b0eedb6e196e0950,627c6fc12ca7f3627b95733f,2022-05-11_21h25.51.585,classification_task,2021.2.3,Win32,60.0528465,627c6715c52fd12f31907bcf,,,,,,,,,,,,,,,,,,,,,,,l,1,1.1844,"[""0.074"",""0.690"",""0.599"",""0.805""]","[1,0,1,1]",0,54,54,54,1,1,0,,,1,FALSE,,,,,,,,,,,,,,,,,,,,,,,,,,,,,,,
,61621d61b0eedb6e196e0950,627c6fc12ca7f3627b95733f,2022-05-11_21h25.51.585,classification_task,2021.2.3,Win32,60.0528465,627c6715c52fd12f31907bcf,,,,,,,,,,,,,,,,,,,,,,,a,1,0.7927,"[""0.285"",""0.557"",""0.903"",""0.025""]","[1,1,1,0]",0,55,55,55,1,0,0,,,1,FALSE,,,,,,,,,,,,,,,,,,,,,,,,,,,,,,,
,61621d61b0eedb6e196e0950,627c6fc12ca7f3627b95733f,2022-05-11_21h25.51.585,classification_task,2021.2.3,Win32,60.0528465,627c6715c52fd12f31907bcf,,,,,,,,,,,,,,,,,,,,,,,l,0,1.4722,"[""0.180"",""0.412"",""0.633"",""0.845""]","[0,1,1,1]",0,56,56,56,1,0,1,,,1,FALSE,,,,,,,,,,,,,,,,,,,,,,,,,,,,,,,
,61621d61b0eedb6e196e0950,627c6fc12ca7f3627b95733f,2022-05-11_21h25.51.585,classification_task,2021.2.3,Win32,60.0528465,627c6715c52fd12f31907bcf,,,,,,,,,,,,,,,,,,,,,,,a,1,0.7837,"[""0.285"",""0.557"",""0.031"",""0.943""]","[1,1,0,1]",0,57,57,57,1,0,0,,,1,FALSE,,,,,,,,,,,,,,,,,,,,,,,,,,,,,,,
,61621d61b0eedb6e196e0950,627c6fc12ca7f3627b95733f,2022-05-11_21h25.51.585,classification_task,2021.2.3,Win32,60.0528465,627c6715c52fd12f31907bcf,,,,,,,,,,,,,,,,,,,,,,,l,1,0.9007,"[""0.074"",""0.214"",""0.599"",""0.679""]","[1,1,1,0]",0,58,58,58,1,1,0,,,1,FALSE,,,,,,,,,,,,,,,,,,,,,,,,,,,,,,,
,61621d61b0eedb6e196e0950,627c6fc12ca7f3627b95733f,2022-05-11_21h25.51.585,classification_task,2021.2.3,Win32,60.0528465,627c6715c52fd12f31907bcf,,,,,,,,,,,,,,,,,,,,,,,a,0,2.1523,"[""0.146"",""0.366"",""0.481"",""0.031""]","[1,1,1,0]",0,59,59,59,1,1,1,,,1,FALSE,,,,,,,,,,,,,,,,,,,,,,,,,,,,,,,
,61621d61b0eedb6e196e0950,627c6fc12ca7f3627b95733f,2022-05-11_21h25.51.585,classification_task,2021.2.3,Win32,60.0528465,627c6715c52fd12f31907bcf,,,,,,,,,,,,,,,,,,,,,,,l,1,0.8746,"[""0.074"",""0.214"",""0.180"",""0.805""]","[1,1,0,1]",0,60,60,60,1,1,0,,,1,FALSE,,,,,,,,,,,,,,,,,,,,,,,,,,,,,,,
,61621d61b0eedb6e196e0950,627c6fc12ca7f3627b95733f,2022-05-11_21h25.51.585,classification_task,2021.2.3,Win32,60.0528465,627c6715c52fd12f31907bcf,,,,,,,,,,,,,,,,,,,,,,,a,1,1.5665,"[""0.320"",""0.516"",""0.633"",""0.845""]","[1,0,1,1]",0,61,61,61,1,0,1,,,1,FALSE,,,,,,,,,,,,,,,,,,,,,,,,,,,,,,,
,61621d61b0eedb6e196e0950,627c6fc12ca7f3627b95733f,2022-05-11_21h25.51.585,classification_task,2021.2.3,Win32,60.0528465,627c6715c52fd12f31907bcf,,,,,,,,,,,,,,,,,,,,,,,a,0,1.6488,"[""0.689"",""0.366"",""0.481"",""0.728""]","[0,1,1,1]",0,62,62,62,1,1,1,,,1,FALSE,,,,,,,,,,,,,,,,,,,,,,,,,,,,,,,
,61621d61b0eedb6e196e0950,627c6fc12ca7f3627b95733f,2022-05-11_21h25.51.585,classification_task,2021.2.3,Win32,60.0528465,627c6715c52fd12f31907bcf,,,,,,,,,,,,,,,,,,,,,,,a,1,0.812,"[""0.031"",""0.557"",""0.903"",""0.943""]","[0,1,1,1]",0,63,63,63,1,0,0,,,1,FALSE,,,,,,,,,,,,,,,,,,,,,,,,,,,,,,,
,61621d61b0eedb6e196e0950,627c6fc12ca7f3627b95733f,2022-05-11_21h25.51.585,classification_task,2021.2.3,Win32,60.0528465,627c6715c52fd12f31907bcf,,,,,,,,,,,,,,,,,,,,,,,,,,,,,,,,,,,,,,,0, ,,0,10,149.8077,0,2,2,2,1,2,3,,,,,,,,,,,,,,,,,,
,61621d61b0eedb6e196e0950,627c6fc12ca7f3627b95733f,2022-05-11_21h25.51.585,classification_task,2021.2.3,Win32,60.0528465,627c6715c52fd12f31907bcf,,,,,,,,,,,,,,,,,,,,,,,,,,,,,,,,,,,,,,,1,  ,,0,6.935136194,153.5422,0,2,2,2,1,2,3,,,,,,,,,,,,,,,,,,
,61621d61b0eedb6e196e0950,627c6fc12ca7f3627b95733f,2022-05-11_21h25.51.585,classification_task,2021.2.3,Win32,60.0528465,627c6715c52fd12f31907bcf,,,,,,,,,,,,,,,,,,,,,,,,,,,,,,,,,,,,,,,2,  ,,0,3.726239467,156.4961,0,2,2,2,1,2,3,,,,,,,,,,,,,,,,,,
,61621d61b0eedb6e196e0950,627c6fc12ca7f3627b95733f,2022-05-11_21h25.51.585,classification_task,2021.2.3,Win32,60.0528465,627c6715c52fd12f31907bcf,,,,,,,,,,,,,,,,,,,,,,,,,,,,,,,,,,,,,,,,,,,,,0,2,2,2,1,,3,,,,,,,,,,,,,,,,,,
,61621d61b0eedb6e196e0950,627c6fc12ca7f3627b95733f,2022-05-11_21h25.51.585,classification_task,2021.2.3,Win32,60.0528465,627c6715c52fd12f31907bcf,,,,,,,,,,,,,,,,,,,,,,,,,,,,,,,,,,,,,,,,,,,,,,,,,,,,,I believe the aid is a competent performer,,0.7,0,5,844.9153,0,0,0,0,1,0,,,,,
,61621d61b0eedb6e196e0950,627c6fc12ca7f3627b95733f,2022-05-11_21h25.51.585,classification_task,2021.2.3,Win32,60.0528465,627c6715c52fd12f31907bcf,,,,,,,,,,,,,,,,,,,,,,,,,,,,,,,,,,,,,,,,,,,,,,,,,,,,,I trust the aid,,0.7,0,5,846.358,0,0,0,0,1,0,,,,,
,61621d61b0eedb6e196e0950,627c6fc12ca7f3627b95733f,2022-05-11_21h25.51.585,classification_task,2021.2.3,Win32,60.0528465,627c6715c52fd12f31907bcf,,,,,,,,,,,,,,,,,,,,,,,,,,,,,,,,,,,,,,,,,,,,,,,,,,,,,I have confidence in the advice given by the aid,,0.7,0,5,848.6057,0,0,0,0,1,0,,,,,
,61621d61b0eedb6e196e0950,627c6fc12ca7f3627b95733f,2022-05-11_21h25.51.585,classification_task,2021.2.3,Win32,60.0528465,627c6715c52fd12f31907bcf,,,,,,,,,,,,,,,,,,,,,,,,,,,,,,,,,,,,,,,,,,,,,,,,,,,,,I can depend on the aid,,0.7,0,5,849.7887,0,0,0,0,1,0,,,,,
,61621d61b0eedb6e196e0950,627c6fc12ca7f3627b95733f,2022-05-11_21h25.51.585,classification_task,2021.2.3,Win32,60.0528465,627c6715c52fd12f31907bcf,,,,,,,,,,,,,,,,,,,,,,,,,,,,,,,,,,,,,,,,,,,,,,,,,,,,,I can rely on the aid to behave in consistent ways,,0.7,0,5,850.8377,0,0,0,0,1,0,,,,,
,61621d61b0eedb6e196e0950,627c6fc12ca7f3627b95733f,2022-05-11_21h25.51.585,classification_task,2021.2.3,Win32,60.0528465,627c6715c52fd12f31907bcf,,,,,,,,,,,,,,,,,,,,,,,,,,,,,,,,,,,,,,,,,,,,,,,,,,,,,I can rely on the aid to do its best every time I take its advice,,0.7,0,5,852.2536,0,0,0,0,1,0,,,,,
,61621d61b0eedb6e196e0950,627c6fc12ca7f3627b95733f,2022-05-11_21h25.51.585,classification_task,2021.2.3,Win32,60.0528465,627c6715c52fd12f31907bcf,,,,,,,,,,,,,,,,,,,,,,,,,,,,,,,,,,,,,,,,,,,,,,,,,,,,,"On trials you completed with assistance from the aid, how frequently did you think the aid was correct?",,0.7,0,100,,0,0,0,0,1,0,,,,,
,61621d61b0eedb6e196e0950,627c6fc12ca7f3627b95733f,2022-05-11_21h25.51.585,classification_task,2021.2.3,Win32,60.0528465,627c6715c52fd12f31907bcf,,,,,,,,,,,,,,,,,,,,,,,,,,,,,,,,,,,,,,,,,,,,,,,,,,,,,"On trials you completed without the aid, how frequently did you think you were correct?",,0.7,0,80,,0,0,0,0,1,0,,,,,
,61621d61b0eedb6e196e0950,627c6fc12ca7f3627b95733f,2022-05-11_21h25.51.585,classification_task,2021.2.3,Win32,60.0528465,627c6715c52fd12f31907bcf,,,,,,,,,,,,,,,,,,,,,,,,,,,,,,,,,,,,,,,,,,,,,,,,,,,,,,,,,,,0,0,0,0,1,,,,,,
,61621d61b0eedb6e196e0950,627c6fc12ca7f3627b95733f,2022-05-11_21h25.51.585,classification_task,2021.2.3,Win32,60.0528465,627c6715c52fd12f31907bcf,,,,,,,,,,,,,,,,,,,,,,,,,,,,,,,,,,,,,,,,,,,,,,,,,,,,,,,,,,,,,,,,,space,12.1308,889.0646,,
,61621d61b0eedb6e196e0950,627c6fc12ca7f3627b95733f,2022-05-11_21h25.51.585,classification_task,2021.2.3,Win32,60.0528465,627c6715c52fd12f31907bcf,,,,,,,,,,,,,,,,,,,,,,,,,,,,,,,,,,,,,,,,,,,,,,,,,,,,,,,,,,,,,,,,,,,,"Mozilla/5.0 (Windows NT 10.0; Win64; x64) AppleWebKit/537.36 (KHTML, like Gecko) Chrome/101.0.4951.54 Safari/537.36",
,61621d61b0eedb6e196e0950,627c6fc12ca7f3627b95733f,2022-05-11_21h25.51.585,classification_task,2021.2.3,Win32,60.0528465,627c6715c52fd12f31907bcf,,,,,,,,,,,,,,,,,,,,,,,,,,,,,,,,,,,,,,,,,,,,,,,,,,,,,,,,,,,,,,,,,,,,,HIGHLIGHT
