usingWebGL,participant,session,date,expName,psychopyVersion,OS,frameRate,study_id,signatures_friend,signatures_foe,band_ranges_top,band_ranges_bottom,formitemText,formtype,formundefined,formitemWidth,formindex,formresponse,formrt,key_resp_2.keys,key_resp_2.rt,tute_resp.keys,tute_resp.rt,tutorial.thisRepN,tutorial.thisTrialN,tutorial.thisN,tutorial.thisIndex,tutorial.ran,key_resp_4.keys,key_resp_4.rt,key_resp.keys,key_resp.corr,key_resp.rt,lines_presented,is_signal_presented,trials.thisRepN,trials.thisTrialN,trials.thisN,trials.thisIndex,trials.ran,vessel,active_band,lines,is_signal,supported_pos,catch_trial,debrief_formindex,debrief_formitemText,debrief_formtype,debrief_formitemWidth,debrief_formresponse,debrief_formrt,phases.thisRepN,phases.thisTrialN,phases.thisN,phases.thisIndex,phases.ran,phases.order,phase,key_resp_3.keys,trustitemText,trusttype,trustitemWidth,trustindex,trustresponse,trustrt,support_status.thisRepN,support_status.thisTrialN,support_status.thisN,support_status.thisIndex,support_status.ran,support_status.order,key_resp_5.keys,key_resp_5.rt,globalClockTime,userAgent,manualCondition
TRUE,61634ea5478b2d1e072e8353,627c6fdcd1967c145333bea7,2022-05-11_21h40.40.588,classification_task,2021.2.3,Win32,59.52380952,627c6715c52fd12f31907bcf,,,,,,,,,,,,,,,,,,,,,,,,,,,,,,,,,,,,,,,,,,,,,,,,,,,,,,,,,,,,,,,,,,,,,
,61634ea5478b2d1e072e8353,627c6fdcd1967c145333bea7,2022-05-11_21h40.40.588,classification_task,2021.2.3,Win32,59.52380952,627c6715c52fd12f31907bcf,"[[""0.262"",""0.485"",""0.912"",""0.945""],[""0.172"",""0.564"",""0.662"",""0.876""]]","[[""0.037"",""0.384"",""0.525"",""0.843""],[""0.130"",""0.302"",""0.450"",""0.769""]]","[1,10]","[100,1000]",Video game experience,,,0.7,0,,,,,,,,,,,,,,,,,,,,,,,,,,,,,,,,,,,,,,,,,,,,,,,,,,,,,,,,,,,,
,61634ea5478b2d1e072e8353,627c6fdcd1967c145333bea7,2022-05-11_21h40.40.588,classification_task,2021.2.3,Win32,59.52380952,627c6715c52fd12f31907bcf,,,,,Approximately how many hours did you spend playing video games in the last week?,,,0.7,0,11,,,,,,,,,,,,,,,,,,,,,,,,,,,,,,,,,,,,,,,,,,,,,,,,,,,,,,,,,,,
,61634ea5478b2d1e072e8353,627c6fdcd1967c145333bea7,2022-05-11_21h40.40.588,classification_task,2021.2.3,Win32,59.52380952,627c6715c52fd12f31907bcf,,,,,"Which game did you play the most this year? (Enter ""None"" if you didn't play any)",,,0.7,0,Valorant,,,,,,,,,,,,,,,,,,,,,,,,,,,,,,,,,,,,,,,,,,,,,,,,,,,,,,,,,,,
,61634ea5478b2d1e072e8353,627c6fdcd1967c145333bea7,2022-05-11_21h40.40.588,classification_task,2021.2.3,Win32,59.52380952,627c6715c52fd12f31907bcf,,,,,Visual perception,,,0.7,0,,,,,,,,,,,,,,,,,,,,,,,,,,,,,,,,,,,,,,,,,,,,,,,,,,,,,,,,,,,,
,61634ea5478b2d1e072e8353,627c6fdcd1967c145333bea7,2022-05-11_21h40.40.588,classification_task,2021.2.3,Win32,59.52380952,627c6715c52fd12f31907bcf,,,,,Do you have any form of color blindness?,,,0.7,0,No,357.0042,,,,,,,,,,,,,,,,,,,,,,,,,,,,,,,,,,,,,,,,,,,,,,,,,,,,,,,,,,
,61634ea5478b2d1e072e8353,627c6fdcd1967c145333bea7,2022-05-11_21h40.40.588,classification_task,2021.2.3,Win32,59.52380952,627c6715c52fd12f31907bcf,,,,,Do you use software to change the colour temperature of your screen (e.g. f.lux)?,,,0.7,0,No,357.5597,,,,,,,,,,,,,,,,,,,,,,,,,,,,,,,,,,,,,,,,,,,,,,,,,,,,,,,,,,
,61634ea5478b2d1e072e8353,627c6fdcd1967c145333bea7,2022-05-11_21h40.40.588,classification_task,2021.2.3,Win32,59.52380952,627c6715c52fd12f31907bcf,,,,,,,,,,,,space,31.2104,space,9.3903,0,0,0,0,1,,,,,,,,,,,,,,,,,,,,,,,,,,,,,,,,,,,,,,,,,,,,,,,,,
,61634ea5478b2d1e072e8353,627c6fdcd1967c145333bea7,2022-05-11_21h40.40.588,classification_task,2021.2.3,Win32,59.52380952,627c6715c52fd12f31907bcf,,,,,,,,,,,,,,space,16.8662,1,0,1,0,1,,,,,,,,,,,,,,,,,,,,,,,,,,,,,,,,,,,,,,,,,,,,,,,,,
,61634ea5478b2d1e072e8353,627c6fdcd1967c145333bea7,2022-05-11_21h40.40.588,classification_task,2021.2.3,Win32,59.52380952,627c6715c52fd12f31907bcf,,,,,,,,,,,,,,space,34.2341,2,0,2,0,1,,,,,,,,,,,,,,,,,,,,,,,,,,,,,,,,,,,,,,,,,,,,,,,,,
,61634ea5478b2d1e072e8353,627c6fdcd1967c145333bea7,2022-05-11_21h40.40.588,classification_task,2021.2.3,Win32,59.52380952,627c6715c52fd12f31907bcf,,,,,,,,,,,,,,space,11.3741,3,0,3,0,1,,,,,,,,,,,,,,,,,,,,,,,,,,,,,,,,,,,,,,,,,,,,,,,,,
,61634ea5478b2d1e072e8353,627c6fdcd1967c145333bea7,2022-05-11_21h40.40.588,classification_task,2021.2.3,Win32,59.52380952,627c6715c52fd12f31907bcf,,,,,,,,,,,,,,space,16.9005,4,0,4,0,1,,,,,,,,,,,,,,,,,,,,,,,,,,,,,,,,,,,,,,,,,,,,,,,,,
,61634ea5478b2d1e072e8353,627c6fdcd1967c145333bea7,2022-05-11_21h40.40.588,classification_task,2021.2.3,Win32,59.52380952,627c6715c52fd12f31907bcf,,,,,,,,,,,,,,,,,,,,,space,132.9147,l,1,9.3144,"[""0.037"",""0.727"",""0.525"",""0.843""]","[1,0,1,1]",0,0,0,0,1,1,0,,,1,FALSE,,,,,,,,,,,,,,,,,,,,,,,,,,,,,,,
,61634ea5478b2d1e072e8353,627c6fdcd1967c145333bea7,2022-05-11_21h40.40.588,classification_task,2021.2.3,Win32,59.52380952,627c6715c52fd12f31907bcf,,,,,,,,,,,,,,,,,,,,,,,,0,,"[""0.172"",""0.564"",""0.662"",""0.093""]","[1,1,1,0]",0,1,1,1,1,0,1,,,1,FALSE,,,,,,,,,,,,,,,,,,,,,,,,,,,,,,,
,61634ea5478b2d1e072e8353,627c6fdcd1967c145333bea7,2022-05-11_21h40.40.588,classification_task,2021.2.3,Win32,59.52380952,627c6715c52fd12f31907bcf,,,,,,,,,,,,,,,,,,,,,,,,0,,"[""0.727"",""0.302"",""0.450"",""0.769""]","[0,1,1,1]",0,2,2,2,1,1,1,,,1,FALSE,,,,,,,,,,,,,,,,,,,,,,,,,,,,,,,
,61634ea5478b2d1e072e8353,627c6fdcd1967c145333bea7,2022-05-11_21h40.40.588,classification_task,2021.2.3,Win32,59.52380952,627c6715c52fd12f31907bcf,,,,,,,,,,,,,,,,,,,,,,,a,1,5.6675,"[""0.262"",""0.206"",""0.912"",""0.945""]","[1,0,1,1]",0,3,3,3,1,0,0,,,1,FALSE,,,,,,,,,,,,,,,,,,,,,,,,,,,,,,,
,61634ea5478b2d1e072e8353,627c6fdcd1967c145333bea7,2022-05-11_21h40.40.588,classification_task,2021.2.3,Win32,59.52380952,627c6715c52fd12f31907bcf,,,,,,,,,,,,,,,,,,,,,,,l,0,9.0512,"[""0.262"",""0.485"",""0.084"",""0.945""]","[1,1,0,1]",0,4,4,4,1,0,0,,,1,FALSE,,,,,,,,,,,,,,,,,,,,,,,,,,,,,,,
,61634ea5478b2d1e072e8353,627c6fdcd1967c145333bea7,2022-05-11_21h40.40.588,classification_task,2021.2.3,Win32,59.52380952,627c6715c52fd12f31907bcf,,,,,,,,,,,,,,,,,,,,,,,a,1,5.7788,"[""0.621"",""0.485"",""0.912"",""0.945""]","[0,1,1,1]",0,5,5,5,1,0,0,,,1,FALSE,,,,,,,,,,,,,,,,,,,,,,,,,,,,,,,
,61634ea5478b2d1e072e8353,627c6fdcd1967c145333bea7,2022-05-11_21h40.40.588,classification_task,2021.2.3,Win32,59.52380952,627c6715c52fd12f31907bcf,,,,,,,,,,,,,,,,,,,,,,,a,1,4.5087,"[""0.262"",""0.485"",""0.912"",""0.731""]","[1,1,1,0]",0,6,6,6,1,0,0,,,1,FALSE,,,,,,,,,,,,,,,,,,,,,,,,,,,,,,,
,61634ea5478b2d1e072e8353,627c6fdcd1967c145333bea7,2022-05-11_21h40.40.588,classification_task,2021.2.3,Win32,59.52380952,627c6715c52fd12f31907bcf,,,,,,,,,,,,,,,,,,,,,,,l,1,5.6547,"[""0.096"",""0.384"",""0.525"",""0.843""]","[0,1,1,1]",0,7,7,7,1,1,0,,,1,FALSE,,,,,,,,,,,,,,,,,,,,,,,,,,,,,,,
,61634ea5478b2d1e072e8353,627c6fdcd1967c145333bea7,2022-05-11_21h40.40.588,classification_task,2021.2.3,Win32,59.52380952,627c6715c52fd12f31907bcf,,,,,,,,,,,,,,,,,,,,,,,l,1,8.7127,"[""0.130"",""0.716"",""0.450"",""0.769""]","[1,0,1,1]",0,8,8,8,1,1,1,,,1,FALSE,,,,,,,,,,,,,,,,,,,,,,,,,,,,,,,
,61634ea5478b2d1e072e8353,627c6fdcd1967c145333bea7,2022-05-11_21h40.40.588,classification_task,2021.2.3,Win32,59.52380952,627c6715c52fd12f31907bcf,,,,,,,,,,,,,,,,,,,,,,,l,0,5.9948,"[""0.172"",""0.564"",""0.716"",""0.876""]","[1,1,0,1]",0,9,9,9,1,0,1,,,1,FALSE,,,,,,,,,,,,,,,,,,,,,,,,,,,,,,,
,61634ea5478b2d1e072e8353,627c6fdcd1967c145333bea7,2022-05-11_21h40.40.588,classification_task,2021.2.3,Win32,59.52380952,627c6715c52fd12f31907bcf,,,,,,,,,,,,,,,,,,,,,,,l,1,3.804,"[""0.037"",""0.384"",""0.525"",""0.223""]","[1,1,1,0]",0,10,10,10,1,1,0,,,1,FALSE,,,,,,,,,,,,,,,,,,,,,,,,,,,,,,,
,61634ea5478b2d1e072e8353,627c6fdcd1967c145333bea7,2022-05-11_21h40.40.588,classification_task,2021.2.3,Win32,59.52380952,627c6715c52fd12f31907bcf,,,,,,,,,,,,,,,,,,,,,,,l,1,3.4194,"[""0.130"",""0.302"",""0.450"",""0.349""]","[1,1,1,0]",0,11,11,11,1,1,1,,,1,FALSE,,,,,,,,,,,,,,,,,,,,,,,,,,,,,,,
,61634ea5478b2d1e072e8353,627c6fdcd1967c145333bea7,2022-05-11_21h40.40.588,classification_task,2021.2.3,Win32,59.52380952,627c6715c52fd12f31907bcf,,,,,,,,,,,,,,,,,,,,,,,l,1,2.1544,"[""0.037"",""0.384"",""0.223"",""0.843""]","[1,1,0,1]",0,12,12,12,1,1,0,,,1,FALSE,,,,,,,,,,,,,,,,,,,,,,,,,,,,,,,
,61634ea5478b2d1e072e8353,627c6fdcd1967c145333bea7,2022-05-11_21h40.40.588,classification_task,2021.2.3,Win32,59.52380952,627c6715c52fd12f31907bcf,,,,,,,,,,,,,,,,,,,,,,,l,1,8.8039,"[""0.130"",""0.302"",""0.093"",""0.769""]","[1,1,0,1]",0,13,13,13,1,1,1,,,1,FALSE,,,,,,,,,,,,,,,,,,,,,,,,,,,,,,,
,61634ea5478b2d1e072e8353,627c6fdcd1967c145333bea7,2022-05-11_21h40.40.588,classification_task,2021.2.3,Win32,59.52380952,627c6715c52fd12f31907bcf,,,,,,,,,,,,,,,,,,,,,,,a,1,7.6786,"[""0.213"",""0.564"",""0.662"",""0.876""]","[0,1,1,1]",0,14,14,14,1,0,1,,,1,FALSE,,,,,,,,,,,,,,,,,,,,,,,,,,,,,,,
,61634ea5478b2d1e072e8353,627c6fdcd1967c145333bea7,2022-05-11_21h40.40.588,classification_task,2021.2.3,Win32,59.52380952,627c6715c52fd12f31907bcf,,,,,,,,,,,,,,,,,,,,,,,a,1,5.6549,"[""0.172"",""0.093"",""0.662"",""0.876""]","[1,0,1,1]",0,15,15,15,1,0,1,,,1,FALSE,,,,,,,,,,,,,,,,,,,,,,,,,,,,,,,
,61634ea5478b2d1e072e8353,627c6fdcd1967c145333bea7,2022-05-11_21h40.40.588,classification_task,2021.2.3,Win32,59.52380952,627c6715c52fd12f31907bcf,,,,,,,,,,,,,,,,,,,,,,,l,1,3.3434,"[""0.130"",""0.302"",""0.621"",""0.769""]","[1,1,0,1]",0,16,16,16,1,1,1,,,1,FALSE,,,,,,,,,,,,,,,,,,,,,,,,,,,,,,,
,61634ea5478b2d1e072e8353,627c6fdcd1967c145333bea7,2022-05-11_21h40.40.588,classification_task,2021.2.3,Win32,59.52380952,627c6715c52fd12f31907bcf,,,,,,,,,,,,,,,,,,,,,,,a,1,8.0515,"[""0.262"",""0.485"",""0.084"",""0.945""]","[1,1,0,1]",0,17,17,17,1,0,0,,,1,FALSE,,,,,,,,,,,,,,,,,,,,,,,,,,,,,,,
,61634ea5478b2d1e072e8353,627c6fdcd1967c145333bea7,2022-05-11_21h40.40.588,classification_task,2021.2.3,Win32,59.52380952,627c6715c52fd12f31907bcf,,,,,,,,,,,,,,,,,,,,,,,l,1,6.5781,"[""0.037"",""0.716"",""0.525"",""0.843""]","[1,0,1,1]",0,18,18,18,1,1,0,,,1,FALSE,,,,,,,,,,,,,,,,,,,,,,,,,,,,,,,
,61634ea5478b2d1e072e8353,627c6fdcd1967c145333bea7,2022-05-11_21h40.40.588,classification_task,2021.2.3,Win32,59.52380952,627c6715c52fd12f31907bcf,,,,,,,,,,,,,,,,,,,,,,,a,1,5.2236,"[""0.262"",""0.708"",""0.912"",""0.945""]","[1,0,1,1]",0,19,19,19,1,0,0,,,1,FALSE,,,,,,,,,,,,,,,,,,,,,,,,,,,,,,,
,61634ea5478b2d1e072e8353,627c6fdcd1967c145333bea7,2022-05-11_21h40.40.588,classification_task,2021.2.3,Win32,59.52380952,627c6715c52fd12f31907bcf,,,,,,,,,,,,,,,,,,,,,,,l,1,5.9136,"[""0.223"",""0.384"",""0.525"",""0.843""]","[0,1,1,1]",0,20,20,20,1,1,0,,,1,FALSE,,,,,,,,,,,,,,,,,,,,,,,,,,,,,,,
,61634ea5478b2d1e072e8353,627c6fdcd1967c145333bea7,2022-05-11_21h40.40.588,classification_task,2021.2.3,Win32,59.52380952,627c6715c52fd12f31907bcf,,,,,,,,,,,,,,,,,,,,,,,a,1,7.6829,"[""0.349"",""0.564"",""0.662"",""0.876""]","[0,1,1,1]",0,21,21,21,1,0,1,,,1,FALSE,,,,,,,,,,,,,,,,,,,,,,,,,,,,,,,
,61634ea5478b2d1e072e8353,627c6fdcd1967c145333bea7,2022-05-11_21h40.40.588,classification_task,2021.2.3,Win32,59.52380952,627c6715c52fd12f31907bcf,,,,,,,,,,,,,,,,,,,,,,,a,1,6.6428,"[""0.084"",""0.485"",""0.912"",""0.945""]","[0,1,1,1]",0,22,22,22,1,0,0,,,1,FALSE,,,,,,,,,,,,,,,,,,,,,,,,,,,,,,,
,61634ea5478b2d1e072e8353,627c6fdcd1967c145333bea7,2022-05-11_21h40.40.588,classification_task,2021.2.3,Win32,59.52380952,627c6715c52fd12f31907bcf,,,,,,,,,,,,,,,,,,,,,,,a,1,9.8142,"[""0.172"",""0.206"",""0.662"",""0.876""]","[1,0,1,1]",0,23,23,23,1,0,1,,,1,FALSE,,,,,,,,,,,,,,,,,,,,,,,,,,,,,,,
,61634ea5478b2d1e072e8353,627c6fdcd1967c145333bea7,2022-05-11_21h40.40.588,classification_task,2021.2.3,Win32,59.52380952,627c6715c52fd12f31907bcf,,,,,,,,,,,,,,,,,,,,,,,a,1,5.5718,"[""0.172"",""0.564"",""0.730"",""0.876""]","[1,1,0,1]",0,24,24,24,1,0,1,,,1,FALSE,,,,,,,,,,,,,,,,,,,,,,,,,,,,,,,
,61634ea5478b2d1e072e8353,627c6fdcd1967c145333bea7,2022-05-11_21h40.40.588,classification_task,2021.2.3,Win32,59.52380952,627c6715c52fd12f31907bcf,,,,,,,,,,,,,,,,,,,,,,,a,1,5.0562,"[""0.172"",""0.564"",""0.662"",""0.206""]","[1,1,1,0]",0,25,25,25,1,0,1,,,1,FALSE,,,,,,,,,,,,,,,,,,,,,,,,,,,,,,,
,61634ea5478b2d1e072e8353,627c6fdcd1967c145333bea7,2022-05-11_21h40.40.588,classification_task,2021.2.3,Win32,59.52380952,627c6715c52fd12f31907bcf,,,,,,,,,,,,,,,,,,,,,,,l,1,3.7741,"[""0.130"",""0.731"",""0.450"",""0.769""]","[1,0,1,1]",0,26,26,26,1,1,1,,,1,FALSE,,,,,,,,,,,,,,,,,,,,,,,,,,,,,,,
,61634ea5478b2d1e072e8353,627c6fdcd1967c145333bea7,2022-05-11_21h40.40.588,classification_task,2021.2.3,Win32,59.52380952,627c6715c52fd12f31907bcf,,,,,,,,,,,,,,,,,,,,,,,l,1,4.8519,"[""0.037"",""0.384"",""0.621"",""0.843""]","[1,1,0,1]",0,27,27,27,1,1,0,,,1,FALSE,,,,,,,,,,,,,,,,,,,,,,,,,,,,,,,
,61634ea5478b2d1e072e8353,627c6fdcd1967c145333bea7,2022-05-11_21h40.40.588,classification_task,2021.2.3,Win32,59.52380952,627c6715c52fd12f31907bcf,,,,,,,,,,,,,,,,,,,,,,,l,1,3.9408,"[""0.037"",""0.384"",""0.525"",""0.698""]","[1,1,1,0]",0,28,28,28,1,1,0,,,1,FALSE,,,,,,,,,,,,,,,,,,,,,,,,,,,,,,,
,61634ea5478b2d1e072e8353,627c6fdcd1967c145333bea7,2022-05-11_21h40.40.588,classification_task,2021.2.3,Win32,59.52380952,627c6715c52fd12f31907bcf,,,,,,,,,,,,,,,,,,,,,,,l,1,5.8722,"[""0.734"",""0.302"",""0.450"",""0.769""]","[0,1,1,1]",0,29,29,29,1,1,1,,,1,FALSE,,,,,,,,,,,,,,,,,,,,,,,,,,,,,,,
,61634ea5478b2d1e072e8353,627c6fdcd1967c145333bea7,2022-05-11_21h40.40.588,classification_task,2021.2.3,Win32,59.52380952,627c6715c52fd12f31907bcf,,,,,,,,,,,,,,,,,,,,,,,l,1,4.6434,"[""0.130"",""0.302"",""0.450"",""0.730""]","[1,1,1,0]",0,30,30,30,1,1,1,,,1,FALSE,,,,,,,,,,,,,,,,,,,,,,,,,,,,,,,
,61634ea5478b2d1e072e8353,627c6fdcd1967c145333bea7,2022-05-11_21h40.40.588,classification_task,2021.2.3,Win32,59.52380952,627c6715c52fd12f31907bcf,,,,,,,,,,,,,,,,,,,,,,,a,1,4.4722,"[""0.262"",""0.485"",""0.912"",""0.708""]","[1,1,1,0]",0,31,31,31,1,0,0,,,1,FALSE,,,,,,,,,,,,,,,,,,,,,,,,,,,,,,,
,61634ea5478b2d1e072e8353,627c6fdcd1967c145333bea7,2022-05-11_21h40.40.588,classification_task,2021.2.3,Win32,59.52380952,627c6715c52fd12f31907bcf,,,,,,,,,,,,,,,,,,,,,,,l,1,4.2062,"[""0.130"",""0.223"",""0.450"",""0.769""]","[1,0,1,1]",0,32,32,32,1,1,1,,,1,FALSE,,,,,,,,,,,,,,,,,,,,,,,,,,,,,,,
,61634ea5478b2d1e072e8353,627c6fdcd1967c145333bea7,2022-05-11_21h40.40.588,classification_task,2021.2.3,Win32,59.52380952,627c6715c52fd12f31907bcf,,,,,,,,,,,,,,,,,,,,,,,l,0,6.2401,"[""0.262"",""0.485"",""0.093"",""0.945""]","[1,1,0,1]",0,33,33,33,1,0,0,,,1,FALSE,,,,,,,,,,,,,,,,,,,,,,,,,,,,,,,
,61634ea5478b2d1e072e8353,627c6fdcd1967c145333bea7,2022-05-11_21h40.40.588,classification_task,2021.2.3,Win32,59.52380952,627c6715c52fd12f31907bcf,,,,,,,,,,,,,,,,,,,,,,,a,1,2.7913,"[""0.262"",""0.084"",""0.912"",""0.945""]","[1,0,1,1]",0,34,34,34,1,0,0,,,1,FALSE,,,,,,,,,,,,,,,,,,,,,,,,,,,,,,,
,61634ea5478b2d1e072e8353,627c6fdcd1967c145333bea7,2022-05-11_21h40.40.588,classification_task,2021.2.3,Win32,59.52380952,627c6715c52fd12f31907bcf,,,,,,,,,,,,,,,,,,,,,,,l,1,2.2835,"[""0.037"",""0.384"",""0.349"",""0.843""]","[1,1,0,1]",0,35,35,35,1,1,0,,,1,FALSE,,,,,,,,,,,,,,,,,,,,,,,,,,,,,,,
,61634ea5478b2d1e072e8353,627c6fdcd1967c145333bea7,2022-05-11_21h40.40.588,classification_task,2021.2.3,Win32,59.52380952,627c6715c52fd12f31907bcf,,,,,,,,,,,,,,,,,,,,,,,a,1,6.5357,"[""0.172"",""0.564"",""0.662"",""0.096""]","[1,1,1,0]",0,36,36,36,1,0,1,,,1,FALSE,,,,,,,,,,,,,,,,,,,,,,,,,,,,,,,
,61634ea5478b2d1e072e8353,627c6fdcd1967c145333bea7,2022-05-11_21h40.40.588,classification_task,2021.2.3,Win32,59.52380952,627c6715c52fd12f31907bcf,,,,,,,,,,,,,,,,,,,,,,,l,1,1.6578,"[""0.130"",""0.302"",""0.450"",""0.093""]","[1,1,1,0]",0,37,37,37,1,1,1,,,1,FALSE,,,,,,,,,,,,,,,,,,,,,,,,,,,,,,,
,61634ea5478b2d1e072e8353,627c6fdcd1967c145333bea7,2022-05-11_21h40.40.588,classification_task,2021.2.3,Win32,59.52380952,627c6715c52fd12f31907bcf,,,,,,,,,,,,,,,,,,,,,,,l,1,3.9296,"[""0.731"",""0.384"",""0.525"",""0.843""]","[0,1,1,1]",0,38,38,38,1,1,0,,,1,FALSE,,,,,,,,,,,,,,,,,,,,,,,,,,,,,,,
,61634ea5478b2d1e072e8353,627c6fdcd1967c145333bea7,2022-05-11_21h40.40.588,classification_task,2021.2.3,Win32,59.52380952,627c6715c52fd12f31907bcf,,,,,,,,,,,,,,,,,,,,,,,l,1,3.6736,"[""0.130"",""0.302"",""0.621"",""0.769""]","[1,1,0,1]",0,39,39,39,1,1,1,,,1,FALSE,,,,,,,,,,,,,,,,,,,,,,,,,,,,,,,
,61634ea5478b2d1e072e8353,627c6fdcd1967c145333bea7,2022-05-11_21h40.40.588,classification_task,2021.2.3,Win32,59.52380952,627c6715c52fd12f31907bcf,,,,,,,,,,,,,,,,,,,,,,,a,0,1.8238,"[""0.037"",""0.384"",""0.525"",""0.084""]","[1,1,1,0]",0,40,40,40,1,1,0,,,1,FALSE,,,,,,,,,,,,,,,,,,,,,,,,,,,,,,,
,61634ea5478b2d1e072e8353,627c6fdcd1967c145333bea7,2022-05-11_21h40.40.588,classification_task,2021.2.3,Win32,59.52380952,627c6715c52fd12f31907bcf,,,,,,,,,,,,,,,,,,,,,,,l,1,2.7996,"[""0.037"",""0.213"",""0.525"",""0.843""]","[1,0,1,1]",0,41,41,41,1,1,0,,,1,FALSE,,,,,,,,,,,,,,,,,,,,,,,,,,,,,,,
,61634ea5478b2d1e072e8353,627c6fdcd1967c145333bea7,2022-05-11_21h40.40.588,classification_task,2021.2.3,Win32,59.52380952,627c6715c52fd12f31907bcf,,,,,,,,,,,,,,,,,,,,,,,l,0,3.4932,"[""0.708"",""0.564"",""0.662"",""0.876""]","[0,1,1,1]",0,42,42,42,1,0,1,,,1,FALSE,,,,,,,,,,,,,,,,,,,,,,,,,,,,,,,
,61634ea5478b2d1e072e8353,627c6fdcd1967c145333bea7,2022-05-11_21h40.40.588,classification_task,2021.2.3,Win32,59.52380952,627c6715c52fd12f31907bcf,,,,,,,,,,,,,,,,,,,,,,,a,1,4.7114,"[""0.262"",""0.485"",""0.912"",""0.698""]","[1,1,1,0]",0,43,43,43,1,0,0,,,1,FALSE,,,,,,,,,,,,,,,,,,,,,,,,,,,,,,,
,61634ea5478b2d1e072e8353,627c6fdcd1967c145333bea7,2022-05-11_21h40.40.588,classification_task,2021.2.3,Win32,59.52380952,627c6715c52fd12f31907bcf,,,,,,,,,,,,,,,,,,,,,,,l,1,3.1409,"[""0.727"",""0.302"",""0.450"",""0.769""]","[0,1,1,1]",0,44,44,44,1,1,1,,,1,FALSE,,,,,,,,,,,,,,,,,,,,,,,,,,,,,,,
,61634ea5478b2d1e072e8353,627c6fdcd1967c145333bea7,2022-05-11_21h40.40.588,classification_task,2021.2.3,Win32,59.52380952,627c6715c52fd12f31907bcf,,,,,,,,,,,,,,,,,,,,,,,a,1,4.681,"[""0.172"",""0.564"",""0.349"",""0.876""]","[1,1,0,1]",0,45,45,45,1,0,1,,,1,FALSE,,,,,,,,,,,,,,,,,,,,,,,,,,,,,,,
,61634ea5478b2d1e072e8353,627c6fdcd1967c145333bea7,2022-05-11_21h40.40.588,classification_task,2021.2.3,Win32,59.52380952,627c6715c52fd12f31907bcf,,,,,,,,,,,,,,,,,,,,,,,l,0,4.3531,"[""0.172"",""0.621"",""0.662"",""0.876""]","[1,0,1,1]",0,46,46,46,1,0,1,,,1,FALSE,,,,,,,,,,,,,,,,,,,,,,,,,,,,,,,
,61634ea5478b2d1e072e8353,627c6fdcd1967c145333bea7,2022-05-11_21h40.40.588,classification_task,2021.2.3,Win32,59.52380952,627c6715c52fd12f31907bcf,,,,,,,,,,,,,,,,,,,,,,,l,0,2.6583,"[""0.730"",""0.485"",""0.912"",""0.945""]","[0,1,1,1]",0,47,47,47,1,0,0,,,1,FALSE,,,,,,,,,,,,,,,,,,,,,,,,,,,,,,,
,61634ea5478b2d1e072e8353,627c6fdcd1967c145333bea7,2022-05-11_21h40.40.588,classification_task,2021.2.3,Win32,59.52380952,627c6715c52fd12f31907bcf,,,,,,,,,,,,,,,,,,,,,,,l,0,1.7749,"[""0.172"",""0.564"",""0.349"",""0.876""]","[1,1,0,1]",0,48,48,48,1,0,1,,,1,FALSE,,,,,,,,,,,,,,,,,,,,,,,,,,,,,,,
,61634ea5478b2d1e072e8353,627c6fdcd1967c145333bea7,2022-05-11_21h40.40.588,classification_task,2021.2.3,Win32,59.52380952,627c6715c52fd12f31907bcf,,,,,,,,,,,,,,,,,,,,,,,a,0,0.2091,"[""0.037"",""0.384"",""0.525"",""0.716""]","[1,1,1,0]",0,49,49,49,1,1,0,,,1,FALSE,,,,,,,,,,,,,,,,,,,,,,,,,,,,,,,
,61634ea5478b2d1e072e8353,627c6fdcd1967c145333bea7,2022-05-11_21h40.40.588,classification_task,2021.2.3,Win32,59.52380952,627c6715c52fd12f31907bcf,,,,,,,,,,,,,,,,,,,,,,,l,0,3.7307,"[""0.262"",""0.485"",""0.734"",""0.945""]","[1,1,0,1]",0,50,50,50,1,0,0,,,1,FALSE,,,,,,,,,,,,,,,,,,,,,,,,,,,,,,,
,61634ea5478b2d1e072e8353,627c6fdcd1967c145333bea7,2022-05-11_21h40.40.588,classification_task,2021.2.3,Win32,59.52380952,627c6715c52fd12f31907bcf,,,,,,,,,,,,,,,,,,,,,,,l,1,2.012,"[""0.130"",""0.093"",""0.450"",""0.769""]","[1,0,1,1]",0,51,51,51,1,1,1,,,1,FALSE,,,,,,,,,,,,,,,,,,,,,,,,,,,,,,,
,61634ea5478b2d1e072e8353,627c6fdcd1967c145333bea7,2022-05-11_21h40.40.588,classification_task,2021.2.3,Win32,59.52380952,627c6715c52fd12f31907bcf,,,,,,,,,,,,,,,,,,,,,,,l,1,1.2677,"[""0.130"",""0.302"",""0.731"",""0.769""]","[1,1,0,1]",0,52,52,52,1,1,1,,,1,FALSE,,,,,,,,,,,,,,,,,,,,,,,,,,,,,,,
,61634ea5478b2d1e072e8353,627c6fdcd1967c145333bea7,2022-05-11_21h40.40.588,classification_task,2021.2.3,Win32,59.52380952,627c6715c52fd12f31907bcf,,,,,,,,,,,,,,,,,,,,,,,a,1,2.7463,"[""0.172"",""0.093"",""0.662"",""0.876""]","[1,0,1,1]",0,53,53,53,1,0,1,,,1,FALSE,,,,,,,,,,,,,,,,,,,,,,,,,,,,,,,
,61634ea5478b2d1e072e8353,627c6fdcd1967c145333bea7,2022-05-11_21h40.40.588,classification_task,2021.2.3,Win32,59.52380952,627c6715c52fd12f31907bcf,,,,,,,,,,,,,,,,,,,,,,,a,1,3.7899,"[""0.172"",""0.564"",""0.662"",""0.096""]","[1,1,1,0]",0,54,54,54,1,0,1,,,1,FALSE,,,,,,,,,,,,,,,,,,,,,,,,,,,,,,,
,61634ea5478b2d1e072e8353,627c6fdcd1967c145333bea7,2022-05-11_21h40.40.588,classification_task,2021.2.3,Win32,59.52380952,627c6715c52fd12f31907bcf,,,,,,,,,,,,,,,,,,,,,,,l,0,3.1631,"[""0.734"",""0.485"",""0.912"",""0.945""]","[0,1,1,1]",0,55,55,55,1,0,0,,,1,FALSE,,,,,,,,,,,,,,,,,,,,,,,,,,,,,,,
,61634ea5478b2d1e072e8353,627c6fdcd1967c145333bea7,2022-05-11_21h40.40.588,classification_task,2021.2.3,Win32,59.52380952,627c6715c52fd12f31907bcf,,,,,,,,,,,,,,,,,,,,,,,,0,,"[""0.130"",""0.302"",""0.450"",""0.708""]","[1,1,1,0]",0,56,56,56,1,1,1,,,1,FALSE,,,,,,,,,,,,,,,,,,,,,,,,,,,,,,,
,61634ea5478b2d1e072e8353,627c6fdcd1967c145333bea7,2022-05-11_21h40.40.588,classification_task,2021.2.3,Win32,59.52380952,627c6715c52fd12f31907bcf,,,,,,,,,,,,,,,,,,,,,,,l,0,2.4462,"[""0.730"",""0.564"",""0.662"",""0.876""]","[0,1,1,1]",0,57,57,57,1,0,1,,,1,FALSE,,,,,,,,,,,,,,,,,,,,,,,,,,,,,,,
,61634ea5478b2d1e072e8353,627c6fdcd1967c145333bea7,2022-05-11_21h40.40.588,classification_task,2021.2.3,Win32,59.52380952,627c6715c52fd12f31907bcf,,,,,,,,,,,,,,,,,,,,,,,l,0,1.7495,"[""0.262"",""0.485"",""0.912"",""0.223""]","[1,1,1,0]",0,58,58,58,1,0,0,,,1,FALSE,,,,,,,,,,,,,,,,,,,,,,,,,,,,,,,
,61634ea5478b2d1e072e8353,627c6fdcd1967c145333bea7,2022-05-11_21h40.40.588,classification_task,2021.2.3,Win32,59.52380952,627c6715c52fd12f31907bcf,,,,,,,,,,,,,,,,,,,,,,,l,1,2.4251,"[""0.734"",""0.384"",""0.525"",""0.843""]","[0,1,1,1]",0,59,59,59,1,1,0,,,1,FALSE,,,,,,,,,,,,,,,,,,,,,,,,,,,,,,,
,61634ea5478b2d1e072e8353,627c6fdcd1967c145333bea7,2022-05-11_21h40.40.588,classification_task,2021.2.3,Win32,59.52380952,627c6715c52fd12f31907bcf,,,,,,,,,,,,,,,,,,,,,,,a,1,1.6476,"[""0.262"",""0.349"",""0.912"",""0.945""]","[1,0,1,1]",0,60,60,60,1,0,0,,,1,FALSE,,,,,,,,,,,,,,,,,,,,,,,,,,,,,,,
,61634ea5478b2d1e072e8353,627c6fdcd1967c145333bea7,2022-05-11_21h40.40.588,classification_task,2021.2.3,Win32,59.52380952,627c6715c52fd12f31907bcf,,,,,,,,,,,,,,,,,,,,,,,a,0,0.8288,"[""0.037"",""0.384"",""0.349"",""0.843""]","[1,1,0,1]",0,61,61,61,1,1,0,,,1,FALSE,,,,,,,,,,,,,,,,,,,,,,,,,,,,,,,
,61634ea5478b2d1e072e8353,627c6fdcd1967c145333bea7,2022-05-11_21h40.40.588,classification_task,2021.2.3,Win32,59.52380952,627c6715c52fd12f31907bcf,,,,,,,,,,,,,,,,,,,,,,,l,1,4.7478,"[""0.037"",""0.730"",""0.525"",""0.843""]","[1,0,1,1]",0,62,62,62,1,1,0,,,1,FALSE,,,,,,,,,,,,,,,,,,,,,,,,,,,,,,,
,61634ea5478b2d1e072e8353,627c6fdcd1967c145333bea7,2022-05-11_21h40.40.588,classification_task,2021.2.3,Win32,59.52380952,627c6715c52fd12f31907bcf,,,,,,,,,,,,,,,,,,,,,,,l,1,5.6388,"[""0.206"",""0.302"",""0.450"",""0.769""]","[0,1,1,1]",0,63,63,63,1,1,1,,,1,FALSE,,,,,,,,,,,,,,,,,,,,,,,,,,,,,,,
,61634ea5478b2d1e072e8353,627c6fdcd1967c145333bea7,2022-05-11_21h40.40.588,classification_task,2021.2.3,Win32,59.52380952,627c6715c52fd12f31907bcf,,,,,,,,,,,,,,,,,,,,,,,,,,,,,,,,,,,,,,,0, ,,0,6.251560803,1004.7993,0,0,0,0,1,2,1,,,,,,,,,,,,,,,,,,
,61634ea5478b2d1e072e8353,627c6fdcd1967c145333bea7,2022-05-11_21h40.40.588,classification_task,2021.2.3,Win32,59.52380952,627c6715c52fd12f31907bcf,,,,,,,,,,,,,,,,,,,,,,,,,,,,,,,,,,,,,,,1,  ,,0,6.113774211,1021.4962,0,0,0,0,1,2,1,,,,,,,,,,,,,,,,,,
,61634ea5478b2d1e072e8353,627c6fdcd1967c145333bea7,2022-05-11_21h40.40.588,classification_task,2021.2.3,Win32,59.52380952,627c6715c52fd12f31907bcf,,,,,,,,,,,,,,,,,,,,,,,,,,,,,,,,,,,,,,,2,  ,,0,2.083516395,1029.5101,0,0,0,0,1,2,1,,,,,,,,,,,,,,,,,,
,61634ea5478b2d1e072e8353,627c6fdcd1967c145333bea7,2022-05-11_21h40.40.588,classification_task,2021.2.3,Win32,59.52380952,627c6715c52fd12f31907bcf,,,,,,,,,,,,,,,,,,,,,,,,,,,,,,,,,,,,,,,,,,,,,0,0,0,0,1,,1,,,,,,,,,,,,,,,,,,
,61634ea5478b2d1e072e8353,627c6fdcd1967c145333bea7,2022-05-11_21h40.40.588,classification_task,2021.2.3,Win32,59.52380952,627c6715c52fd12f31907bcf,,,,,,,,,,,,,,,,,,,,,space,20.5863,l,0,5.4913,"[""0.262"",""0.485"",""0.734"",""0.945""]","[1,1,0,1]",0,0,0,0,1,0,0,,,1,FALSE,,,,,,,,,,,,,,,,,,,,,,,,,,,,,,,
,61634ea5478b2d1e072e8353,627c6fdcd1967c145333bea7,2022-05-11_21h40.40.588,classification_task,2021.2.3,Win32,59.52380952,627c6715c52fd12f31907bcf,,,,,,,,,,,,,,,,,,,,,,,l,1,7.4089,"[""0.734"",""0.302"",""0.450"",""0.769""]","[0,1,1,1]",0,1,1,1,1,1,1,,,1,FALSE,,,,,,,,,,,,,,,,,,,,,,,,,,,,,,,
,61634ea5478b2d1e072e8353,627c6fdcd1967c145333bea7,2022-05-11_21h40.40.588,classification_task,2021.2.3,Win32,59.52380952,627c6715c52fd12f31907bcf,,,,,,,,,,,,,,,,,,,,,,,,0,,"[""0.037"",""0.384"",""0.525"",""0.206""]","[1,1,1,0]",0,2,2,2,1,1,0,,,1,FALSE,,,,,,,,,,,,,,,,,,,,,,,,,,,,,,,
,61634ea5478b2d1e072e8353,627c6fdcd1967c145333bea7,2022-05-11_21h40.40.588,classification_task,2021.2.3,Win32,59.52380952,627c6715c52fd12f31907bcf,,,,,,,,,,,,,,,,,,,,,,,l,1,2.5639,"[""0.130"",""0.302"",""0.734"",""0.769""]","[1,1,0,1]",0,3,3,3,1,1,1,,,1,FALSE,,,,,,,,,,,,,,,,,,,,,,,,,,,,,,,
,61634ea5478b2d1e072e8353,627c6fdcd1967c145333bea7,2022-05-11_21h40.40.588,classification_task,2021.2.3,Win32,59.52380952,627c6715c52fd12f31907bcf,,,,,,,,,,,,,,,,,,,,,,,l,0,2.8814,"[""0.708"",""0.485"",""0.912"",""0.945""]","[0,1,1,1]",0,4,4,4,1,0,0,,,1,FALSE,,,,,,,,,,,,,,,,,,,,,,,,,,,,,,,
,61634ea5478b2d1e072e8353,627c6fdcd1967c145333bea7,2022-05-11_21h40.40.588,classification_task,2021.2.3,Win32,59.52380952,627c6715c52fd12f31907bcf,,,,,,,,,,,,,,,,,,,,,,,l,0,3.4407,"[""0.172"",""0.564"",""0.662"",""0.731""]","[1,1,1,0]",0,5,5,5,1,0,1,,,1,FALSE,,,,,,,,,,,,,,,,,,,,,,,,,,,,,,,
,61634ea5478b2d1e072e8353,627c6fdcd1967c145333bea7,2022-05-11_21h40.40.588,classification_task,2021.2.3,Win32,59.52380952,627c6715c52fd12f31907bcf,,,,,,,,,,,,,,,,,,,,,,,l,0,2.6118,"[""0.084"",""0.564"",""0.662"",""0.876""]","[0,1,1,1]",0,6,6,6,1,0,1,,,1,FALSE,,,,,,,,,,,,,,,,,,,,,,,,,,,,,,,
,61634ea5478b2d1e072e8353,627c6fdcd1967c145333bea7,2022-05-11_21h40.40.588,classification_task,2021.2.3,Win32,59.52380952,627c6715c52fd12f31907bcf,,,,,,,,,,,,,,,,,,,,,,,a,1,1.1672,"[""0.172"",""0.564"",""0.698"",""0.876""]","[1,1,0,1]",0,7,7,7,1,0,1,,,1,FALSE,,,,,,,,,,,,,,,,,,,,,,,,,,,,,,,
,61634ea5478b2d1e072e8353,627c6fdcd1967c145333bea7,2022-05-11_21h40.40.588,classification_task,2021.2.3,Win32,59.52380952,627c6715c52fd12f31907bcf,,,,,,,,,,,,,,,,,,,,,,,l,0,8.8045,"[""0.262"",""0.485"",""0.912"",""0.084""]","[1,1,1,0]",0,8,8,8,1,0,0,,,1,FALSE,,,,,,,,,,,,,,,,,,,,,,,,,,,,,,,
,61634ea5478b2d1e072e8353,627c6fdcd1967c145333bea7,2022-05-11_21h40.40.588,classification_task,2021.2.3,Win32,59.52380952,627c6715c52fd12f31907bcf,,,,,,,,,,,,,,,,,,,,,,,l,1,1.0594,"[""0.621"",""0.384"",""0.525"",""0.843""]","[0,1,1,1]",0,9,9,9,1,1,0,,,1,FALSE,,,,,,,,,,,,,,,,,,,,,,,,,,,,,,,
,61634ea5478b2d1e072e8353,627c6fdcd1967c145333bea7,2022-05-11_21h40.40.588,classification_task,2021.2.3,Win32,59.52380952,627c6715c52fd12f31907bcf,,,,,,,,,,,,,,,,,,,,,,,a,1,2.6007,"[""0.262"",""0.223"",""0.912"",""0.945""]","[1,0,1,1]",0,10,10,10,1,0,0,,,1,FALSE,,,,,,,,,,,,,,,,,,,,,,,,,,,,,,,
,61634ea5478b2d1e072e8353,627c6fdcd1967c145333bea7,2022-05-11_21h40.40.588,classification_task,2021.2.3,Win32,59.52380952,627c6715c52fd12f31907bcf,,,,,,,,,,,,,,,,,,,,,,,a,0,5.6095,"[""0.037"",""0.384"",""0.349"",""0.843""]","[1,1,0,1]",0,11,11,11,1,1,0,,,1,FALSE,,,,,,,,,,,,,,,,,,,,,,,,,,,,,,,
,61634ea5478b2d1e072e8353,627c6fdcd1967c145333bea7,2022-05-11_21h40.40.588,classification_task,2021.2.3,Win32,59.52380952,627c6715c52fd12f31907bcf,,,,,,,,,,,,,,,,,,,,,,,l,1,8.0093,"[""0.037"",""0.734"",""0.525"",""0.843""]","[1,0,1,1]",0,12,12,12,1,1,0,,,1,FALSE,,,,,,,,,,,,,,,,,,,,,,,,,,,,,,,
,61634ea5478b2d1e072e8353,627c6fdcd1967c145333bea7,2022-05-11_21h40.40.588,classification_task,2021.2.3,Win32,59.52380952,627c6715c52fd12f31907bcf,,,,,,,,,,,,,,,,,,,,,,,a,1,1.7404,"[""0.172"",""0.708"",""0.662"",""0.876""]","[1,0,1,1]",0,13,13,13,1,0,1,,,1,FALSE,,,,,,,,,,,,,,,,,,,,,,,,,,,,,,,
,61634ea5478b2d1e072e8353,627c6fdcd1967c145333bea7,2022-05-11_21h40.40.588,classification_task,2021.2.3,Win32,59.52380952,627c6715c52fd12f31907bcf,,,,,,,,,,,,,,,,,,,,,,,l,1,2.9584,"[""0.130"",""0.349"",""0.450"",""0.769""]","[1,0,1,1]",0,14,14,14,1,1,1,,,1,FALSE,,,,,,,,,,,,,,,,,,,,,,,,,,,,,,,
,61634ea5478b2d1e072e8353,627c6fdcd1967c145333bea7,2022-05-11_21h40.40.588,classification_task,2021.2.3,Win32,59.52380952,627c6715c52fd12f31907bcf,,,,,,,,,,,,,,,,,,,,,,,l,1,3.7229,"[""0.130"",""0.302"",""0.450"",""0.727""]","[1,1,1,0]",0,15,15,15,1,1,1,,,1,FALSE,,,,,,,,,,,,,,,,,,,,,,,,,,,,,,,
,61634ea5478b2d1e072e8353,627c6fdcd1967c145333bea7,2022-05-11_21h40.40.588,classification_task,2021.2.3,Win32,59.52380952,627c6715c52fd12f31907bcf,,,,,,,,,,,,,,,,,,,,,,,a,1,2.1989,"[""0.172"",""0.564"",""0.662"",""0.716""]","[1,1,1,0]",0,16,16,16,1,0,1,,,1,FALSE,,,,,,,,,,,,,,,,,,,,,,,,,,,,,,,
,61634ea5478b2d1e072e8353,627c6fdcd1967c145333bea7,2022-05-11_21h40.40.588,classification_task,2021.2.3,Win32,59.52380952,627c6715c52fd12f31907bcf,,,,,,,,,,,,,,,,,,,,,,,l,1,3.2537,"[""0.037"",""0.716"",""0.525"",""0.843""]","[1,0,1,1]",0,17,17,17,1,1,0,,,1,FALSE,,,,,,,,,,,,,,,,,,,,,,,,,,,,,,,
,61634ea5478b2d1e072e8353,627c6fdcd1967c145333bea7,2022-05-11_21h40.40.588,classification_task,2021.2.3,Win32,59.52380952,627c6715c52fd12f31907bcf,,,,,,,,,,,,,,,,,,,,,,,a,1,6.5568,"[""0.262"",""0.485"",""0.912"",""0.716""]","[1,1,1,0]",0,18,18,18,1,0,0,,,1,FALSE,,,,,,,,,,,,,,,,,,,,,,,,,,,,,,,
,61634ea5478b2d1e072e8353,627c6fdcd1967c145333bea7,2022-05-11_21h40.40.588,classification_task,2021.2.3,Win32,59.52380952,627c6715c52fd12f31907bcf,,,,,,,,,,,,,,,,,,,,,,,l,1,3.9231,"[""0.037"",""0.384"",""0.525"",""0.734""]","[1,1,1,0]",0,19,19,19,1,1,0,,,1,FALSE,,,,,,,,,,,,,,,,,,,,,,,,,,,,,,,
,61634ea5478b2d1e072e8353,627c6fdcd1967c145333bea7,2022-05-11_21h40.40.588,classification_task,2021.2.3,Win32,59.52380952,627c6715c52fd12f31907bcf,,,,,,,,,,,,,,,,,,,,,,,l,1,5.057,"[""0.130"",""0.302"",""0.716"",""0.769""]","[1,1,0,1]",0,20,20,20,1,1,1,,,1,FALSE,,,,,,,,,,,,,,,,,,,,,,,,,,,,,,,
,61634ea5478b2d1e072e8353,627c6fdcd1967c145333bea7,2022-05-11_21h40.40.588,classification_task,2021.2.3,Win32,59.52380952,627c6715c52fd12f31907bcf,,,,,,,,,,,,,,,,,,,,,,,l,1,5.5392,"[""0.130"",""0.302"",""0.450"",""0.716""]","[1,1,1,0]",0,21,21,21,1,1,1,,,1,FALSE,,,,,,,,,,,,,,,,,,,,,,,,,,,,,,,
,61634ea5478b2d1e072e8353,627c6fdcd1967c145333bea7,2022-05-11_21h40.40.588,classification_task,2021.2.3,Win32,59.52380952,627c6715c52fd12f31907bcf,,,,,,,,,,,,,,,,,,,,,,,l,1,3.1783,"[""0.084"",""0.384"",""0.525"",""0.843""]","[0,1,1,1]",0,22,22,22,1,1,0,,,1,FALSE,,,,,,,,,,,,,,,,,,,,,,,,,,,,,,,
,61634ea5478b2d1e072e8353,627c6fdcd1967c145333bea7,2022-05-11_21h40.40.588,classification_task,2021.2.3,Win32,59.52380952,627c6715c52fd12f31907bcf,,,,,,,,,,,,,,,,,,,,,,,a,1,2.9378,"[""0.172"",""0.564"",""0.093"",""0.876""]","[1,1,0,1]",0,23,23,23,1,0,1,,,1,FALSE,,,,,,,,,,,,,,,,,,,,,,,,,,,,,,,
,61634ea5478b2d1e072e8353,627c6fdcd1967c145333bea7,2022-05-11_21h40.40.588,classification_task,2021.2.3,Win32,59.52380952,627c6715c52fd12f31907bcf,,,,,,,,,,,,,,,,,,,,,,,a,1,2.0582,"[""0.731"",""0.564"",""0.662"",""0.876""]","[0,1,1,1]",0,24,24,24,1,0,1,,,1,FALSE,,,,,,,,,,,,,,,,,,,,,,,,,,,,,,,
,61634ea5478b2d1e072e8353,627c6fdcd1967c145333bea7,2022-05-11_21h40.40.588,classification_task,2021.2.3,Win32,59.52380952,627c6715c52fd12f31907bcf,,,,,,,,,,,,,,,,,,,,,,,l,1,1.9129,"[""0.130"",""0.213"",""0.450"",""0.769""]","[1,0,1,1]",0,25,25,25,1,1,1,,,1,FALSE,,,,,,,,,,,,,,,,,,,,,,,,,,,,,,,
,61634ea5478b2d1e072e8353,627c6fdcd1967c145333bea7,2022-05-11_21h40.40.588,classification_task,2021.2.3,Win32,59.52380952,627c6715c52fd12f31907bcf,,,,,,,,,,,,,,,,,,,,,,,a,1,6.3328,"[""0.172"",""0.349"",""0.662"",""0.876""]","[1,0,1,1]",0,26,26,26,1,0,1,,,1,FALSE,,,,,,,,,,,,,,,,,,,,,,,,,,,,,,,
,61634ea5478b2d1e072e8353,627c6fdcd1967c145333bea7,2022-05-11_21h40.40.588,classification_task,2021.2.3,Win32,59.52380952,627c6715c52fd12f31907bcf,,,,,,,,,,,,,,,,,,,,,,,a,1,5.0013,"[""0.262"",""0.213"",""0.912"",""0.945""]","[1,0,1,1]",0,27,27,27,1,0,0,,,1,FALSE,,,,,,,,,,,,,,,,,,,,,,,,,,,,,,,
,61634ea5478b2d1e072e8353,627c6fdcd1967c145333bea7,2022-05-11_21h40.40.588,classification_task,2021.2.3,Win32,59.52380952,627c6715c52fd12f31907bcf,,,,,,,,,,,,,,,,,,,,,,,l,0,3.0084,"[""0.262"",""0.485"",""0.093"",""0.945""]","[1,1,0,1]",0,28,28,28,1,0,0,,,1,FALSE,,,,,,,,,,,,,,,,,,,,,,,,,,,,,,,
,61634ea5478b2d1e072e8353,627c6fdcd1967c145333bea7,2022-05-11_21h40.40.588,classification_task,2021.2.3,Win32,59.52380952,627c6715c52fd12f31907bcf,,,,,,,,,,,,,,,,,,,,,,,l,1,1.8773,"[""0.037"",""0.384"",""0.096"",""0.843""]","[1,1,0,1]",0,29,29,29,1,1,0,,,1,FALSE,,,,,,,,,,,,,,,,,,,,,,,,,,,,,,,
,61634ea5478b2d1e072e8353,627c6fdcd1967c145333bea7,2022-05-11_21h40.40.588,classification_task,2021.2.3,Win32,59.52380952,627c6715c52fd12f31907bcf,,,,,,,,,,,,,,,,,,,,,,,l,1,4.9579,"[""0.621"",""0.302"",""0.450"",""0.769""]","[0,1,1,1]",0,30,30,30,1,1,1,,,1,FALSE,,,,,,,,,,,,,,,,,,,,,,,,,,,,,,,
,61634ea5478b2d1e072e8353,627c6fdcd1967c145333bea7,2022-05-11_21h40.40.588,classification_task,2021.2.3,Win32,59.52380952,627c6715c52fd12f31907bcf,,,,,,,,,,,,,,,,,,,,,,,a,1,4.9437,"[""0.223"",""0.485"",""0.912"",""0.945""]","[0,1,1,1]",0,31,31,31,1,0,0,,,1,FALSE,,,,,,,,,,,,,,,,,,,,,,,,,,,,,,,
,61634ea5478b2d1e072e8353,627c6fdcd1967c145333bea7,2022-05-11_21h40.40.588,classification_task,2021.2.3,Win32,59.52380952,627c6715c52fd12f31907bcf,,,,,,,,,,,,,,,,,,,,,,,a,1,4.4397,"[""0.262"",""0.485"",""0.912"",""0.731""]","[1,1,1,0]",0,32,32,32,1,0,0,,,1,FALSE,,,,,,,,,,,,,,,,,,,,,,,,,,,,,,,
,61634ea5478b2d1e072e8353,627c6fdcd1967c145333bea7,2022-05-11_21h40.40.588,classification_task,2021.2.3,Win32,59.52380952,627c6715c52fd12f31907bcf,,,,,,,,,,,,,,,,,,,,,,,l,1,6.9545,"[""0.037"",""0.384"",""0.716"",""0.843""]","[1,1,0,1]",0,33,33,33,1,1,0,,,1,FALSE,,,,,,,,,,,,,,,,,,,,,,,,,,,,,,,
,61634ea5478b2d1e072e8353,627c6fdcd1967c145333bea7,2022-05-11_21h40.40.588,classification_task,2021.2.3,Win32,59.52380952,627c6715c52fd12f31907bcf,,,,,,,,,,,,,,,,,,,,,,,l,1,4.0059,"[""0.037"",""0.096"",""0.525"",""0.843""]","[1,0,1,1]",0,34,34,34,1,1,0,,,1,FALSE,,,,,,,,,,,,,,,,,,,,,,,,,,,,,,,
,61634ea5478b2d1e072e8353,627c6fdcd1967c145333bea7,2022-05-11_21h40.40.588,classification_task,2021.2.3,Win32,59.52380952,627c6715c52fd12f31907bcf,,,,,,,,,,,,,,,,,,,,,,,l,1,8.5523,"[""0.093"",""0.384"",""0.525"",""0.843""]","[0,1,1,1]",0,35,35,35,1,1,0,,,1,FALSE,,,,,,,,,,,,,,,,,,,,,,,,,,,,,,,
,61634ea5478b2d1e072e8353,627c6fdcd1967c145333bea7,2022-05-11_21h40.40.588,classification_task,2021.2.3,Win32,59.52380952,627c6715c52fd12f31907bcf,,,,,,,,,,,,,,,,,,,,,,,l,1,5.2566,"[""0.130"",""0.302"",""0.450"",""0.698""]","[1,1,1,0]",0,36,36,36,1,1,1,,,1,FALSE,,,,,,,,,,,,,,,,,,,,,,,,,,,,,,,
,61634ea5478b2d1e072e8353,627c6fdcd1967c145333bea7,2022-05-11_21h40.40.588,classification_task,2021.2.3,Win32,59.52380952,627c6715c52fd12f31907bcf,,,,,,,,,,,,,,,,,,,,,,,l,1,2.5106,"[""0.037"",""0.384"",""0.525"",""0.708""]","[1,1,1,0]",0,37,37,37,1,1,0,,,1,FALSE,,,,,,,,,,,,,,,,,,,,,,,,,,,,,,,
,61634ea5478b2d1e072e8353,627c6fdcd1967c145333bea7,2022-05-11_21h40.40.588,classification_task,2021.2.3,Win32,59.52380952,627c6715c52fd12f31907bcf,,,,,,,,,,,,,,,,,,,,,,,a,1,1.3614,"[""0.172"",""0.564"",""0.662"",""0.621""]","[1,1,1,0]",0,38,38,38,1,0,1,,,1,FALSE,,,,,,,,,,,,,,,,,,,,,,,,,,,,,,,
,61634ea5478b2d1e072e8353,627c6fdcd1967c145333bea7,2022-05-11_21h40.40.588,classification_task,2021.2.3,Win32,59.52380952,627c6715c52fd12f31907bcf,,,,,,,,,,,,,,,,,,,,,,,a,1,6.5576,"[""0.262"",""0.093"",""0.912"",""0.945""]","[1,0,1,1]",0,39,39,39,1,0,0,,,1,FALSE,,,,,,,,,,,,,,,,,,,,,,,,,,,,,,,
,61634ea5478b2d1e072e8353,627c6fdcd1967c145333bea7,2022-05-11_21h40.40.588,classification_task,2021.2.3,Win32,59.52380952,627c6715c52fd12f31907bcf,,,,,,,,,,,,,,,,,,,,,,,l,1,5.5183,"[""0.130"",""0.302"",""0.708"",""0.769""]","[1,1,0,1]",0,40,40,40,1,1,1,,,1,FALSE,,,,,,,,,,,,,,,,,,,,,,,,,,,,,,,
,61634ea5478b2d1e072e8353,627c6fdcd1967c145333bea7,2022-05-11_21h40.40.588,classification_task,2021.2.3,Win32,59.52380952,627c6715c52fd12f31907bcf,,,,,,,,,,,,,,,,,,,,,,,a,1,1.6664,"[""0.172"",""0.349"",""0.662"",""0.876""]","[1,0,1,1]",0,41,41,41,1,0,1,,,1,FALSE,,,,,,,,,,,,,,,,,,,,,,,,,,,,,,,
,61634ea5478b2d1e072e8353,627c6fdcd1967c145333bea7,2022-05-11_21h40.40.588,classification_task,2021.2.3,Win32,59.52380952,627c6715c52fd12f31907bcf,,,,,,,,,,,,,,,,,,,,,,,l,1,3.3632,"[""0.621"",""0.302"",""0.450"",""0.769""]","[0,1,1,1]",0,42,42,42,1,1,1,,,1,FALSE,,,,,,,,,,,,,,,,,,,,,,,,,,,,,,,
,61634ea5478b2d1e072e8353,627c6fdcd1967c145333bea7,2022-05-11_21h40.40.588,classification_task,2021.2.3,Win32,59.52380952,627c6715c52fd12f31907bcf,,,,,,,,,,,,,,,,,,,,,,,a,1,2.799,"[""0.096"",""0.564"",""0.662"",""0.876""]","[0,1,1,1]",0,43,43,43,1,0,1,,,1,FALSE,,,,,,,,,,,,,,,,,,,,,,,,,,,,,,,
,61634ea5478b2d1e072e8353,627c6fdcd1967c145333bea7,2022-05-11_21h40.40.588,classification_task,2021.2.3,Win32,59.52380952,627c6715c52fd12f31907bcf,,,,,,,,,,,,,,,,,,,,,,,a,1,2.9569,"[""0.262"",""0.485"",""0.698"",""0.945""]","[1,1,0,1]",0,44,44,44,1,0,0,,,1,FALSE,,,,,,,,,,,,,,,,,,,,,,,,,,,,,,,
,61634ea5478b2d1e072e8353,627c6fdcd1967c145333bea7,2022-05-11_21h40.40.588,classification_task,2021.2.3,Win32,59.52380952,627c6715c52fd12f31907bcf,,,,,,,,,,,,,,,,,,,,,,,a,1,2.1428,"[""0.172"",""0.564"",""0.206"",""0.876""]","[1,1,0,1]",0,45,45,45,1,0,1,,,1,FALSE,,,,,,,,,,,,,,,,,,,,,,,,,,,,,,,
,61634ea5478b2d1e072e8353,627c6fdcd1967c145333bea7,2022-05-11_21h40.40.588,classification_task,2021.2.3,Win32,59.52380952,627c6715c52fd12f31907bcf,,,,,,,,,,,,,,,,,,,,,,,l,0,3.2249,"[""0.084"",""0.485"",""0.912"",""0.945""]","[0,1,1,1]",0,46,46,46,1,0,0,,,1,FALSE,,,,,,,,,,,,,,,,,,,,,,,,,,,,,,,
,61634ea5478b2d1e072e8353,627c6fdcd1967c145333bea7,2022-05-11_21h40.40.588,classification_task,2021.2.3,Win32,59.52380952,627c6715c52fd12f31907bcf,,,,,,,,,,,,,,,,,,,,,,,l,1,6.0109,"[""0.130"",""0.734"",""0.450"",""0.769""]","[1,0,1,1]",0,47,47,47,1,1,1,,,1,FALSE,,,,,,,,,,,,,,,,,,,,,,,,,,,,,,,
,61634ea5478b2d1e072e8353,627c6fdcd1967c145333bea7,2022-05-11_21h40.40.588,classification_task,2021.2.3,Win32,59.52380952,627c6715c52fd12f31907bcf,,,,,,,,,,,,,,,,,,,,,,,l,1,5.1359,"[""0.037"",""0.384"",""0.525"",""0.716""]","[1,1,1,0]",0,48,48,48,1,1,0,,,1,FALSE,,,,,,,,,,,,,,,,,,,,,,,,,,,,,,,
,61634ea5478b2d1e072e8353,627c6fdcd1967c145333bea7,2022-05-11_21h40.40.588,classification_task,2021.2.3,Win32,59.52380952,627c6715c52fd12f31907bcf,,,,,,,,,,,,,,,,,,,,,,,a,1,5.9345,"[""0.172"",""0.564"",""0.708"",""0.876""]","[1,1,0,1]",0,49,49,49,1,0,1,,,1,FALSE,,,,,,,,,,,,,,,,,,,,,,,,,,,,,,,
,61634ea5478b2d1e072e8353,627c6fdcd1967c145333bea7,2022-05-11_21h40.40.588,classification_task,2021.2.3,Win32,59.52380952,627c6715c52fd12f31907bcf,,,,,,,,,,,,,,,,,,,,,,,a,1,2.5556,"[""0.262"",""0.485"",""0.206"",""0.945""]","[1,1,0,1]",0,50,50,50,1,0,0,,,1,FALSE,,,,,,,,,,,,,,,,,,,,,,,,,,,,,,,
,61634ea5478b2d1e072e8353,627c6fdcd1967c145333bea7,2022-05-11_21h40.40.588,classification_task,2021.2.3,Win32,59.52380952,627c6715c52fd12f31907bcf,,,,,,,,,,,,,,,,,,,,,,,a,1,5.6377,"[""0.262"",""0.731"",""0.912"",""0.945""]","[1,0,1,1]",0,51,51,51,1,0,0,,,1,FALSE,,,,,,,,,,,,,,,,,,,,,,,,,,,,,,,
,61634ea5478b2d1e072e8353,627c6fdcd1967c145333bea7,2022-05-11_21h40.40.588,classification_task,2021.2.3,Win32,59.52380952,627c6715c52fd12f31907bcf,,,,,,,,,,,,,,,,,,,,,,,l,1,4.7703,"[""0.130"",""0.302"",""0.727"",""0.769""]","[1,1,0,1]",0,52,52,52,1,1,1,,,1,FALSE,,,,,,,,,,,,,,,,,,,,,,,,,,,,,,,
,61634ea5478b2d1e072e8353,627c6fdcd1967c145333bea7,2022-05-11_21h40.40.588,classification_task,2021.2.3,Win32,59.52380952,627c6715c52fd12f31907bcf,,,,,,,,,,,,,,,,,,,,,,,a,1,3.395,"[""0.172"",""0.564"",""0.662"",""0.213""]","[1,1,1,0]",0,53,53,53,1,0,1,,,1,FALSE,,,,,,,,,,,,,,,,,,,,,,,,,,,,,,,
,61634ea5478b2d1e072e8353,627c6fdcd1967c145333bea7,2022-05-11_21h40.40.588,classification_task,2021.2.3,Win32,59.52380952,627c6715c52fd12f31907bcf,,,,,,,,,,,,,,,,,,,,,,,l,1,8.0017,"[""0.037"",""0.708"",""0.525"",""0.843""]","[1,0,1,1]",0,54,54,54,1,1,0,,,1,FALSE,,,,,,,,,,,,,,,,,,,,,,,,,,,,,,,
,61634ea5478b2d1e072e8353,627c6fdcd1967c145333bea7,2022-05-11_21h40.40.588,classification_task,2021.2.3,Win32,59.52380952,627c6715c52fd12f31907bcf,,,,,,,,,,,,,,,,,,,,,,,a,1,3.2564,"[""0.708"",""0.485"",""0.912"",""0.945""]","[0,1,1,1]",0,55,55,55,1,0,0,,,1,FALSE,,,,,,,,,,,,,,,,,,,,,,,,,,,,,,,
,61634ea5478b2d1e072e8353,627c6fdcd1967c145333bea7,2022-05-11_21h40.40.588,classification_task,2021.2.3,Win32,59.52380952,627c6715c52fd12f31907bcf,,,,,,,,,,,,,,,,,,,,,,,l,1,1.7284,"[""0.130"",""0.727"",""0.450"",""0.769""]","[1,0,1,1]",0,56,56,56,1,1,1,,,1,FALSE,,,,,,,,,,,,,,,,,,,,,,,,,,,,,,,
,61634ea5478b2d1e072e8353,627c6fdcd1967c145333bea7,2022-05-11_21h40.40.588,classification_task,2021.2.3,Win32,59.52380952,627c6715c52fd12f31907bcf,,,,,,,,,,,,,,,,,,,,,,,l,1,5.3678,"[""0.223"",""0.302"",""0.450"",""0.769""]","[0,1,1,1]",0,57,57,57,1,1,1,,,1,FALSE,,,,,,,,,,,,,,,,,,,,,,,,,,,,,,,
,61634ea5478b2d1e072e8353,627c6fdcd1967c145333bea7,2022-05-11_21h40.40.588,classification_task,2021.2.3,Win32,59.52380952,627c6715c52fd12f31907bcf,,,,,,,,,,,,,,,,,,,,,,,l,1,2.4057,"[""0.130"",""0.302"",""0.450"",""0.716""]","[1,1,1,0]",0,58,58,58,1,1,1,,,1,FALSE,,,,,,,,,,,,,,,,,,,,,,,,,,,,,,,
,61634ea5478b2d1e072e8353,627c6fdcd1967c145333bea7,2022-05-11_21h40.40.588,classification_task,2021.2.3,Win32,59.52380952,627c6715c52fd12f31907bcf,,,,,,,,,,,,,,,,,,,,,,,a,1,2.4743,"[""0.172"",""0.206"",""0.662"",""0.876""]","[1,0,1,1]",0,59,59,59,1,0,1,,,1,FALSE,,,,,,,,,,,,,,,,,,,,,,,,,,,,,,,
,61634ea5478b2d1e072e8353,627c6fdcd1967c145333bea7,2022-05-11_21h40.40.588,classification_task,2021.2.3,Win32,59.52380952,627c6715c52fd12f31907bcf,,,,,,,,,,,,,,,,,,,,,,,a,1,4.7721,"[""0.223"",""0.564"",""0.662"",""0.876""]","[0,1,1,1]",0,60,60,60,1,0,1,,,1,FALSE,,,,,,,,,,,,,,,,,,,,,,,,,,,,,,,
,61634ea5478b2d1e072e8353,627c6fdcd1967c145333bea7,2022-05-11_21h40.40.588,classification_task,2021.2.3,Win32,59.52380952,627c6715c52fd12f31907bcf,,,,,,,,,,,,,,,,,,,,,,,l,0,4.9898,"[""0.262"",""0.485"",""0.912"",""0.096""]","[1,1,1,0]",0,61,61,61,1,0,0,,,1,FALSE,,,,,,,,,,,,,,,,,,,,,,,,,,,,,,,
,61634ea5478b2d1e072e8353,627c6fdcd1967c145333bea7,2022-05-11_21h40.40.588,classification_task,2021.2.3,Win32,59.52380952,627c6715c52fd12f31907bcf,,,,,,,,,,,,,,,,,,,,,,,l,1,1.109,"[""0.037"",""0.384"",""0.093"",""0.843""]","[1,1,0,1]",0,62,62,62,1,1,0,,,1,FALSE,,,,,,,,,,,,,,,,,,,,,,,,,,,,,,,
,61634ea5478b2d1e072e8353,627c6fdcd1967c145333bea7,2022-05-11_21h40.40.588,classification_task,2021.2.3,Win32,59.52380952,627c6715c52fd12f31907bcf,,,,,,,,,,,,,,,,,,,,,,,a,0,2.025,"[""0.093"",""0.384"",""0.525"",""0.843""]","[0,1,1,1]",0,63,63,63,1,1,0,,,1,FALSE,,,,,,,,,,,,,,,,,,,,,,,,,,,,,,,
,61634ea5478b2d1e072e8353,627c6fdcd1967c145333bea7,2022-05-11_21h40.40.588,classification_task,2021.2.3,Win32,59.52380952,627c6715c52fd12f31907bcf,,,,,,,,,,,,,,,,,,,,,,,,,,,,,,,,,,,,,,,0, ,,0,5.011481475,359.7967,0,1,1,1,1,2,2,,,,,,,,,,,,,,,,,,
,61634ea5478b2d1e072e8353,627c6fdcd1967c145333bea7,2022-05-11_21h40.40.588,classification_task,2021.2.3,Win32,59.52380952,627c6715c52fd12f31907bcf,,,,,,,,,,,,,,,,,,,,,,,,,,,,,,,,,,,,,,,1,  ,,0,4.563675051,361.3162,0,1,1,1,1,2,2,,,,,,,,,,,,,,,,,,
,61634ea5478b2d1e072e8353,627c6fdcd1967c145333bea7,2022-05-11_21h40.40.588,classification_task,2021.2.3,Win32,59.52380952,627c6715c52fd12f31907bcf,,,,,,,,,,,,,,,,,,,,,,,,,,,,,,,,,,,,,,,2,  ,,0,0.877883715,366.835,0,1,1,1,1,2,2,,,,,,,,,,,,,,,,,,
,61634ea5478b2d1e072e8353,627c6fdcd1967c145333bea7,2022-05-11_21h40.40.588,classification_task,2021.2.3,Win32,59.52380952,627c6715c52fd12f31907bcf,,,,,,,,,,,,,,,,,,,,,,,,,,,,,,,,,,,,,,,,,,,,,0,1,1,1,1,,2,,,,,,,,,,,,,,,,,,
,61634ea5478b2d1e072e8353,627c6fdcd1967c145333bea7,2022-05-11_21h40.40.588,classification_task,2021.2.3,Win32,59.52380952,627c6715c52fd12f31907bcf,,,,,,,,,,,,,,,,,,,,,space,18.4998,a,0,3.0223,"[""0.130"",""0.698"",""0.450"",""0.769""]","[1,0,1,1]",0,0,0,0,1,1,1,,,1,FALSE,,,,,,,,,,,,,,,,,,,,,,,,,,,,,,,
,61634ea5478b2d1e072e8353,627c6fdcd1967c145333bea7,2022-05-11_21h40.40.588,classification_task,2021.2.3,Win32,59.52380952,627c6715c52fd12f31907bcf,,,,,,,,,,,,,,,,,,,,,,,a,1,1.7071,"[""0.172"",""0.708"",""0.662"",""0.876""]","[1,0,1,1]",0,1,1,1,1,0,1,,,1,FALSE,,,,,,,,,,,,,,,,,,,,,,,,,,,,,,,
,61634ea5478b2d1e072e8353,627c6fdcd1967c145333bea7,2022-05-11_21h40.40.588,classification_task,2021.2.3,Win32,59.52380952,627c6715c52fd12f31907bcf,,,,,,,,,,,,,,,,,,,,,,,l,1,2.9821,"[""0.037"",""0.384"",""0.698"",""0.843""]","[1,1,0,1]",0,2,2,2,1,1,0,,,1,FALSE,,,,,,,,,,,,,,,,,,,,,,,,,,,,,,,
,61634ea5478b2d1e072e8353,627c6fdcd1967c145333bea7,2022-05-11_21h40.40.588,classification_task,2021.2.3,Win32,59.52380952,627c6715c52fd12f31907bcf,,,,,,,,,,,,,,,,,,,,,,,a,1,3.2401,"[""0.172"",""0.564"",""0.708"",""0.876""]","[1,1,0,1]",0,3,3,3,1,0,1,,,1,FALSE,,,,,,,,,,,,,,,,,,,,,,,,,,,,,,,
,61634ea5478b2d1e072e8353,627c6fdcd1967c145333bea7,2022-05-11_21h40.40.588,classification_task,2021.2.3,Win32,59.52380952,627c6715c52fd12f31907bcf,,,,,,,,,,,,,,,,,,,,,,,l,1,0.8964,"[""0.037"",""0.384"",""0.525"",""0.716""]","[1,1,1,0]",0,4,4,4,1,1,0,,,1,FALSE,,,,,,,,,,,,,,,,,,,,,,,,,,,,,,,
,61634ea5478b2d1e072e8353,627c6fdcd1967c145333bea7,2022-05-11_21h40.40.588,classification_task,2021.2.3,Win32,59.52380952,627c6715c52fd12f31907bcf,,,,,,,,,,,,,,,,,,,,,,,a,1,0.8906,"[""0.716"",""0.485"",""0.912"",""0.945""]","[0,1,1,1]",0,5,5,5,1,0,0,,,1,FALSE,,,,,,,,,,,,,,,,,,,,,,,,,,,,,,,
,61634ea5478b2d1e072e8353,627c6fdcd1967c145333bea7,2022-05-11_21h40.40.588,classification_task,2021.2.3,Win32,59.52380952,627c6715c52fd12f31907bcf,,,,,,,,,,,,,,,,,,,,,,,l,1,2.4955,"[""0.037"",""0.621"",""0.525"",""0.843""]","[1,0,1,1]",0,6,6,6,1,1,0,,,1,FALSE,,,,,,,,,,,,,,,,,,,,,,,,,,,,,,,
,61634ea5478b2d1e072e8353,627c6fdcd1967c145333bea7,2022-05-11_21h40.40.588,classification_task,2021.2.3,Win32,59.52380952,627c6715c52fd12f31907bcf,,,,,,,,,,,,,,,,,,,,,,,a,1,1.1949,"[""0.172"",""0.564"",""0.662"",""0.349""]","[1,1,1,0]",0,7,7,7,1,0,1,,,1,FALSE,,,,,,,,,,,,,,,,,,,,,,,,,,,,,,,
,61634ea5478b2d1e072e8353,627c6fdcd1967c145333bea7,2022-05-11_21h40.40.588,classification_task,2021.2.3,Win32,59.52380952,627c6715c52fd12f31907bcf,,,,,,,,,,,,,,,,,,,,,,,a,1,1.5699,"[""0.262"",""0.485"",""0.912"",""0.349""]","[1,1,1,0]",0,8,8,8,1,0,0,,,1,FALSE,,,,,,,,,,,,,,,,,,,,,,,,,,,,,,,
,61634ea5478b2d1e072e8353,627c6fdcd1967c145333bea7,2022-05-11_21h40.40.588,classification_task,2021.2.3,Win32,59.52380952,627c6715c52fd12f31907bcf,,,,,,,,,,,,,,,,,,,,,,,a,1,1.2654,"[""0.262"",""0.485"",""0.734"",""0.945""]","[1,1,0,1]",0,9,9,9,1,0,0,,,1,FALSE,,,,,,,,,,,,,,,,,,,,,,,,,,,,,,,
,61634ea5478b2d1e072e8353,627c6fdcd1967c145333bea7,2022-05-11_21h40.40.588,classification_task,2021.2.3,Win32,59.52380952,627c6715c52fd12f31907bcf,,,,,,,,,,,,,,,,,,,,,,,a,1,0.7833,"[""0.621"",""0.564"",""0.662"",""0.876""]","[0,1,1,1]",0,10,10,10,1,0,1,,,1,FALSE,,,,,,,,,,,,,,,,,,,,,,,,,,,,,,,
,61634ea5478b2d1e072e8353,627c6fdcd1967c145333bea7,2022-05-11_21h40.40.588,classification_task,2021.2.3,Win32,59.52380952,627c6715c52fd12f31907bcf,,,,,,,,,,,,,,,,,,,,,,,a,0,1.4384,"[""0.698"",""0.302"",""0.450"",""0.769""]","[0,1,1,1]",0,11,11,11,1,1,1,,,1,FALSE,,,,,,,,,,,,,,,,,,,,,,,,,,,,,,,
,61634ea5478b2d1e072e8353,627c6fdcd1967c145333bea7,2022-05-11_21h40.40.588,classification_task,2021.2.3,Win32,59.52380952,627c6715c52fd12f31907bcf,,,,,,,,,,,,,,,,,,,,,,,l,1,1.166,"[""0.130"",""0.302"",""0.223"",""0.769""]","[1,1,0,1]",0,12,12,12,1,1,1,,,1,FALSE,,,,,,,,,,,,,,,,,,,,,,,,,,,,,,,
,61634ea5478b2d1e072e8353,627c6fdcd1967c145333bea7,2022-05-11_21h40.40.588,classification_task,2021.2.3,Win32,59.52380952,627c6715c52fd12f31907bcf,,,,,,,,,,,,,,,,,,,,,,,l,1,3.1144,"[""0.130"",""0.302"",""0.450"",""0.093""]","[1,1,1,0]",0,13,13,13,1,1,1,,,1,FALSE,,,,,,,,,,,,,,,,,,,,,,,,,,,,,,,
,61634ea5478b2d1e072e8353,627c6fdcd1967c145333bea7,2022-05-11_21h40.40.588,classification_task,2021.2.3,Win32,59.52380952,627c6715c52fd12f31907bcf,,,,,,,,,,,,,,,,,,,,,,,a,1,3.9562,"[""0.262"",""0.093"",""0.912"",""0.945""]","[1,0,1,1]",0,14,14,14,1,0,0,,,1,FALSE,,,,,,,,,,,,,,,,,,,,,,,,,,,,,,,
,61634ea5478b2d1e072e8353,627c6fdcd1967c145333bea7,2022-05-11_21h40.40.588,classification_task,2021.2.3,Win32,59.52380952,627c6715c52fd12f31907bcf,,,,,,,,,,,,,,,,,,,,,,,l,1,8.0064,"[""0.084"",""0.384"",""0.525"",""0.843""]","[0,1,1,1]",0,15,15,15,1,1,0,,,1,FALSE,,,,,,,,,,,,,,,,,,,,,,,,,,,,,,,
,61634ea5478b2d1e072e8353,627c6fdcd1967c145333bea7,2022-05-11_21h40.40.588,classification_task,2021.2.3,Win32,59.52380952,627c6715c52fd12f31907bcf,,,,,,,,,,,,,,,,,,,,,,,l,1,3.4739,"[""0.130"",""0.716"",""0.450"",""0.769""]","[1,0,1,1]",0,16,16,16,1,1,1,,,1,FALSE,,,,,,,,,,,,,,,,,,,,,,,,,,,,,,,
,61634ea5478b2d1e072e8353,627c6fdcd1967c145333bea7,2022-05-11_21h40.40.588,classification_task,2021.2.3,Win32,59.52380952,627c6715c52fd12f31907bcf,,,,,,,,,,,,,,,,,,,,,,,l,1,1.8425,"[""0.130"",""0.302"",""0.450"",""0.621""]","[1,1,1,0]",0,17,17,17,1,1,1,,,1,FALSE,,,,,,,,,,,,,,,,,,,,,,,,,,,,,,,
,61634ea5478b2d1e072e8353,627c6fdcd1967c145333bea7,2022-05-11_21h40.40.588,classification_task,2021.2.3,Win32,59.52380952,627c6715c52fd12f31907bcf,,,,,,,,,,,,,,,,,,,,,,,a,1,3.5957,"[""0.096"",""0.564"",""0.662"",""0.876""]","[0,1,1,1]",0,18,18,18,1,0,1,,,1,FALSE,,,,,,,,,,,,,,,,,,,,,,,,,,,,,,,
,61634ea5478b2d1e072e8353,627c6fdcd1967c145333bea7,2022-05-11_21h40.40.588,classification_task,2021.2.3,Win32,59.52380952,627c6715c52fd12f31907bcf,,,,,,,,,,,,,,,,,,,,,,,a,1,1.3619,"[""0.262"",""0.485"",""0.730"",""0.945""]","[1,1,0,1]",0,19,19,19,1,0,0,,,1,FALSE,,,,,,,,,,,,,,,,,,,,,,,,,,,,,,,
,61634ea5478b2d1e072e8353,627c6fdcd1967c145333bea7,2022-05-11_21h40.40.588,classification_task,2021.2.3,Win32,59.52380952,627c6715c52fd12f31907bcf,,,,,,,,,,,,,,,,,,,,,,,l,1,1.2412,"[""0.037"",""0.384"",""0.223"",""0.843""]","[1,1,0,1]",0,20,20,20,1,1,0,,,1,FALSE,,,,,,,,,,,,,,,,,,,,,,,,,,,,,,,
,61634ea5478b2d1e072e8353,627c6fdcd1967c145333bea7,2022-05-11_21h40.40.588,classification_task,2021.2.3,Win32,59.52380952,627c6715c52fd12f31907bcf,,,,,,,,,,,,,,,,,,,,,,,l,1,0.9239,"[""0.037"",""0.621"",""0.525"",""0.843""]","[1,0,1,1]",0,21,21,21,1,1,0,,,1,FALSE,,,,,,,,,,,,,,,,,,,,,,,,,,,,,,,
,61634ea5478b2d1e072e8353,627c6fdcd1967c145333bea7,2022-05-11_21h40.40.588,classification_task,2021.2.3,Win32,59.52380952,627c6715c52fd12f31907bcf,,,,,,,,,,,,,,,,,,,,,,,a,1,5.4274,"[""0.262"",""0.485"",""0.912"",""0.731""]","[1,1,1,0]",0,22,22,22,1,0,0,,,1,FALSE,,,,,,,,,,,,,,,,,,,,,,,,,,,,,,,
,61634ea5478b2d1e072e8353,627c6fdcd1967c145333bea7,2022-05-11_21h40.40.588,classification_task,2021.2.3,Win32,59.52380952,627c6715c52fd12f31907bcf,,,,,,,,,,,,,,,,,,,,,,,a,1,0.9188,"[""0.730"",""0.485"",""0.912"",""0.945""]","[0,1,1,1]",0,23,23,23,1,0,0,,,1,FALSE,,,,,,,,,,,,,,,,,,,,,,,,,,,,,,,
,61634ea5478b2d1e072e8353,627c6fdcd1967c145333bea7,2022-05-11_21h40.40.588,classification_task,2021.2.3,Win32,59.52380952,627c6715c52fd12f31907bcf,,,,,,,,,,,,,,,,,,,,,,,a,1,1.1829,"[""0.172"",""0.564"",""0.621"",""0.876""]","[1,1,0,1]",0,24,24,24,1,0,1,,,1,FALSE,,,,,,,,,,,,,,,,,,,,,,,,,,,,,,,
,61634ea5478b2d1e072e8353,627c6fdcd1967c145333bea7,2022-05-11_21h40.40.588,classification_task,2021.2.3,Win32,59.52380952,627c6715c52fd12f31907bcf,,,,,,,,,,,,,,,,,,,,,,,l,1,2.7857,"[""0.130"",""0.302"",""0.734"",""0.769""]","[1,1,0,1]",0,25,25,25,1,1,1,,,1,FALSE,,,,,,,,,,,,,,,,,,,,,,,,,,,,,,,
,61634ea5478b2d1e072e8353,627c6fdcd1967c145333bea7,2022-05-11_21h40.40.588,classification_task,2021.2.3,Win32,59.52380952,627c6715c52fd12f31907bcf,,,,,,,,,,,,,,,,,,,,,,,a,1,1.5272,"[""0.172"",""0.096"",""0.662"",""0.876""]","[1,0,1,1]",0,26,26,26,1,0,1,,,1,FALSE,,,,,,,,,,,,,,,,,,,,,,,,,,,,,,,
,61634ea5478b2d1e072e8353,627c6fdcd1967c145333bea7,2022-05-11_21h40.40.588,classification_task,2021.2.3,Win32,59.52380952,627c6715c52fd12f31907bcf,,,,,,,,,,,,,,,,,,,,,,,a,1,0.8993,"[""0.262"",""0.731"",""0.912"",""0.945""]","[1,0,1,1]",0,27,27,27,1,0,0,,,1,FALSE,,,,,,,,,,,,,,,,,,,,,,,,,,,,,,,
,61634ea5478b2d1e072e8353,627c6fdcd1967c145333bea7,2022-05-11_21h40.40.588,classification_task,2021.2.3,Win32,59.52380952,627c6715c52fd12f31907bcf,,,,,,,,,,,,,,,,,,,,,,,l,1,0.9502,"[""0.037"",""0.384"",""0.525"",""0.096""]","[1,1,1,0]",0,28,28,28,1,1,0,,,1,FALSE,,,,,,,,,,,,,,,,,,,,,,,,,,,,,,,
,61634ea5478b2d1e072e8353,627c6fdcd1967c145333bea7,2022-05-11_21h40.40.588,classification_task,2021.2.3,Win32,59.52380952,627c6715c52fd12f31907bcf,,,,,,,,,,,,,,,,,,,,,,,a,1,1.1564,"[""0.172"",""0.564"",""0.662"",""0.734""]","[1,1,1,0]",0,29,29,29,1,0,1,,,1,FALSE,,,,,,,,,,,,,,,,,,,,,,,,,,,,,,,
,61634ea5478b2d1e072e8353,627c6fdcd1967c145333bea7,2022-05-11_21h40.40.588,classification_task,2021.2.3,Win32,59.52380952,627c6715c52fd12f31907bcf,,,,,,,,,,,,,,,,,,,,,,,a,0,0.7157,"[""0.698"",""0.302"",""0.450"",""0.769""]","[0,1,1,1]",0,30,30,30,1,1,1,,,1,FALSE,,,,,,,,,,,,,,,,,,,,,,,,,,,,,,,
,61634ea5478b2d1e072e8353,627c6fdcd1967c145333bea7,2022-05-11_21h40.40.588,classification_task,2021.2.3,Win32,59.52380952,627c6715c52fd12f31907bcf,,,,,,,,,,,,,,,,,,,,,,,l,1,5.7944,"[""0.206"",""0.384"",""0.525"",""0.843""]","[0,1,1,1]",0,31,31,31,1,1,0,,,1,FALSE,,,,,,,,,,,,,,,,,,,,,,,,,,,,,,,
,61634ea5478b2d1e072e8353,627c6fdcd1967c145333bea7,2022-05-11_21h40.40.588,classification_task,2021.2.3,Win32,59.52380952,627c6715c52fd12f31907bcf,,,,,,,,,,,,,,,,,,,,,,,l,1,0.8657,"[""0.037"",""0.384"",""0.708"",""0.843""]","[1,1,0,1]",0,32,32,32,1,1,0,,,1,FALSE,,,,,,,,,,,,,,,,,,,,,,,,,,,,,,,
,61634ea5478b2d1e072e8353,627c6fdcd1967c145333bea7,2022-05-11_21h40.40.588,classification_task,2021.2.3,Win32,59.52380952,627c6715c52fd12f31907bcf,,,,,,,,,,,,,,,,,,,,,,,a,1,0.7681,"[""0.727"",""0.485"",""0.912"",""0.945""]","[0,1,1,1]",0,33,33,33,1,0,0,,,1,FALSE,,,,,,,,,,,,,,,,,,,,,,,,,,,,,,,
,61634ea5478b2d1e072e8353,627c6fdcd1967c145333bea7,2022-05-11_21h40.40.588,classification_task,2021.2.3,Win32,59.52380952,627c6715c52fd12f31907bcf,,,,,,,,,,,,,,,,,,,,,,,a,0,0.6822,"[""0.130"",""0.302"",""0.450"",""0.096""]","[1,1,1,0]",0,34,34,34,1,1,1,,,1,FALSE,,,,,,,,,,,,,,,,,,,,,,,,,,,,,,,
,61634ea5478b2d1e072e8353,627c6fdcd1967c145333bea7,2022-05-11_21h40.40.588,classification_task,2021.2.3,Win32,59.52380952,627c6715c52fd12f31907bcf,,,,,,,,,,,,,,,,,,,,,,,a,1,1.0171,"[""0.213"",""0.564"",""0.662"",""0.876""]","[0,1,1,1]",0,35,35,35,1,0,1,,,1,FALSE,,,,,,,,,,,,,,,,,,,,,,,,,,,,,,,
,61634ea5478b2d1e072e8353,627c6fdcd1967c145333bea7,2022-05-11_21h40.40.588,classification_task,2021.2.3,Win32,59.52380952,627c6715c52fd12f31907bcf,,,,,,,,,,,,,,,,,,,,,,,l,1,2.4166,"[""0.130"",""0.302"",""0.716"",""0.769""]","[1,1,0,1]",0,36,36,36,1,1,1,,,1,FALSE,,,,,,,,,,,,,,,,,,,,,,,,,,,,,,,
,61634ea5478b2d1e072e8353,627c6fdcd1967c145333bea7,2022-05-11_21h40.40.588,classification_task,2021.2.3,Win32,59.52380952,627c6715c52fd12f31907bcf,,,,,,,,,,,,,,,,,,,,,,,l,1,0.8132,"[""0.037"",""0.223"",""0.525"",""0.843""]","[1,0,1,1]",0,37,37,37,1,1,0,,,1,FALSE,,,,,,,,,,,,,,,,,,,,,,,,,,,,,,,
,61634ea5478b2d1e072e8353,627c6fdcd1967c145333bea7,2022-05-11_21h40.40.588,classification_task,2021.2.3,Win32,59.52380952,627c6715c52fd12f31907bcf,,,,,,,,,,,,,,,,,,,,,,,a,0,1.1332,"[""0.698"",""0.302"",""0.450"",""0.769""]","[0,1,1,1]",0,38,38,38,1,1,1,,,1,FALSE,,,,,,,,,,,,,,,,,,,,,,,,,,,,,,,
,61634ea5478b2d1e072e8353,627c6fdcd1967c145333bea7,2022-05-11_21h40.40.588,classification_task,2021.2.3,Win32,59.52380952,627c6715c52fd12f31907bcf,,,,,,,,,,,,,,,,,,,,,,,l,1,0.9817,"[""0.037"",""0.384"",""0.525"",""0.093""]","[1,1,1,0]",0,39,39,39,1,1,0,,,1,FALSE,,,,,,,,,,,,,,,,,,,,,,,,,,,,,,,
,61634ea5478b2d1e072e8353,627c6fdcd1967c145333bea7,2022-05-11_21h40.40.588,classification_task,2021.2.3,Win32,59.52380952,627c6715c52fd12f31907bcf,,,,,,,,,,,,,,,,,,,,,,,l,0,1.3643,"[""0.172"",""0.223"",""0.662"",""0.876""]","[1,0,1,1]",0,40,40,40,1,0,1,,,1,FALSE,,,,,,,,,,,,,,,,,,,,,,,,,,,,,,,
,61634ea5478b2d1e072e8353,627c6fdcd1967c145333bea7,2022-05-11_21h40.40.588,classification_task,2021.2.3,Win32,59.52380952,627c6715c52fd12f31907bcf,,,,,,,,,,,,,,,,,,,,,,,a,1,1.9024,"[""0.172"",""0.564"",""0.708"",""0.876""]","[1,1,0,1]",0,41,41,41,1,0,1,,,1,FALSE,,,,,,,,,,,,,,,,,,,,,,,,,,,,,,,
,61634ea5478b2d1e072e8353,627c6fdcd1967c145333bea7,2022-05-11_21h40.40.588,classification_task,2021.2.3,Win32,59.52380952,627c6715c52fd12f31907bcf,,,,,,,,,,,,,,,,,,,,,,,a,1,1.0422,"[""0.172"",""0.564"",""0.662"",""0.708""]","[1,1,1,0]",0,42,42,42,1,0,1,,,1,FALSE,,,,,,,,,,,,,,,,,,,,,,,,,,,,,,,
,61634ea5478b2d1e072e8353,627c6fdcd1967c145333bea7,2022-05-11_21h40.40.588,classification_task,2021.2.3,Win32,59.52380952,627c6715c52fd12f31907bcf,,,,,,,,,,,,,,,,,,,,,,,a,0,1.0634,"[""0.349"",""0.384"",""0.525"",""0.843""]","[0,1,1,1]",0,43,43,43,1,1,0,,,1,FALSE,,,,,,,,,,,,,,,,,,,,,,,,,,,,,,,
,61634ea5478b2d1e072e8353,627c6fdcd1967c145333bea7,2022-05-11_21h40.40.588,classification_task,2021.2.3,Win32,59.52380952,627c6715c52fd12f31907bcf,,,,,,,,,,,,,,,,,,,,,,,a,1,1.6636,"[""0.262"",""0.213"",""0.912"",""0.945""]","[1,0,1,1]",0,44,44,44,1,0,0,,,1,FALSE,,,,,,,,,,,,,,,,,,,,,,,,,,,,,,,
,61634ea5478b2d1e072e8353,627c6fdcd1967c145333bea7,2022-05-11_21h40.40.588,classification_task,2021.2.3,Win32,59.52380952,627c6715c52fd12f31907bcf,,,,,,,,,,,,,,,,,,,,,,,l,1,2.0236,"[""0.130"",""0.716"",""0.450"",""0.769""]","[1,0,1,1]",0,45,45,45,1,1,1,,,1,FALSE,,,,,,,,,,,,,,,,,,,,,,,,,,,,,,,
,61634ea5478b2d1e072e8353,627c6fdcd1967c145333bea7,2022-05-11_21h40.40.588,classification_task,2021.2.3,Win32,59.52380952,627c6715c52fd12f31907bcf,,,,,,,,,,,,,,,,,,,,,,,l,0,0.8553,"[""0.262"",""0.485"",""0.096"",""0.945""]","[1,1,0,1]",0,46,46,46,1,0,0,,,1,FALSE,,,,,,,,,,,,,,,,,,,,,,,,,,,,,,,
,61634ea5478b2d1e072e8353,627c6fdcd1967c145333bea7,2022-05-11_21h40.40.588,classification_task,2021.2.3,Win32,59.52380952,627c6715c52fd12f31907bcf,,,,,,,,,,,,,,,,,,,,,,,a,1,1.6489,"[""0.262"",""0.485"",""0.912"",""0.621""]","[1,1,1,0]",0,47,47,47,1,0,0,,,1,FALSE,,,,,,,,,,,,,,,,,,,,,,,,,,,,,,,
,61634ea5478b2d1e072e8353,627c6fdcd1967c145333bea7,2022-05-11_21h40.40.588,classification_task,2021.2.3,Win32,59.52380952,627c6715c52fd12f31907bcf,,,,,,,,,,,,,,,,,,,,,,,a,1,1.075,"[""0.262"",""0.213"",""0.912"",""0.945""]","[1,0,1,1]",0,48,48,48,1,0,0,,,1,FALSE,,,,,,,,,,,,,,,,,,,,,,,,,,,,,,,
,61634ea5478b2d1e072e8353,627c6fdcd1967c145333bea7,2022-05-11_21h40.40.588,classification_task,2021.2.3,Win32,59.52380952,627c6715c52fd12f31907bcf,,,,,,,,,,,,,,,,,,,,,,,l,0,3.4986,"[""0.172"",""0.564"",""0.662"",""0.213""]","[1,1,1,0]",0,49,49,49,1,0,1,,,1,FALSE,,,,,,,,,,,,,,,,,,,,,,,,,,,,,,,
,61634ea5478b2d1e072e8353,627c6fdcd1967c145333bea7,2022-05-11_21h40.40.588,classification_task,2021.2.3,Win32,59.52380952,627c6715c52fd12f31907bcf,,,,,,,,,,,,,,,,,,,,,,,a,1,0.9256,"[""0.621"",""0.564"",""0.662"",""0.876""]","[0,1,1,1]",0,50,50,50,1,0,1,,,1,FALSE,,,,,,,,,,,,,,,,,,,,,,,,,,,,,,,
,61634ea5478b2d1e072e8353,627c6fdcd1967c145333bea7,2022-05-11_21h40.40.588,classification_task,2021.2.3,Win32,59.52380952,627c6715c52fd12f31907bcf,,,,,,,,,,,,,,,,,,,,,,,a,1,1.2203,"[""0.172"",""0.727"",""0.662"",""0.876""]","[1,0,1,1]",0,51,51,51,1,0,1,,,1,FALSE,,,,,,,,,,,,,,,,,,,,,,,,,,,,,,,
,61634ea5478b2d1e072e8353,627c6fdcd1967c145333bea7,2022-05-11_21h40.40.588,classification_task,2021.2.3,Win32,59.52380952,627c6715c52fd12f31907bcf,,,,,,,,,,,,,,,,,,,,,,,a,1,1.1165,"[""0.223"",""0.485"",""0.912"",""0.945""]","[0,1,1,1]",0,52,52,52,1,0,0,,,1,FALSE,,,,,,,,,,,,,,,,,,,,,,,,,,,,,,,
,61634ea5478b2d1e072e8353,627c6fdcd1967c145333bea7,2022-05-11_21h40.40.588,classification_task,2021.2.3,Win32,59.52380952,627c6715c52fd12f31907bcf,,,,,,,,,,,,,,,,,,,,,,,a,0,1.1141,"[""0.727"",""0.302"",""0.450"",""0.769""]","[0,1,1,1]",0,53,53,53,1,1,1,,,1,FALSE,,,,,,,,,,,,,,,,,,,,,,,,,,,,,,,
,61634ea5478b2d1e072e8353,627c6fdcd1967c145333bea7,2022-05-11_21h40.40.588,classification_task,2021.2.3,Win32,59.52380952,627c6715c52fd12f31907bcf,,,,,,,,,,,,,,,,,,,,,,,l,1,0.9633,"[""0.037"",""0.384"",""0.525"",""0.084""]","[1,1,1,0]",0,54,54,54,1,1,0,,,1,FALSE,,,,,,,,,,,,,,,,,,,,,,,,,,,,,,,
,61634ea5478b2d1e072e8353,627c6fdcd1967c145333bea7,2022-05-11_21h40.40.588,classification_task,2021.2.3,Win32,59.52380952,627c6715c52fd12f31907bcf,,,,,,,,,,,,,,,,,,,,,,,a,0,1.9965,"[""0.130"",""0.716"",""0.450"",""0.769""]","[1,0,1,1]",0,55,55,55,1,1,1,,,1,FALSE,,,,,,,,,,,,,,,,,,,,,,,,,,,,,,,
,61634ea5478b2d1e072e8353,627c6fdcd1967c145333bea7,2022-05-11_21h40.40.588,classification_task,2021.2.3,Win32,59.52380952,627c6715c52fd12f31907bcf,,,,,,,,,,,,,,,,,,,,,,,l,0,1.6816,"[""0.262"",""0.485"",""0.912"",""0.206""]","[1,1,1,0]",0,56,56,56,1,0,0,,,1,FALSE,,,,,,,,,,,,,,,,,,,,,,,,,,,,,,,
,61634ea5478b2d1e072e8353,627c6fdcd1967c145333bea7,2022-05-11_21h40.40.588,classification_task,2021.2.3,Win32,59.52380952,627c6715c52fd12f31907bcf,,,,,,,,,,,,,,,,,,,,,,,l,0,2.0985,"[""0.172"",""0.564"",""0.716"",""0.876""]","[1,1,0,1]",0,57,57,57,1,0,1,,,1,FALSE,,,,,,,,,,,,,,,,,,,,,,,,,,,,,,,
,61634ea5478b2d1e072e8353,627c6fdcd1967c145333bea7,2022-05-11_21h40.40.588,classification_task,2021.2.3,Win32,59.52380952,627c6715c52fd12f31907bcf,,,,,,,,,,,,,,,,,,,,,,,l,1,1.0987,"[""0.130"",""0.302"",""0.450"",""0.621""]","[1,1,1,0]",0,58,58,58,1,1,1,,,1,FALSE,,,,,,,,,,,,,,,,,,,,,,,,,,,,,,,
,61634ea5478b2d1e072e8353,627c6fdcd1967c145333bea7,2022-05-11_21h40.40.588,classification_task,2021.2.3,Win32,59.52380952,627c6715c52fd12f31907bcf,,,,,,,,,,,,,,,,,,,,,,,l,1,0.6007,"[""0.716"",""0.384"",""0.525"",""0.843""]","[0,1,1,1]",0,59,59,59,1,1,0,,,1,FALSE,,,,,,,,,,,,,,,,,,,,,,,,,,,,,,,
,61634ea5478b2d1e072e8353,627c6fdcd1967c145333bea7,2022-05-11_21h40.40.588,classification_task,2021.2.3,Win32,59.52380952,627c6715c52fd12f31907bcf,,,,,,,,,,,,,,,,,,,,,,,l,1,1.1641,"[""0.037"",""0.716"",""0.525"",""0.843""]","[1,0,1,1]",0,60,60,60,1,1,0,,,1,FALSE,,,,,,,,,,,,,,,,,,,,,,,,,,,,,,,
,61634ea5478b2d1e072e8353,627c6fdcd1967c145333bea7,2022-05-11_21h40.40.588,classification_task,2021.2.3,Win32,59.52380952,627c6715c52fd12f31907bcf,,,,,,,,,,,,,,,,,,,,,,,a,1,1.2333,"[""0.262"",""0.485"",""0.727"",""0.945""]","[1,1,0,1]",0,61,61,61,1,0,0,,,1,FALSE,,,,,,,,,,,,,,,,,,,,,,,,,,,,,,,
,61634ea5478b2d1e072e8353,627c6fdcd1967c145333bea7,2022-05-11_21h40.40.588,classification_task,2021.2.3,Win32,59.52380952,627c6715c52fd12f31907bcf,,,,,,,,,,,,,,,,,,,,,,,l,1,1.0517,"[""0.130"",""0.302"",""0.084"",""0.769""]","[1,1,0,1]",0,62,62,62,1,1,1,,,1,FALSE,,,,,,,,,,,,,,,,,,,,,,,,,,,,,,,
,61634ea5478b2d1e072e8353,627c6fdcd1967c145333bea7,2022-05-11_21h40.40.588,classification_task,2021.2.3,Win32,59.52380952,627c6715c52fd12f31907bcf,,,,,,,,,,,,,,,,,,,,,,,l,1,1.1379,"[""0.037"",""0.384"",""0.734"",""0.843""]","[1,1,0,1]",0,63,63,63,1,1,0,,,1,FALSE,,,,,,,,,,,,,,,,,,,,,,,,,,,,,,,
,61634ea5478b2d1e072e8353,627c6fdcd1967c145333bea7,2022-05-11_21h40.40.588,classification_task,2021.2.3,Win32,59.52380952,627c6715c52fd12f31907bcf,,,,,,,,,,,,,,,,,,,,,,,,,,,,,,,,,,,,,,,0, ,,0,10,203.5097,0,2,2,2,1,2,3,,,,,,,,,,,,,,,,,,
,61634ea5478b2d1e072e8353,627c6fdcd1967c145333bea7,2022-05-11_21h40.40.588,classification_task,2021.2.3,Win32,59.52380952,627c6715c52fd12f31907bcf,,,,,,,,,,,,,,,,,,,,,,,,,,,,,,,,,,,,,,,1,  ,,0,8.593932867,209.2174,0,2,2,2,1,2,3,,,,,,,,,,,,,,,,,,
,61634ea5478b2d1e072e8353,627c6fdcd1967c145333bea7,2022-05-11_21h40.40.588,classification_task,2021.2.3,Win32,59.52380952,627c6715c52fd12f31907bcf,,,,,,,,,,,,,,,,,,,,,,,,,,,,,,,,,,,,,,,2,  ,,0,4.873694883,211.8951,0,2,2,2,1,2,3,,,,,,,,,,,,,,,,,,
,61634ea5478b2d1e072e8353,627c6fdcd1967c145333bea7,2022-05-11_21h40.40.588,classification_task,2021.2.3,Win32,59.52380952,627c6715c52fd12f31907bcf,,,,,,,,,,,,,,,,,,,,,,,,,,,,,,,,,,,,,,,,,,,,,0,2,2,2,1,,3,,,,,,,,,,,,,,,,,,
,61634ea5478b2d1e072e8353,627c6fdcd1967c145333bea7,2022-05-11_21h40.40.588,classification_task,2021.2.3,Win32,59.52380952,627c6715c52fd12f31907bcf,,,,,,,,,,,,,,,,,,,,,,,,,,,,,,,,,,,,,,,,,,,,,,,,,,,,,I believe the aid is a competent performer,,0.7,0,3,1694.5402,0,0,0,0,1,0,,,,,
,61634ea5478b2d1e072e8353,627c6fdcd1967c145333bea7,2022-05-11_21h40.40.588,classification_task,2021.2.3,Win32,59.52380952,627c6715c52fd12f31907bcf,,,,,,,,,,,,,,,,,,,,,,,,,,,,,,,,,,,,,,,,,,,,,,,,,,,,,I trust the aid,,0.7,0,4,1696.469,0,0,0,0,1,0,,,,,
,61634ea5478b2d1e072e8353,627c6fdcd1967c145333bea7,2022-05-11_21h40.40.588,classification_task,2021.2.3,Win32,59.52380952,627c6715c52fd12f31907bcf,,,,,,,,,,,,,,,,,,,,,,,,,,,,,,,,,,,,,,,,,,,,,,,,,,,,,I have confidence in the advice given by the aid,,0.7,0,4,1700.0576,0,0,0,0,1,0,,,,,
,61634ea5478b2d1e072e8353,627c6fdcd1967c145333bea7,2022-05-11_21h40.40.588,classification_task,2021.2.3,Win32,59.52380952,627c6715c52fd12f31907bcf,,,,,,,,,,,,,,,,,,,,,,,,,,,,,,,,,,,,,,,,,,,,,,,,,,,,,I can depend on the aid,,0.7,0,5,1706.4093,0,0,0,0,1,0,,,,,
,61634ea5478b2d1e072e8353,627c6fdcd1967c145333bea7,2022-05-11_21h40.40.588,classification_task,2021.2.3,Win32,59.52380952,627c6715c52fd12f31907bcf,,,,,,,,,,,,,,,,,,,,,,,,,,,,,,,,,,,,,,,,,,,,,,,,,,,,,I can rely on the aid to behave in consistent ways,,0.7,0,5,1712.0965,0,0,0,0,1,0,,,,,
,61634ea5478b2d1e072e8353,627c6fdcd1967c145333bea7,2022-05-11_21h40.40.588,classification_task,2021.2.3,Win32,59.52380952,627c6715c52fd12f31907bcf,,,,,,,,,,,,,,,,,,,,,,,,,,,,,,,,,,,,,,,,,,,,,,,,,,,,,I can rely on the aid to do its best every time I take its advice,,0.7,0,3,1717.5867,0,0,0,0,1,0,,,,,
,61634ea5478b2d1e072e8353,627c6fdcd1967c145333bea7,2022-05-11_21h40.40.588,classification_task,2021.2.3,Win32,59.52380952,627c6715c52fd12f31907bcf,,,,,,,,,,,,,,,,,,,,,,,,,,,,,,,,,,,,,,,,,,,,,,,,,,,,,"On trials you completed with assistance from the aid, how frequently did you think the aid was correct?",,0.7,0,95%,,0,0,0,0,1,0,,,,,
,61634ea5478b2d1e072e8353,627c6fdcd1967c145333bea7,2022-05-11_21h40.40.588,classification_task,2021.2.3,Win32,59.52380952,627c6715c52fd12f31907bcf,,,,,,,,,,,,,,,,,,,,,,,,,,,,,,,,,,,,,,,,,,,,,,,,,,,,,"On trials you completed without the aid, how frequently did you think you were correct?",,0.7,0,40%,,0,0,0,0,1,0,,,,,
,61634ea5478b2d1e072e8353,627c6fdcd1967c145333bea7,2022-05-11_21h40.40.588,classification_task,2021.2.3,Win32,59.52380952,627c6715c52fd12f31907bcf,,,,,,,,,,,,,,,,,,,,,,,,,,,,,,,,,,,,,,,,,,,,,,,,,,,,,,,,,,,0,0,0,0,1,,,,,,
,61634ea5478b2d1e072e8353,627c6fdcd1967c145333bea7,2022-05-11_21h40.40.588,classification_task,2021.2.3,Win32,59.52380952,627c6715c52fd12f31907bcf,,,,,,,,,,,,,,,,,,,,,,,,,,,,,,,,,,,,,,,,,,,,,,,,,,,,,,,,,,,,,,,,,space,11.7128,1761.068,,
,61634ea5478b2d1e072e8353,627c6fdcd1967c145333bea7,2022-05-11_21h40.40.588,classification_task,2021.2.3,Win32,59.52380952,627c6715c52fd12f31907bcf,,,,,,,,,,,,,,,,,,,,,,,,,,,,,,,,,,,,,,,,,,,,,,,,,,,,,,,,,,,,,,,,,,,,"Mozilla/5.0 (Windows NT 10.0; Win64; x64) AppleWebKit/537.36 (KHTML, like Gecko) Chrome/99.0.4844.84 Safari/537.36 OPR/85.0.4341.75",
,61634ea5478b2d1e072e8353,627c6fdcd1967c145333bea7,2022-05-11_21h40.40.588,classification_task,2021.2.3,Win32,59.52380952,627c6715c52fd12f31907bcf,,,,,,,,,,,,,,,,,,,,,,,,,,,,,,,,,,,,,,,,,,,,,,,,,,,,,,,,,,,,,,,,,,,,,HIGHLIGHT
