usingWebGL,participant,session,date,expName,psychopyVersion,OS,frameRate,study_id,signatures_friend,signatures_foe,band_ranges_top,band_ranges_bottom,formitemText,formtype,formundefined,formitemWidth,formindex,formresponse,formrt,key_resp_2.keys,key_resp_2.rt,tute_resp.keys,tute_resp.rt,tutorial.thisRepN,tutorial.thisTrialN,tutorial.thisN,tutorial.thisIndex,tutorial.ran,key_resp_4.keys,key_resp_4.rt,key_resp.keys,key_resp.corr,key_resp.rt,lines_presented,is_signal_presented,trials.thisRepN,trials.thisTrialN,trials.thisN,trials.thisIndex,trials.ran,vessel,active_band,lines,is_signal,supported_pos,catch_trial,debrief_formindex,debrief_formitemText,debrief_formtype,debrief_formitemWidth,debrief_formresponse,debrief_formrt,phases.thisRepN,phases.thisTrialN,phases.thisN,phases.thisIndex,phases.ran,phases.order,phase,key_resp_3.keys,trustitemText,trusttype,trustitemWidth,trustindex,trustresponse,trustrt,support_status.thisRepN,support_status.thisTrialN,support_status.thisN,support_status.thisIndex,support_status.ran,support_status.order,key_resp_5.keys,key_resp_5.rt,globalClockTime,userAgent,manualCondition
TRUE,61648e4f0d2212047ab36b27,627c701e90162057fa095fcc,2022-05-12_04h26.01.231,classification_task,2021.2.3,Win32,59.99520038,627c6715c52fd12f31907bcf,,,,,,,,,,,,,,,,,,,,,,,,,,,,,,,,,,,,,,,,,,,,,,,,,,,,,,,,,,,,,,,,,,,,,
,61648e4f0d2212047ab36b27,627c701e90162057fa095fcc,2022-05-12_04h26.01.231,classification_task,2021.2.3,Win32,59.99520038,627c6715c52fd12f31907bcf,"[[""0.275"",""0.557"",""0.595"",""0.963""],[""0.308"",""0.346"",""0.884"",""0.925""]]","[[""0.107"",""0.421"",""0.494"",""0.793""],[""0.148"",""0.195"",""0.653"",""0.834""]]","[1,10]","[100,1000]",Video game experience,,,0.7,0,,,,,,,,,,,,,,,,,,,,,,,,,,,,,,,,,,,,,,,,,,,,,,,,,,,,,,,,,,,,
,61648e4f0d2212047ab36b27,627c701e90162057fa095fcc,2022-05-12_04h26.01.231,classification_task,2021.2.3,Win32,59.99520038,627c6715c52fd12f31907bcf,,,,,Approximately how many hours did you spend playing video games in the last week?,,,0.7,0,12,,,,,,,,,,,,,,,,,,,,,,,,,,,,,,,,,,,,,,,,,,,,,,,,,,,,,,,,,,,
,61648e4f0d2212047ab36b27,627c701e90162057fa095fcc,2022-05-12_04h26.01.231,classification_task,2021.2.3,Win32,59.99520038,627c6715c52fd12f31907bcf,,,,,"Which game did you play the most this year? (Enter ""None"" if you didn't play any)",,,0.7,0,fortnite,,,,,,,,,,,,,,,,,,,,,,,,,,,,,,,,,,,,,,,,,,,,,,,,,,,,,,,,,,,
,61648e4f0d2212047ab36b27,627c701e90162057fa095fcc,2022-05-12_04h26.01.231,classification_task,2021.2.3,Win32,59.99520038,627c6715c52fd12f31907bcf,,,,,Visual perception,,,0.7,0,,,,,,,,,,,,,,,,,,,,,,,,,,,,,,,,,,,,,,,,,,,,,,,,,,,,,,,,,,,,
,61648e4f0d2212047ab36b27,627c701e90162057fa095fcc,2022-05-12_04h26.01.231,classification_task,2021.2.3,Win32,59.99520038,627c6715c52fd12f31907bcf,,,,,Do you have any form of color blindness?,,,0.7,0,No,31.0756,,,,,,,,,,,,,,,,,,,,,,,,,,,,,,,,,,,,,,,,,,,,,,,,,,,,,,,,,,
,61648e4f0d2212047ab36b27,627c701e90162057fa095fcc,2022-05-12_04h26.01.231,classification_task,2021.2.3,Win32,59.99520038,627c6715c52fd12f31907bcf,,,,,Do you use software to change the colour temperature of your screen (e.g. f.lux)?,,,0.7,0,Yes,36.1884,,,,,,,,,,,,,,,,,,,,,,,,,,,,,,,,,,,,,,,,,,,,,,,,,,,,,,,,,,
,61648e4f0d2212047ab36b27,627c701e90162057fa095fcc,2022-05-12_04h26.01.231,classification_task,2021.2.3,Win32,59.99520038,627c6715c52fd12f31907bcf,,,,,,,,,,,,space,3.7752,space,6.9961,0,0,0,0,1,,,,,,,,,,,,,,,,,,,,,,,,,,,,,,,,,,,,,,,,,,,,,,,,,
,61648e4f0d2212047ab36b27,627c701e90162057fa095fcc,2022-05-12_04h26.01.231,classification_task,2021.2.3,Win32,59.99520038,627c6715c52fd12f31907bcf,,,,,,,,,,,,,,space,8.8141,1,0,1,0,1,,,,,,,,,,,,,,,,,,,,,,,,,,,,,,,,,,,,,,,,,,,,,,,,,
,61648e4f0d2212047ab36b27,627c701e90162057fa095fcc,2022-05-12_04h26.01.231,classification_task,2021.2.3,Win32,59.99520038,627c6715c52fd12f31907bcf,,,,,,,,,,,,,,space,39.197,2,0,2,0,1,,,,,,,,,,,,,,,,,,,,,,,,,,,,,,,,,,,,,,,,,,,,,,,,,
,61648e4f0d2212047ab36b27,627c701e90162057fa095fcc,2022-05-12_04h26.01.231,classification_task,2021.2.3,Win32,59.99520038,627c6715c52fd12f31907bcf,,,,,,,,,,,,,,space,5.5162,3,0,3,0,1,,,,,,,,,,,,,,,,,,,,,,,,,,,,,,,,,,,,,,,,,,,,,,,,,
,61648e4f0d2212047ab36b27,627c701e90162057fa095fcc,2022-05-12_04h26.01.231,classification_task,2021.2.3,Win32,59.99520038,627c6715c52fd12f31907bcf,,,,,,,,,,,,,,space,12.8161,4,0,4,0,1,,,,,,,,,,,,,,,,,,,,,,,,,,,,,,,,,,,,,,,,,,,,,,,,,
,61648e4f0d2212047ab36b27,627c701e90162057fa095fcc,2022-05-12_04h26.01.231,classification_task,2021.2.3,Win32,59.99520038,627c6715c52fd12f31907bcf,,,,,,,,,,,,,,,,,,,,,space,2.0311,l,0,3.8249,"[""0.702"",""0.557"",""0.595"",""0.963""]","[0,1,1,1]",0,0,0,0,1,0,0,,,0,FALSE,,,,,,,,,,,,,,,,,,,,,,,,,,,,,,,
,61648e4f0d2212047ab36b27,627c701e90162057fa095fcc,2022-05-12_04h26.01.231,classification_task,2021.2.3,Win32,59.99520038,627c6715c52fd12f31907bcf,,,,,,,,,,,,,,,,,,,,,,,l,1,2.5018,"[""0.036"",""0.421"",""0.494"",""0.793""]","[0,1,1,1]",0,1,1,1,1,1,0,,,0,FALSE,,,,,,,,,,,,,,,,,,,,,,,,,,,,,,,
,61648e4f0d2212047ab36b27,627c701e90162057fa095fcc,2022-05-12_04h26.01.231,classification_task,2021.2.3,Win32,59.99520038,627c6715c52fd12f31907bcf,,,,,,,,,,,,,,,,,,,,,,,a,1,2.1732,"[""0.275"",""0.557"",""0.734"",""0.963""]","[1,1,0,1]",0,2,2,2,1,0,0,,,0,FALSE,,,,,,,,,,,,,,,,,,,,,,,,,,,,,,,
,61648e4f0d2212047ab36b27,627c701e90162057fa095fcc,2022-05-12_04h26.01.231,classification_task,2021.2.3,Win32,59.99520038,627c6715c52fd12f31907bcf,,,,,,,,,,,,,,,,,,,,,,,l,1,2.1324,"[""0.107"",""0.746"",""0.494"",""0.793""]","[1,0,1,1]",0,3,3,3,1,1,0,,,0,FALSE,,,,,,,,,,,,,,,,,,,,,,,,,,,,,,,
,61648e4f0d2212047ab36b27,627c701e90162057fa095fcc,2022-05-12_04h26.01.231,classification_task,2021.2.3,Win32,59.99520038,627c6715c52fd12f31907bcf,,,,,,,,,,,,,,,,,,,,,,,a,1,4.1434,"[""0.308"",""0.237"",""0.884"",""0.925""]","[1,0,1,1]",0,4,4,4,1,0,1,,,0,FALSE,,,,,,,,,,,,,,,,,,,,,,,,,,,,,,,
,61648e4f0d2212047ab36b27,627c701e90162057fa095fcc,2022-05-12_04h26.01.231,classification_task,2021.2.3,Win32,59.99520038,627c6715c52fd12f31907bcf,,,,,,,,,,,,,,,,,,,,,,,l,1,0.3126,"[""0.148"",""0.195"",""0.653"",""0.048""]","[1,1,1,0]",0,5,5,5,1,1,1,,,0,FALSE,,,,,,,,,,,,,,,,,,,,,,,,,,,,,,,
,61648e4f0d2212047ab36b27,627c701e90162057fa095fcc,2022-05-12_04h26.01.231,classification_task,2021.2.3,Win32,59.99520038,627c6715c52fd12f31907bcf,,,,,,,,,,,,,,,,,,,,,,,l,1,2.4824,"[""0.746"",""0.195"",""0.653"",""0.834""]","[0,1,1,1]",0,6,6,6,1,1,1,,,0,FALSE,,,,,,,,,,,,,,,,,,,,,,,,,,,,,,,
,61648e4f0d2212047ab36b27,627c701e90162057fa095fcc,2022-05-12_04h26.01.231,classification_task,2021.2.3,Win32,59.99520038,627c6715c52fd12f31907bcf,,,,,,,,,,,,,,,,,,,,,,,l,1,2.3724,"[""0.107"",""0.421"",""0.702"",""0.793""]","[1,1,0,1]",0,7,7,7,1,1,0,,,0,FALSE,,,,,,,,,,,,,,,,,,,,,,,,,,,,,,,
,61648e4f0d2212047ab36b27,627c701e90162057fa095fcc,2022-05-12_04h26.01.231,classification_task,2021.2.3,Win32,59.99520038,627c6715c52fd12f31907bcf,,,,,,,,,,,,,,,,,,,,,,,l,0,1.7325,"[""0.275"",""0.057"",""0.595"",""0.963""]","[1,0,1,1]",0,8,8,8,1,0,0,,,0,FALSE,,,,,,,,,,,,,,,,,,,,,,,,,,,,,,,
,61648e4f0d2212047ab36b27,627c701e90162057fa095fcc,2022-05-12_04h26.01.231,classification_task,2021.2.3,Win32,59.99520038,627c6715c52fd12f31907bcf,,,,,,,,,,,,,,,,,,,,,,,l,0,3.2769,"[""0.308"",""0.346"",""0.237"",""0.925""]","[1,1,0,1]",0,9,9,9,1,0,1,,,0,FALSE,,,,,,,,,,,,,,,,,,,,,,,,,,,,,,,
,61648e4f0d2212047ab36b27,627c701e90162057fa095fcc,2022-05-12_04h26.01.231,classification_task,2021.2.3,Win32,59.99520038,627c6715c52fd12f31907bcf,,,,,,,,,,,,,,,,,,,,,,,a,1,2.2964,"[""0.308"",""0.346"",""0.884"",""0.746""]","[1,1,1,0]",0,10,10,10,1,0,1,,,0,FALSE,,,,,,,,,,,,,,,,,,,,,,,,,,,,,,,
,61648e4f0d2212047ab36b27,627c701e90162057fa095fcc,2022-05-12_04h26.01.231,classification_task,2021.2.3,Win32,59.99520038,627c6715c52fd12f31907bcf,,,,,,,,,,,,,,,,,,,,,,,l,1,2.1135,"[""0.148"",""0.195"",""0.036"",""0.834""]","[1,1,0,1]",0,11,11,11,1,1,1,,,0,FALSE,,,,,,,,,,,,,,,,,,,,,,,,,,,,,,,
,61648e4f0d2212047ab36b27,627c701e90162057fa095fcc,2022-05-12_04h26.01.231,classification_task,2021.2.3,Win32,59.99520038,627c6715c52fd12f31907bcf,,,,,,,,,,,,,,,,,,,,,,,l,1,2.984,"[""0.148"",""0.718"",""0.653"",""0.834""]","[1,0,1,1]",0,12,12,12,1,1,1,,,0,FALSE,,,,,,,,,,,,,,,,,,,,,,,,,,,,,,,
,61648e4f0d2212047ab36b27,627c701e90162057fa095fcc,2022-05-12_04h26.01.231,classification_task,2021.2.3,Win32,59.99520038,627c6715c52fd12f31907bcf,,,,,,,,,,,,,,,,,,,,,,,a,1,3.4616,"[""0.691"",""0.346"",""0.884"",""0.925""]","[0,1,1,1]",0,13,13,13,1,0,1,,,0,FALSE,,,,,,,,,,,,,,,,,,,,,,,,,,,,,,,
,61648e4f0d2212047ab36b27,627c701e90162057fa095fcc,2022-05-12_04h26.01.231,classification_task,2021.2.3,Win32,59.99520038,627c6715c52fd12f31907bcf,,,,,,,,,,,,,,,,,,,,,,,a,1,3.3712,"[""0.275"",""0.557"",""0.595"",""0.691""]","[1,1,1,0]",0,14,14,14,1,0,0,,,0,FALSE,,,,,,,,,,,,,,,,,,,,,,,,,,,,,,,
,61648e4f0d2212047ab36b27,627c701e90162057fa095fcc,2022-05-12_04h26.01.231,classification_task,2021.2.3,Win32,59.99520038,627c6715c52fd12f31907bcf,,,,,,,,,,,,,,,,,,,,,,,l,1,1.9593,"[""0.107"",""0.421"",""0.494"",""0.039""]","[1,1,1,0]",0,15,15,15,1,1,0,,,0,FALSE,,,,,,,,,,,,,,,,,,,,,,,,,,,,,,,
,61648e4f0d2212047ab36b27,627c701e90162057fa095fcc,2022-05-12_04h26.01.231,classification_task,2021.2.3,Win32,59.99520038,627c6715c52fd12f31907bcf,,,,,,,,,,,,,,,,,,,,,,,l,1,3.5466,"[""0.039"",""0.195"",""0.653"",""0.834""]","[0,1,1,1]",0,16,16,16,1,1,1,,,0,FALSE,,,,,,,,,,,,,,,,,,,,,,,,,,,,,,,
,61648e4f0d2212047ab36b27,627c701e90162057fa095fcc,2022-05-12_04h26.01.231,classification_task,2021.2.3,Win32,59.99520038,627c6715c52fd12f31907bcf,,,,,,,,,,,,,,,,,,,,,,,l,1,3.2616,"[""0.148"",""0.195"",""0.702"",""0.834""]","[1,1,0,1]",0,17,17,17,1,1,1,,,0,FALSE,,,,,,,,,,,,,,,,,,,,,,,,,,,,,,,
,61648e4f0d2212047ab36b27,627c701e90162057fa095fcc,2022-05-12_04h26.01.231,classification_task,2021.2.3,Win32,59.99520038,627c6715c52fd12f31907bcf,,,,,,,,,,,,,,,,,,,,,,,l,1,2.169,"[""0.148"",""0.746"",""0.653"",""0.834""]","[1,0,1,1]",0,18,18,18,1,1,1,,,0,FALSE,,,,,,,,,,,,,,,,,,,,,,,,,,,,,,,
,61648e4f0d2212047ab36b27,627c701e90162057fa095fcc,2022-05-12_04h26.01.231,classification_task,2021.2.3,Win32,59.99520038,627c6715c52fd12f31907bcf,,,,,,,,,,,,,,,,,,,,,,,l,1,3.3011,"[""0.148"",""0.195"",""0.653"",""0.048""]","[1,1,1,0]",0,19,19,19,1,1,1,,,0,FALSE,,,,,,,,,,,,,,,,,,,,,,,,,,,,,,,
,61648e4f0d2212047ab36b27,627c701e90162057fa095fcc,2022-05-12_04h26.01.231,classification_task,2021.2.3,Win32,59.99520038,627c6715c52fd12f31907bcf,,,,,,,,,,,,,,,,,,,,,,,l,1,2.5587,"[""0.107"",""0.421"",""0.039"",""0.793""]","[1,1,0,1]",0,20,20,20,1,1,0,,,0,FALSE,,,,,,,,,,,,,,,,,,,,,,,,,,,,,,,
,61648e4f0d2212047ab36b27,627c701e90162057fa095fcc,2022-05-12_04h26.01.231,classification_task,2021.2.3,Win32,59.99520038,627c6715c52fd12f31907bcf,,,,,,,,,,,,,,,,,,,,,,,l,1,4.6464,"[""0.734"",""0.421"",""0.494"",""0.793""]","[0,1,1,1]",0,21,21,21,1,1,0,,,0,FALSE,,,,,,,,,,,,,,,,,,,,,,,,,,,,,,,
,61648e4f0d2212047ab36b27,627c701e90162057fa095fcc,2022-05-12_04h26.01.231,classification_task,2021.2.3,Win32,59.99520038,627c6715c52fd12f31907bcf,,,,,,,,,,,,,,,,,,,,,,,a,1,2.8283,"[""0.275"",""0.557"",""0.595"",""0.734""]","[1,1,1,0]",0,22,22,22,1,0,0,,,0,FALSE,,,,,,,,,,,,,,,,,,,,,,,,,,,,,,,
,61648e4f0d2212047ab36b27,627c701e90162057fa095fcc,2022-05-12_04h26.01.231,classification_task,2021.2.3,Win32,59.99520038,627c6715c52fd12f31907bcf,,,,,,,,,,,,,,,,,,,,,,,a,1,3.9824,"[""0.691"",""0.557"",""0.595"",""0.963""]","[0,1,1,1]",0,23,23,23,1,0,0,,,0,FALSE,,,,,,,,,,,,,,,,,,,,,,,,,,,,,,,
,61648e4f0d2212047ab36b27,627c701e90162057fa095fcc,2022-05-12_04h26.01.231,classification_task,2021.2.3,Win32,59.99520038,627c6715c52fd12f31907bcf,,,,,,,,,,,,,,,,,,,,,,,l,1,2.6945,"[""0.107"",""0.421"",""0.494"",""0.036""]","[1,1,1,0]",0,24,24,24,1,1,0,,,0,FALSE,,,,,,,,,,,,,,,,,,,,,,,,,,,,,,,
,61648e4f0d2212047ab36b27,627c701e90162057fa095fcc,2022-05-12_04h26.01.231,classification_task,2021.2.3,Win32,59.99520038,627c6715c52fd12f31907bcf,,,,,,,,,,,,,,,,,,,,,,,a,1,3.1729,"[""0.308"",""0.346"",""0.884"",""0.746""]","[1,1,1,0]",0,25,25,25,1,0,1,,,0,FALSE,,,,,,,,,,,,,,,,,,,,,,,,,,,,,,,
,61648e4f0d2212047ab36b27,627c701e90162057fa095fcc,2022-05-12_04h26.01.231,classification_task,2021.2.3,Win32,59.99520038,627c6715c52fd12f31907bcf,,,,,,,,,,,,,,,,,,,,,,,l,1,1.9932,"[""0.107"",""0.048"",""0.494"",""0.793""]","[1,0,1,1]",0,26,26,26,1,1,0,,,0,FALSE,,,,,,,,,,,,,,,,,,,,,,,,,,,,,,,
,61648e4f0d2212047ab36b27,627c701e90162057fa095fcc,2022-05-12_04h26.01.231,classification_task,2021.2.3,Win32,59.99520038,627c6715c52fd12f31907bcf,,,,,,,,,,,,,,,,,,,,,,,a,1,4.4775,"[""0.308"",""0.237"",""0.884"",""0.925""]","[1,0,1,1]",0,27,27,27,1,0,1,,,0,FALSE,,,,,,,,,,,,,,,,,,,,,,,,,,,,,,,
,61648e4f0d2212047ab36b27,627c701e90162057fa095fcc,2022-05-12_04h26.01.231,classification_task,2021.2.3,Win32,59.99520038,627c6715c52fd12f31907bcf,,,,,,,,,,,,,,,,,,,,,,,l,0,1.8788,"[""0.275"",""0.036"",""0.595"",""0.963""]","[1,0,1,1]",0,28,28,28,1,0,0,,,0,FALSE,,,,,,,,,,,,,,,,,,,,,,,,,,,,,,,
,61648e4f0d2212047ab36b27,627c701e90162057fa095fcc,2022-05-12_04h26.01.231,classification_task,2021.2.3,Win32,59.99520038,627c6715c52fd12f31907bcf,,,,,,,,,,,,,,,,,,,,,,,l,0,3.8757,"[""0.691"",""0.346"",""0.884"",""0.925""]","[0,1,1,1]",0,29,29,29,1,0,1,,,0,FALSE,,,,,,,,,,,,,,,,,,,,,,,,,,,,,,,
,61648e4f0d2212047ab36b27,627c701e90162057fa095fcc,2022-05-12_04h26.01.231,classification_task,2021.2.3,Win32,59.99520038,627c6715c52fd12f31907bcf,,,,,,,,,,,,,,,,,,,,,,,a,1,2.4445,"[""0.308"",""0.346"",""0.718"",""0.925""]","[1,1,0,1]",0,30,30,30,1,0,1,,,0,FALSE,,,,,,,,,,,,,,,,,,,,,,,,,,,,,,,
,61648e4f0d2212047ab36b27,627c701e90162057fa095fcc,2022-05-12_04h26.01.231,classification_task,2021.2.3,Win32,59.99520038,627c6715c52fd12f31907bcf,,,,,,,,,,,,,,,,,,,,,,,a,1,2.1609,"[""0.275"",""0.557"",""0.691"",""0.963""]","[1,1,0,1]",0,31,31,31,1,0,0,,,0,FALSE,,,,,,,,,,,,,,,,,,,,,,,,,,,,,,,
,61648e4f0d2212047ab36b27,627c701e90162057fa095fcc,2022-05-12_04h26.01.231,classification_task,2021.2.3,Win32,59.99520038,627c6715c52fd12f31907bcf,,,,,,,,,,,,,,,,,,,,,,,a,1,5.2264,"[""0.308"",""0.346"",""0.884"",""0.048""]","[1,1,1,0]",0,32,32,32,1,0,1,,,0,FALSE,,,,,,,,,,,,,,,,,,,,,,,,,,,,,,,
,61648e4f0d2212047ab36b27,627c701e90162057fa095fcc,2022-05-12_04h26.01.231,classification_task,2021.2.3,Win32,59.99520038,627c6715c52fd12f31907bcf,,,,,,,,,,,,,,,,,,,,,,,a,1,2.1793,"[""0.057"",""0.346"",""0.884"",""0.925""]","[0,1,1,1]",0,33,33,33,1,0,1,,,0,FALSE,,,,,,,,,,,,,,,,,,,,,,,,,,,,,,,
,61648e4f0d2212047ab36b27,627c701e90162057fa095fcc,2022-05-12_04h26.01.231,classification_task,2021.2.3,Win32,59.99520038,627c6715c52fd12f31907bcf,,,,,,,,,,,,,,,,,,,,,,,a,1,2.7806,"[""0.275"",""0.557"",""0.048"",""0.963""]","[1,1,0,1]",0,34,34,34,1,0,0,,,0,FALSE,,,,,,,,,,,,,,,,,,,,,,,,,,,,,,,
,61648e4f0d2212047ab36b27,627c701e90162057fa095fcc,2022-05-12_04h26.01.231,classification_task,2021.2.3,Win32,59.99520038,627c6715c52fd12f31907bcf,,,,,,,,,,,,,,,,,,,,,,,a,1,1.1361,"[""0.275"",""0.557"",""0.595"",""0.031""]","[1,1,1,0]",0,35,35,35,1,0,0,,,0,FALSE,,,,,,,,,,,,,,,,,,,,,,,,,,,,,,,
,61648e4f0d2212047ab36b27,627c701e90162057fa095fcc,2022-05-12_04h26.01.231,classification_task,2021.2.3,Win32,59.99520038,627c6715c52fd12f31907bcf,,,,,,,,,,,,,,,,,,,,,,,a,0,1.2448,"[""0.039"",""0.195"",""0.653"",""0.834""]","[0,1,1,1]",0,36,36,36,1,1,1,,,0,FALSE,,,,,,,,,,,,,,,,,,,,,,,,,,,,,,,
,61648e4f0d2212047ab36b27,627c701e90162057fa095fcc,2022-05-12_04h26.01.231,classification_task,2021.2.3,Win32,59.99520038,627c6715c52fd12f31907bcf,,,,,,,,,,,,,,,,,,,,,,,l,0,1.283,"[""0.275"",""0.702"",""0.595"",""0.963""]","[1,0,1,1]",0,37,37,37,1,0,0,,,0,FALSE,,,,,,,,,,,,,,,,,,,,,,,,,,,,,,,
,61648e4f0d2212047ab36b27,627c701e90162057fa095fcc,2022-05-12_04h26.01.231,classification_task,2021.2.3,Win32,59.99520038,627c6715c52fd12f31907bcf,,,,,,,,,,,,,,,,,,,,,,,a,0,0.7327,"[""0.107"",""0.421"",""0.494"",""0.036""]","[1,1,1,0]",0,38,38,38,1,1,0,,,0,FALSE,,,,,,,,,,,,,,,,,,,,,,,,,,,,,,,
,61648e4f0d2212047ab36b27,627c701e90162057fa095fcc,2022-05-12_04h26.01.231,classification_task,2021.2.3,Win32,59.99520038,627c6715c52fd12f31907bcf,,,,,,,,,,,,,,,,,,,,,,,l,1,1.8324,"[""0.048"",""0.421"",""0.494"",""0.793""]","[0,1,1,1]",0,39,39,39,1,1,0,,,0,FALSE,,,,,,,,,,,,,,,,,,,,,,,,,,,,,,,
,61648e4f0d2212047ab36b27,627c701e90162057fa095fcc,2022-05-12_04h26.01.231,classification_task,2021.2.3,Win32,59.99520038,627c6715c52fd12f31907bcf,,,,,,,,,,,,,,,,,,,,,,,l,1,2.867,"[""0.148"",""0.734"",""0.653"",""0.834""]","[1,0,1,1]",0,40,40,40,1,1,1,,,0,FALSE,,,,,,,,,,,,,,,,,,,,,,,,,,,,,,,
,61648e4f0d2212047ab36b27,627c701e90162057fa095fcc,2022-05-12_04h26.01.231,classification_task,2021.2.3,Win32,59.99520038,627c6715c52fd12f31907bcf,,,,,,,,,,,,,,,,,,,,,,,a,1,1.1975,"[""0.048"",""0.557"",""0.595"",""0.963""]","[0,1,1,1]",0,41,41,41,1,0,0,,,0,FALSE,,,,,,,,,,,,,,,,,,,,,,,,,,,,,,,
,61648e4f0d2212047ab36b27,627c701e90162057fa095fcc,2022-05-12_04h26.01.231,classification_task,2021.2.3,Win32,59.99520038,627c6715c52fd12f31907bcf,,,,,,,,,,,,,,,,,,,,,,,a,1,0.8154,"[""0.308"",""0.346"",""0.044"",""0.925""]","[1,1,0,1]",0,42,42,42,1,0,1,,,0,FALSE,,,,,,,,,,,,,,,,,,,,,,,,,,,,,,,
,61648e4f0d2212047ab36b27,627c701e90162057fa095fcc,2022-05-12_04h26.01.231,classification_task,2021.2.3,Win32,59.99520038,627c6715c52fd12f31907bcf,,,,,,,,,,,,,,,,,,,,,,,a,0,0.5976,"[""0.107"",""0.048"",""0.494"",""0.793""]","[1,0,1,1]",0,43,43,43,1,1,0,,,0,FALSE,,,,,,,,,,,,,,,,,,,,,,,,,,,,,,,
,61648e4f0d2212047ab36b27,627c701e90162057fa095fcc,2022-05-12_04h26.01.231,classification_task,2021.2.3,Win32,59.99520038,627c6715c52fd12f31907bcf,,,,,,,,,,,,,,,,,,,,,,,l,1,0.6808,"[""0.148"",""0.195"",""0.734"",""0.834""]","[1,1,0,1]",0,44,44,44,1,1,1,,,0,FALSE,,,,,,,,,,,,,,,,,,,,,,,,,,,,,,,
,61648e4f0d2212047ab36b27,627c701e90162057fa095fcc,2022-05-12_04h26.01.231,classification_task,2021.2.3,Win32,59.99520038,627c6715c52fd12f31907bcf,,,,,,,,,,,,,,,,,,,,,,,l,1,1.5326,"[""0.107"",""0.421"",""0.031"",""0.793""]","[1,1,0,1]",0,45,45,45,1,1,0,,,0,FALSE,,,,,,,,,,,,,,,,,,,,,,,,,,,,,,,
,61648e4f0d2212047ab36b27,627c701e90162057fa095fcc,2022-05-12_04h26.01.231,classification_task,2021.2.3,Win32,59.99520038,627c6715c52fd12f31907bcf,,,,,,,,,,,,,,,,,,,,,,,l,1,0.8329,"[""0.148"",""0.195"",""0.653"",""0.720""]","[1,1,1,0]",0,46,46,46,1,1,1,,,0,FALSE,,,,,,,,,,,,,,,,,,,,,,,,,,,,,,,
,61648e4f0d2212047ab36b27,627c701e90162057fa095fcc,2022-05-12_04h26.01.231,classification_task,2021.2.3,Win32,59.99520038,627c6715c52fd12f31907bcf,,,,,,,,,,,,,,,,,,,,,,,a,1,0.7491,"[""0.308"",""0.746"",""0.884"",""0.925""]","[1,0,1,1]",0,47,47,47,1,0,1,,,0,FALSE,,,,,,,,,,,,,,,,,,,,,,,,,,,,,,,
,61648e4f0d2212047ab36b27,627c701e90162057fa095fcc,2022-05-12_04h26.01.231,classification_task,2021.2.3,Win32,59.99520038,627c6715c52fd12f31907bcf,,,,,,,,,,,,,,,,,,,,,,,a,0,1.133,"[""0.107"",""0.421"",""0.494"",""0.237""]","[1,1,1,0]",0,48,48,48,1,1,0,,,0,FALSE,,,,,,,,,,,,,,,,,,,,,,,,,,,,,,,
,61648e4f0d2212047ab36b27,627c701e90162057fa095fcc,2022-05-12_04h26.01.231,classification_task,2021.2.3,Win32,59.99520038,627c6715c52fd12f31907bcf,,,,,,,,,,,,,,,,,,,,,,,l,0,0.6824,"[""0.275"",""0.039"",""0.595"",""0.963""]","[1,0,1,1]",0,49,49,49,1,0,0,,,0,FALSE,,,,,,,,,,,,,,,,,,,,,,,,,,,,,,,
,61648e4f0d2212047ab36b27,627c701e90162057fa095fcc,2022-05-12_04h26.01.231,classification_task,2021.2.3,Win32,59.99520038,627c6715c52fd12f31907bcf,,,,,,,,,,,,,,,,,,,,,,,a,0,1.1334,"[""0.107"",""0.691"",""0.494"",""0.793""]","[1,0,1,1]",0,50,50,50,1,1,0,,,0,FALSE,,,,,,,,,,,,,,,,,,,,,,,,,,,,,,,
,61648e4f0d2212047ab36b27,627c701e90162057fa095fcc,2022-05-12_04h26.01.231,classification_task,2021.2.3,Win32,59.99520038,627c6715c52fd12f31907bcf,,,,,,,,,,,,,,,,,,,,,,,l,1,0.9501,"[""0.148"",""0.195"",""0.720"",""0.834""]","[1,1,0,1]",0,51,51,51,1,1,1,,,0,FALSE,,,,,,,,,,,,,,,,,,,,,,,,,,,,,,,
,61648e4f0d2212047ab36b27,627c701e90162057fa095fcc,2022-05-12_04h26.01.231,classification_task,2021.2.3,Win32,59.99520038,627c6715c52fd12f31907bcf,,,,,,,,,,,,,,,,,,,,,,,l,1,1.0341,"[""0.691"",""0.421"",""0.494"",""0.793""]","[0,1,1,1]",0,52,52,52,1,1,0,,,0,FALSE,,,,,,,,,,,,,,,,,,,,,,,,,,,,,,,
,61648e4f0d2212047ab36b27,627c701e90162057fa095fcc,2022-05-12_04h26.01.231,classification_task,2021.2.3,Win32,59.99520038,627c6715c52fd12f31907bcf,,,,,,,,,,,,,,,,,,,,,,,l,0,1.2974,"[""0.036"",""0.346"",""0.884"",""0.925""]","[0,1,1,1]",0,53,53,53,1,0,1,,,0,FALSE,,,,,,,,,,,,,,,,,,,,,,,,,,,,,,,
,61648e4f0d2212047ab36b27,627c701e90162057fa095fcc,2022-05-12_04h26.01.231,classification_task,2021.2.3,Win32,59.99520038,627c6715c52fd12f31907bcf,,,,,,,,,,,,,,,,,,,,,,,a,0,1.4657,"[""0.148"",""0.702"",""0.653"",""0.834""]","[1,0,1,1]",0,54,54,54,1,1,1,,,0,FALSE,,,,,,,,,,,,,,,,,,,,,,,,,,,,,,,
,61648e4f0d2212047ab36b27,627c701e90162057fa095fcc,2022-05-12_04h26.01.231,classification_task,2021.2.3,Win32,59.99520038,627c6715c52fd12f31907bcf,,,,,,,,,,,,,,,,,,,,,,,l,1,1.2161,"[""0.148"",""0.195"",""0.653"",""0.702""]","[1,1,1,0]",0,55,55,55,1,1,1,,,0,FALSE,,,,,,,,,,,,,,,,,,,,,,,,,,,,,,,
,61648e4f0d2212047ab36b27,627c701e90162057fa095fcc,2022-05-12_04h26.01.231,classification_task,2021.2.3,Win32,59.99520038,627c6715c52fd12f31907bcf,,,,,,,,,,,,,,,,,,,,,,,a,1,0.7839,"[""0.308"",""0.048"",""0.884"",""0.925""]","[1,0,1,1]",0,56,56,56,1,0,1,,,0,FALSE,,,,,,,,,,,,,,,,,,,,,,,,,,,,,,,
,61648e4f0d2212047ab36b27,627c701e90162057fa095fcc,2022-05-12_04h26.01.231,classification_task,2021.2.3,Win32,59.99520038,627c6715c52fd12f31907bcf,,,,,,,,,,,,,,,,,,,,,,,l,0,0.8338,"[""0.308"",""0.346"",""0.746"",""0.925""]","[1,1,0,1]",0,57,57,57,1,0,1,,,0,FALSE,,,,,,,,,,,,,,,,,,,,,,,,,,,,,,,
,61648e4f0d2212047ab36b27,627c701e90162057fa095fcc,2022-05-12_04h26.01.231,classification_task,2021.2.3,Win32,59.99520038,627c6715c52fd12f31907bcf,,,,,,,,,,,,,,,,,,,,,,,l,0,1.1497,"[""0.275"",""0.557"",""0.595"",""0.031""]","[1,1,1,0]",0,58,58,58,1,0,0,,,0,FALSE,,,,,,,,,,,,,,,,,,,,,,,,,,,,,,,
,61648e4f0d2212047ab36b27,627c701e90162057fa095fcc,2022-05-12_04h26.01.231,classification_task,2021.2.3,Win32,59.99520038,627c6715c52fd12f31907bcf,,,,,,,,,,,,,,,,,,,,,,,l,0,0.6833,"[""0.275"",""0.557"",""0.734"",""0.963""]","[1,1,0,1]",0,59,59,59,1,0,0,,,0,FALSE,,,,,,,,,,,,,,,,,,,,,,,,,,,,,,,
,61648e4f0d2212047ab36b27,627c701e90162057fa095fcc,2022-05-12_04h26.01.231,classification_task,2021.2.3,Win32,59.99520038,627c6715c52fd12f31907bcf,,,,,,,,,,,,,,,,,,,,,,,l,0,0.6674,"[""0.308"",""0.346"",""0.884"",""0.241""]","[1,1,1,0]",0,60,60,60,1,0,1,,,0,FALSE,,,,,,,,,,,,,,,,,,,,,,,,,,,,,,,
,61648e4f0d2212047ab36b27,627c701e90162057fa095fcc,2022-05-12_04h26.01.231,classification_task,2021.2.3,Win32,59.99520038,627c6715c52fd12f31907bcf,,,,,,,,,,,,,,,,,,,,,,,a,1,0.7674,"[""0.036"",""0.557"",""0.595"",""0.963""]","[0,1,1,1]",0,61,61,61,1,0,0,,,0,FALSE,,,,,,,,,,,,,,,,,,,,,,,,,,,,,,,
,61648e4f0d2212047ab36b27,627c701e90162057fa095fcc,2022-05-12_04h26.01.231,classification_task,2021.2.3,Win32,59.99520038,627c6715c52fd12f31907bcf,,,,,,,,,,,,,,,,,,,,,,,a,0,0.8638,"[""0.031"",""0.195"",""0.653"",""0.834""]","[0,1,1,1]",0,62,62,62,1,1,1,,,0,FALSE,,,,,,,,,,,,,,,,,,,,,,,,,,,,,,,
,61648e4f0d2212047ab36b27,627c701e90162057fa095fcc,2022-05-12_04h26.01.231,classification_task,2021.2.3,Win32,59.99520038,627c6715c52fd12f31907bcf,,,,,,,,,,,,,,,,,,,,,,,a,0,0.5688,"[""0.107"",""0.421"",""0.057"",""0.793""]","[1,1,0,1]",0,63,63,63,1,1,0,,,0,FALSE,,,,,,,,,,,,,,,,,,,,,,,,,,,,,,,
,61648e4f0d2212047ab36b27,627c701e90162057fa095fcc,2022-05-12_04h26.01.231,classification_task,2021.2.3,Win32,59.99520038,627c6715c52fd12f31907bcf,,,,,,,,,,,,,,,,,,,,,,,,,,,,,,,,,,,,,,,0, ,,0,5.998952822,323.4936,0,0,0,0,1,2,1,,,,,,,,,,,,,,,,,,
,61648e4f0d2212047ab36b27,627c701e90162057fa095fcc,2022-05-12_04h26.01.231,classification_task,2021.2.3,Win32,59.99520038,627c6715c52fd12f31907bcf,,,,,,,,,,,,,,,,,,,,,,,,,,,,,,,,,,,,,,,1,  ,,0,7.549052028,325.0219,0,0,0,0,1,2,1,,,,,,,,,,,,,,,,,,
,61648e4f0d2212047ab36b27,627c701e90162057fa095fcc,2022-05-12_04h26.01.231,classification_task,2021.2.3,Win32,59.99520038,627c6715c52fd12f31907bcf,,,,,,,,,,,,,,,,,,,,,,,,,,,,,,,,,,,,,,,2,  ,,0,9.305831129,326.5207,0,0,0,0,1,2,1,,,,,,,,,,,,,,,,,,
,61648e4f0d2212047ab36b27,627c701e90162057fa095fcc,2022-05-12_04h26.01.231,classification_task,2021.2.3,Win32,59.99520038,627c6715c52fd12f31907bcf,,,,,,,,,,,,,,,,,,,,,,,,,,,,,,,,,,,,,,,,,,,,,0,0,0,0,1,,1,,,,,,,,,,,,,,,,,,
,61648e4f0d2212047ab36b27,627c701e90162057fa095fcc,2022-05-12_04h26.01.231,classification_task,2021.2.3,Win32,59.99520038,627c6715c52fd12f31907bcf,,,,,,,,,,,,,,,,,,,,,space,16.4344,l,1,2.3269,"[""0.734"",""0.421"",""0.494"",""0.793""]","[0,1,1,1]",0,0,0,0,1,1,0,,,0,FALSE,,,,,,,,,,,,,,,,,,,,,,,,,,,,,,,
,61648e4f0d2212047ab36b27,627c701e90162057fa095fcc,2022-05-12_04h26.01.231,classification_task,2021.2.3,Win32,59.99520038,627c6715c52fd12f31907bcf,,,,,,,,,,,,,,,,,,,,,,,a,0,1.0093,"[""0.241"",""0.195"",""0.653"",""0.834""]","[0,1,1,1]",0,1,1,1,1,1,1,,,0,FALSE,,,,,,,,,,,,,,,,,,,,,,,,,,,,,,,
,61648e4f0d2212047ab36b27,627c701e90162057fa095fcc,2022-05-12_04h26.01.231,classification_task,2021.2.3,Win32,59.99520038,627c6715c52fd12f31907bcf,,,,,,,,,,,,,,,,,,,,,,,a,0,1.2767,"[""0.107"",""0.044"",""0.494"",""0.793""]","[1,0,1,1]",0,2,2,2,1,1,0,,,0,FALSE,,,,,,,,,,,,,,,,,,,,,,,,,,,,,,,
,61648e4f0d2212047ab36b27,627c701e90162057fa095fcc,2022-05-12_04h26.01.231,classification_task,2021.2.3,Win32,59.99520038,627c6715c52fd12f31907bcf,,,,,,,,,,,,,,,,,,,,,,,l,0,0.7422,"[""0.308"",""0.346"",""0.039"",""0.925""]","[1,1,0,1]",0,3,3,3,1,0,1,,,0,FALSE,,,,,,,,,,,,,,,,,,,,,,,,,,,,,,,
,61648e4f0d2212047ab36b27,627c701e90162057fa095fcc,2022-05-12_04h26.01.231,classification_task,2021.2.3,Win32,59.99520038,627c6715c52fd12f31907bcf,,,,,,,,,,,,,,,,,,,,,,,a,0,0.8298,"[""0.148"",""0.195"",""0.653"",""0.746""]","[1,1,1,0]",0,4,4,4,1,1,1,,,0,FALSE,,,,,,,,,,,,,,,,,,,,,,,,,,,,,,,
,61648e4f0d2212047ab36b27,627c701e90162057fa095fcc,2022-05-12_04h26.01.231,classification_task,2021.2.3,Win32,59.99520038,627c6715c52fd12f31907bcf,,,,,,,,,,,,,,,,,,,,,,,l,0,1.9244,"[""0.241"",""0.557"",""0.595"",""0.963""]","[0,1,1,1]",0,5,5,5,1,0,0,,,0,FALSE,,,,,,,,,,,,,,,,,,,,,,,,,,,,,,,
,61648e4f0d2212047ab36b27,627c701e90162057fa095fcc,2022-05-12_04h26.01.231,classification_task,2021.2.3,Win32,59.99520038,627c6715c52fd12f31907bcf,,,,,,,,,,,,,,,,,,,,,,,a,1,0.8739,"[""0.275"",""0.557"",""0.595"",""0.044""]","[1,1,1,0]",0,6,6,6,1,0,0,,,0,FALSE,,,,,,,,,,,,,,,,,,,,,,,,,,,,,,,
,61648e4f0d2212047ab36b27,627c701e90162057fa095fcc,2022-05-12_04h26.01.231,classification_task,2021.2.3,Win32,59.99520038,627c6715c52fd12f31907bcf,,,,,,,,,,,,,,,,,,,,,,,l,1,1.1208,"[""0.107"",""0.421"",""0.241"",""0.793""]","[1,1,0,1]",0,7,7,7,1,1,0,,,0,FALSE,,,,,,,,,,,,,,,,,,,,,,,,,,,,,,,
,61648e4f0d2212047ab36b27,627c701e90162057fa095fcc,2022-05-12_04h26.01.231,classification_task,2021.2.3,Win32,59.99520038,627c6715c52fd12f31907bcf,,,,,,,,,,,,,,,,,,,,,,,a,1,1.0106,"[""0.308"",""0.346"",""0.884"",""0.039""]","[1,1,1,0]",0,8,8,8,1,0,1,,,0,FALSE,,,,,,,,,,,,,,,,,,,,,,,,,,,,,,,
,61648e4f0d2212047ab36b27,627c701e90162057fa095fcc,2022-05-12_04h26.01.231,classification_task,2021.2.3,Win32,59.99520038,627c6715c52fd12f31907bcf,,,,,,,,,,,,,,,,,,,,,,,a,1,1.2319,"[""0.275"",""0.557"",""0.036"",""0.963""]","[1,1,0,1]",0,9,9,9,1,0,0,,,0,FALSE,,,,,,,,,,,,,,,,,,,,,,,,,,,,,,,
,61648e4f0d2212047ab36b27,627c701e90162057fa095fcc,2022-05-12_04h26.01.231,classification_task,2021.2.3,Win32,59.99520038,627c6715c52fd12f31907bcf,,,,,,,,,,,,,,,,,,,,,,,a,1,1.2692,"[""0.308"",""0.720"",""0.884"",""0.925""]","[1,0,1,1]",0,10,10,10,1,0,1,,,0,FALSE,,,,,,,,,,,,,,,,,,,,,,,,,,,,,,,
,61648e4f0d2212047ab36b27,627c701e90162057fa095fcc,2022-05-12_04h26.01.231,classification_task,2021.2.3,Win32,59.99520038,627c6715c52fd12f31907bcf,,,,,,,,,,,,,,,,,,,,,,,a,1,1.0612,"[""0.275"",""0.237"",""0.595"",""0.963""]","[1,0,1,1]",0,11,11,11,1,0,0,,,0,FALSE,,,,,,,,,,,,,,,,,,,,,,,,,,,,,,,
,61648e4f0d2212047ab36b27,627c701e90162057fa095fcc,2022-05-12_04h26.01.231,classification_task,2021.2.3,Win32,59.99520038,627c6715c52fd12f31907bcf,,,,,,,,,,,,,,,,,,,,,,,a,0,1.023,"[""0.148"",""0.195"",""0.734"",""0.834""]","[1,1,0,1]",0,12,12,12,1,1,1,,,0,FALSE,,,,,,,,,,,,,,,,,,,,,,,,,,,,,,,
,61648e4f0d2212047ab36b27,627c701e90162057fa095fcc,2022-05-12_04h26.01.231,classification_task,2021.2.3,Win32,59.99520038,627c6715c52fd12f31907bcf,,,,,,,,,,,,,,,,,,,,,,,a,1,0.6924,"[""0.746"",""0.346"",""0.884"",""0.925""]","[0,1,1,1]",0,13,13,13,1,0,1,,,0,FALSE,,,,,,,,,,,,,,,,,,,,,,,,,,,,,,,
,61648e4f0d2212047ab36b27,627c701e90162057fa095fcc,2022-05-12_04h26.01.231,classification_task,2021.2.3,Win32,59.99520038,627c6715c52fd12f31907bcf,,,,,,,,,,,,,,,,,,,,,,,l,1,0.9594,"[""0.107"",""0.421"",""0.494"",""0.691""]","[1,1,1,0]",0,14,14,14,1,1,0,,,0,FALSE,,,,,,,,,,,,,,,,,,,,,,,,,,,,,,,
,61648e4f0d2212047ab36b27,627c701e90162057fa095fcc,2022-05-12_04h26.01.231,classification_task,2021.2.3,Win32,59.99520038,627c6715c52fd12f31907bcf,,,,,,,,,,,,,,,,,,,,,,,a,0,1.2281,"[""0.148"",""0.746"",""0.653"",""0.834""]","[1,0,1,1]",0,15,15,15,1,1,1,,,0,FALSE,,,,,,,,,,,,,,,,,,,,,,,,,,,,,,,
,61648e4f0d2212047ab36b27,627c701e90162057fa095fcc,2022-05-12_04h26.01.231,classification_task,2021.2.3,Win32,59.99520038,627c6715c52fd12f31907bcf,,,,,,,,,,,,,,,,,,,,,,,l,1,1.0755,"[""0.107"",""0.237"",""0.494"",""0.793""]","[1,0,1,1]",0,16,16,16,1,1,0,,,0,FALSE,,,,,,,,,,,,,,,,,,,,,,,,,,,,,,,
,61648e4f0d2212047ab36b27,627c701e90162057fa095fcc,2022-05-12_04h26.01.231,classification_task,2021.2.3,Win32,59.99520038,627c6715c52fd12f31907bcf,,,,,,,,,,,,,,,,,,,,,,,a,1,1.3974,"[""0.308"",""0.346"",""0.048"",""0.925""]","[1,1,0,1]",0,17,17,17,1,0,1,,,0,FALSE,,,,,,,,,,,,,,,,,,,,,,,,,,,,,,,
,61648e4f0d2212047ab36b27,627c701e90162057fa095fcc,2022-05-12_04h26.01.231,classification_task,2021.2.3,Win32,59.99520038,627c6715c52fd12f31907bcf,,,,,,,,,,,,,,,,,,,,,,,a,0,0.7936,"[""0.107"",""0.421"",""0.494"",""0.036""]","[1,1,1,0]",0,18,18,18,1,1,0,,,0,FALSE,,,,,,,,,,,,,,,,,,,,,,,,,,,,,,,
,61648e4f0d2212047ab36b27,627c701e90162057fa095fcc,2022-05-12_04h26.01.231,classification_task,2021.2.3,Win32,59.99520038,627c6715c52fd12f31907bcf,,,,,,,,,,,,,,,,,,,,,,,a,1,0.6852,"[""0.237"",""0.346"",""0.884"",""0.925""]","[0,1,1,1]",0,19,19,19,1,0,1,,,0,FALSE,,,,,,,,,,,,,,,,,,,,,,,,,,,,,,,
,61648e4f0d2212047ab36b27,627c701e90162057fa095fcc,2022-05-12_04h26.01.231,classification_task,2021.2.3,Win32,59.99520038,627c6715c52fd12f31907bcf,,,,,,,,,,,,,,,,,,,,,,,l,0,0.5322,"[""0.308"",""0.346"",""0.884"",""0.048""]","[1,1,1,0]",0,20,20,20,1,0,1,,,0,FALSE,,,,,,,,,,,,,,,,,,,,,,,,,,,,,,,
,61648e4f0d2212047ab36b27,627c701e90162057fa095fcc,2022-05-12_04h26.01.231,classification_task,2021.2.3,Win32,59.99520038,627c6715c52fd12f31907bcf,,,,,,,,,,,,,,,,,,,,,,,a,1,0.4237,"[""0.275"",""0.557"",""0.595"",""0.044""]","[1,1,1,0]",0,21,21,21,1,0,0,,,0,FALSE,,,,,,,,,,,,,,,,,,,,,,,,,,,,,,,
,61648e4f0d2212047ab36b27,627c701e90162057fa095fcc,2022-05-12_04h26.01.231,classification_task,2021.2.3,Win32,59.99520038,627c6715c52fd12f31907bcf,,,,,,,,,,,,,,,,,,,,,,,a,0,0.7725,"[""0.044"",""0.421"",""0.494"",""0.793""]","[0,1,1,1]",0,22,22,22,1,1,0,,,0,FALSE,,,,,,,,,,,,,,,,,,,,,,,,,,,,,,,
,61648e4f0d2212047ab36b27,627c701e90162057fa095fcc,2022-05-12_04h26.01.231,classification_task,2021.2.3,Win32,59.99520038,627c6715c52fd12f31907bcf,,,,,,,,,,,,,,,,,,,,,,,a,0,0.9556,"[""0.148"",""0.195"",""0.036"",""0.834""]","[1,1,0,1]",0,23,23,23,1,1,1,,,0,FALSE,,,,,,,,,,,,,,,,,,,,,,,,,,,,,,,
,61648e4f0d2212047ab36b27,627c701e90162057fa095fcc,2022-05-12_04h26.01.231,classification_task,2021.2.3,Win32,59.99520038,627c6715c52fd12f31907bcf,,,,,,,,,,,,,,,,,,,,,,,l,0,1.1138,"[""0.275"",""0.702"",""0.595"",""0.963""]","[1,0,1,1]",0,24,24,24,1,0,0,,,0,FALSE,,,,,,,,,,,,,,,,,,,,,,,,,,,,,,,
,61648e4f0d2212047ab36b27,627c701e90162057fa095fcc,2022-05-12_04h26.01.231,classification_task,2021.2.3,Win32,59.99520038,627c6715c52fd12f31907bcf,,,,,,,,,,,,,,,,,,,,,,,a,0,0.8273,"[""0.148"",""0.195"",""0.653"",""0.746""]","[1,1,1,0]",0,25,25,25,1,1,1,,,0,FALSE,,,,,,,,,,,,,,,,,,,,,,,,,,,,,,,
,61648e4f0d2212047ab36b27,627c701e90162057fa095fcc,2022-05-12_04h26.01.231,classification_task,2021.2.3,Win32,59.99520038,627c6715c52fd12f31907bcf,,,,,,,,,,,,,,,,,,,,,,,l,1,0.8364,"[""0.148"",""0.746"",""0.653"",""0.834""]","[1,0,1,1]",0,26,26,26,1,1,1,,,0,FALSE,,,,,,,,,,,,,,,,,,,,,,,,,,,,,,,
,61648e4f0d2212047ab36b27,627c701e90162057fa095fcc,2022-05-12_04h26.01.231,classification_task,2021.2.3,Win32,59.99520038,627c6715c52fd12f31907bcf,,,,,,,,,,,,,,,,,,,,,,,l,1,0.7526,"[""0.107"",""0.421"",""0.691"",""0.793""]","[1,1,0,1]",0,27,27,27,1,1,0,,,0,FALSE,,,,,,,,,,,,,,,,,,,,,,,,,,,,,,,
,61648e4f0d2212047ab36b27,627c701e90162057fa095fcc,2022-05-12_04h26.01.231,classification_task,2021.2.3,Win32,59.99520038,627c6715c52fd12f31907bcf,,,,,,,,,,,,,,,,,,,,,,,a,1,1.0211,"[""0.308"",""0.702"",""0.884"",""0.925""]","[1,0,1,1]",0,28,28,28,1,0,1,,,0,FALSE,,,,,,,,,,,,,,,,,,,,,,,,,,,,,,,
,61648e4f0d2212047ab36b27,627c701e90162057fa095fcc,2022-05-12_04h26.01.231,classification_task,2021.2.3,Win32,59.99520038,627c6715c52fd12f31907bcf,,,,,,,,,,,,,,,,,,,,,,,l,0,1.6897,"[""0.275"",""0.557"",""0.720"",""0.963""]","[1,1,0,1]",0,29,29,29,1,0,0,,,0,FALSE,,,,,,,,,,,,,,,,,,,,,,,,,,,,,,,
,61648e4f0d2212047ab36b27,627c701e90162057fa095fcc,2022-05-12_04h26.01.231,classification_task,2021.2.3,Win32,59.99520038,627c6715c52fd12f31907bcf,,,,,,,,,,,,,,,,,,,,,,,a,0,1.2016,"[""0.720"",""0.195"",""0.653"",""0.834""]","[0,1,1,1]",0,30,30,30,1,1,1,,,0,FALSE,,,,,,,,,,,,,,,,,,,,,,,,,,,,,,,
,61648e4f0d2212047ab36b27,627c701e90162057fa095fcc,2022-05-12_04h26.01.231,classification_task,2021.2.3,Win32,59.99520038,627c6715c52fd12f31907bcf,,,,,,,,,,,,,,,,,,,,,,,l,0,0.5728,"[""0.734"",""0.557"",""0.595"",""0.963""]","[0,1,1,1]",0,31,31,31,1,0,0,,,0,FALSE,,,,,,,,,,,,,,,,,,,,,,,,,,,,,,,
,61648e4f0d2212047ab36b27,627c701e90162057fa095fcc,2022-05-12_04h26.01.231,classification_task,2021.2.3,Win32,59.99520038,627c6715c52fd12f31907bcf,,,,,,,,,,,,,,,,,,,,,,,l,0,1.2726,"[""0.275"",""0.691"",""0.595"",""0.963""]","[1,0,1,1]",0,32,32,32,1,0,0,,,0,FALSE,,,,,,,,,,,,,,,,,,,,,,,,,,,,,,,
,61648e4f0d2212047ab36b27,627c701e90162057fa095fcc,2022-05-12_04h26.01.231,classification_task,2021.2.3,Win32,59.99520038,627c6715c52fd12f31907bcf,,,,,,,,,,,,,,,,,,,,,,,a,1,0.2962,"[""0.057"",""0.346"",""0.884"",""0.925""]","[0,1,1,1]",0,33,33,33,1,0,1,,,0,FALSE,,,,,,,,,,,,,,,,,,,,,,,,,,,,,,,
,61648e4f0d2212047ab36b27,627c701e90162057fa095fcc,2022-05-12_04h26.01.231,classification_task,2021.2.3,Win32,59.99520038,627c6715c52fd12f31907bcf,,,,,,,,,,,,,,,,,,,,,,,a,0,0.7559,"[""0.107"",""0.048"",""0.494"",""0.793""]","[1,0,1,1]",0,34,34,34,1,1,0,,,0,FALSE,,,,,,,,,,,,,,,,,,,,,,,,,,,,,,,
,61648e4f0d2212047ab36b27,627c701e90162057fa095fcc,2022-05-12_04h26.01.231,classification_task,2021.2.3,Win32,59.99520038,627c6715c52fd12f31907bcf,,,,,,,,,,,,,,,,,,,,,,,l,0,1.2064,"[""0.275"",""0.557"",""0.595"",""0.031""]","[1,1,1,0]",0,35,35,35,1,0,0,,,0,FALSE,,,,,,,,,,,,,,,,,,,,,,,,,,,,,,,
,61648e4f0d2212047ab36b27,627c701e90162057fa095fcc,2022-05-12_04h26.01.231,classification_task,2021.2.3,Win32,59.99520038,627c6715c52fd12f31907bcf,,,,,,,,,,,,,,,,,,,,,,,a,1,1.1334,"[""0.308"",""0.346"",""0.237"",""0.925""]","[1,1,0,1]",0,36,36,36,1,0,1,,,0,FALSE,,,,,,,,,,,,,,,,,,,,,,,,,,,,,,,
,61648e4f0d2212047ab36b27,627c701e90162057fa095fcc,2022-05-12_04h26.01.231,classification_task,2021.2.3,Win32,59.99520038,627c6715c52fd12f31907bcf,,,,,,,,,,,,,,,,,,,,,,,a,1,0.9191,"[""0.275"",""0.557"",""0.057"",""0.963""]","[1,1,0,1]",0,37,37,37,1,0,0,,,0,FALSE,,,,,,,,,,,,,,,,,,,,,,,,,,,,,,,
,61648e4f0d2212047ab36b27,627c701e90162057fa095fcc,2022-05-12_04h26.01.231,classification_task,2021.2.3,Win32,59.99520038,627c6715c52fd12f31907bcf,,,,,,,,,,,,,,,,,,,,,,,a,0,0.926,"[""0.148"",""0.195"",""0.653"",""0.718""]","[1,1,1,0]",0,38,38,38,1,1,1,,,0,FALSE,,,,,,,,,,,,,,,,,,,,,,,,,,,,,,,
,61648e4f0d2212047ab36b27,627c701e90162057fa095fcc,2022-05-12_04h26.01.231,classification_task,2021.2.3,Win32,59.99520038,627c6715c52fd12f31907bcf,,,,,,,,,,,,,,,,,,,,,,,l,1,2.1907,"[""0.148"",""0.195"",""0.039"",""0.834""]","[1,1,0,1]",0,39,39,39,1,1,1,,,0,FALSE,,,,,,,,,,,,,,,,,,,,,,,,,,,,,,,
,61648e4f0d2212047ab36b27,627c701e90162057fa095fcc,2022-05-12_04h26.01.231,classification_task,2021.2.3,Win32,59.99520038,627c6715c52fd12f31907bcf,,,,,,,,,,,,,,,,,,,,,,,l,0,1.1426,"[""0.039"",""0.557"",""0.595"",""0.963""]","[0,1,1,1]",0,40,40,40,1,0,0,,,0,FALSE,,,,,,,,,,,,,,,,,,,,,,,,,,,,,,,
,61648e4f0d2212047ab36b27,627c701e90162057fa095fcc,2022-05-12_04h26.01.231,classification_task,2021.2.3,Win32,59.99520038,627c6715c52fd12f31907bcf,,,,,,,,,,,,,,,,,,,,,,,l,1,0.9714,"[""0.746"",""0.421"",""0.494"",""0.793""]","[0,1,1,1]",0,41,41,41,1,1,0,,,0,FALSE,,,,,,,,,,,,,,,,,,,,,,,,,,,,,,,
,61648e4f0d2212047ab36b27,627c701e90162057fa095fcc,2022-05-12_04h26.01.231,classification_task,2021.2.3,Win32,59.99520038,627c6715c52fd12f31907bcf,,,,,,,,,,,,,,,,,,,,,,,a,1,0.8305,"[""0.308"",""0.734"",""0.884"",""0.925""]","[1,0,1,1]",0,42,42,42,1,0,1,,,0,FALSE,,,,,,,,,,,,,,,,,,,,,,,,,,,,,,,
,61648e4f0d2212047ab36b27,627c701e90162057fa095fcc,2022-05-12_04h26.01.231,classification_task,2021.2.3,Win32,59.99520038,627c6715c52fd12f31907bcf,,,,,,,,,,,,,,,,,,,,,,,a,0,0.7104,"[""0.107"",""0.421"",""0.494"",""0.691""]","[1,1,1,0]",0,43,43,43,1,1,0,,,0,FALSE,,,,,,,,,,,,,,,,,,,,,,,,,,,,,,,
,61648e4f0d2212047ab36b27,627c701e90162057fa095fcc,2022-05-12_04h26.01.231,classification_task,2021.2.3,Win32,59.99520038,627c6715c52fd12f31907bcf,,,,,,,,,,,,,,,,,,,,,,,l,0,0.8266,"[""0.308"",""0.346"",""0.884"",""0.048""]","[1,1,1,0]",0,44,44,44,1,0,1,,,0,FALSE,,,,,,,,,,,,,,,,,,,,,,,,,,,,,,,
,61648e4f0d2212047ab36b27,627c701e90162057fa095fcc,2022-05-12_04h26.01.231,classification_task,2021.2.3,Win32,59.99520038,627c6715c52fd12f31907bcf,,,,,,,,,,,,,,,,,,,,,,,a,0,0.5761,"[""0.746"",""0.195"",""0.653"",""0.834""]","[0,1,1,1]",0,45,45,45,1,1,1,,,0,FALSE,,,,,,,,,,,,,,,,,,,,,,,,,,,,,,,
,61648e4f0d2212047ab36b27,627c701e90162057fa095fcc,2022-05-12_04h26.01.231,classification_task,2021.2.3,Win32,59.99520038,627c6715c52fd12f31907bcf,,,,,,,,,,,,,,,,,,,,,,,l,1,0.4138,"[""0.107"",""0.421"",""0.691"",""0.793""]","[1,1,0,1]",0,46,46,46,1,1,0,,,0,FALSE,,,,,,,,,,,,,,,,,,,,,,,,,,,,,,,
,61648e4f0d2212047ab36b27,627c701e90162057fa095fcc,2022-05-12_04h26.01.231,classification_task,2021.2.3,Win32,59.99520038,627c6715c52fd12f31907bcf,,,,,,,,,,,,,,,,,,,,,,,l,1,2.3178,"[""0.148"",""0.718"",""0.653"",""0.834""]","[1,0,1,1]",0,47,47,47,1,1,1,,,0,FALSE,,,,,,,,,,,,,,,,,,,,,,,,,,,,,,,
,61648e4f0d2212047ab36b27,627c701e90162057fa095fcc,2022-05-12_04h26.01.231,classification_task,2021.2.3,Win32,59.99520038,627c6715c52fd12f31907bcf,,,,,,,,,,,,,,,,,,,,,,,a,0,1.1944,"[""0.107"",""0.702"",""0.494"",""0.793""]","[1,0,1,1]",0,48,48,48,1,1,0,,,0,FALSE,,,,,,,,,,,,,,,,,,,,,,,,,,,,,,,
,61648e4f0d2212047ab36b27,627c701e90162057fa095fcc,2022-05-12_04h26.01.231,classification_task,2021.2.3,Win32,59.99520038,627c6715c52fd12f31907bcf,,,,,,,,,,,,,,,,,,,,,,,a,0,1.1291,"[""0.107"",""0.421"",""0.494"",""0.048""]","[1,1,1,0]",0,49,49,49,1,1,0,,,0,FALSE,,,,,,,,,,,,,,,,,,,,,,,,,,,,,,,
,61648e4f0d2212047ab36b27,627c701e90162057fa095fcc,2022-05-12_04h26.01.231,classification_task,2021.2.3,Win32,59.99520038,627c6715c52fd12f31907bcf,,,,,,,,,,,,,,,,,,,,,,,l,1,0.5907,"[""0.148"",""0.195"",""0.653"",""0.044""]","[1,1,1,0]",0,50,50,50,1,1,1,,,0,FALSE,,,,,,,,,,,,,,,,,,,,,,,,,,,,,,,
,61648e4f0d2212047ab36b27,627c701e90162057fa095fcc,2022-05-12_04h26.01.231,classification_task,2021.2.3,Win32,59.99520038,627c6715c52fd12f31907bcf,,,,,,,,,,,,,,,,,,,,,,,l,0,1.0288,"[""0.308"",""0.039"",""0.884"",""0.925""]","[1,0,1,1]",0,51,51,51,1,0,1,,,0,FALSE,,,,,,,,,,,,,,,,,,,,,,,,,,,,,,,
,61648e4f0d2212047ab36b27,627c701e90162057fa095fcc,2022-05-12_04h26.01.231,classification_task,2021.2.3,Win32,59.99520038,627c6715c52fd12f31907bcf,,,,,,,,,,,,,,,,,,,,,,,a,1,0.5351,"[""0.308"",""0.346"",""0.036"",""0.925""]","[1,1,0,1]",0,52,52,52,1,0,1,,,0,FALSE,,,,,,,,,,,,,,,,,,,,,,,,,,,,,,,
,61648e4f0d2212047ab36b27,627c701e90162057fa095fcc,2022-05-12_04h26.01.231,classification_task,2021.2.3,Win32,59.99520038,627c6715c52fd12f31907bcf,,,,,,,,,,,,,,,,,,,,,,,l,0,1.1184,"[""0.275"",""0.557"",""0.595"",""0.036""]","[1,1,1,0]",0,53,53,53,1,0,0,,,0,FALSE,,,,,,,,,,,,,,,,,,,,,,,,,,,,,,,
,61648e4f0d2212047ab36b27,627c701e90162057fa095fcc,2022-05-12_04h26.01.231,classification_task,2021.2.3,Win32,59.99520038,627c6715c52fd12f31907bcf,,,,,,,,,,,,,,,,,,,,,,,l,0,0.8267,"[""0.734"",""0.346"",""0.884"",""0.925""]","[0,1,1,1]",0,54,54,54,1,0,1,,,0,FALSE,,,,,,,,,,,,,,,,,,,,,,,,,,,,,,,
,61648e4f0d2212047ab36b27,627c701e90162057fa095fcc,2022-05-12_04h26.01.231,classification_task,2021.2.3,Win32,59.99520038,627c6715c52fd12f31907bcf,,,,,,,,,,,,,,,,,,,,,,,l,1,0.6131,"[""0.702"",""0.195"",""0.653"",""0.834""]","[0,1,1,1]",0,55,55,55,1,1,1,,,0,FALSE,,,,,,,,,,,,,,,,,,,,,,,,,,,,,,,
,61648e4f0d2212047ab36b27,627c701e90162057fa095fcc,2022-05-12_04h26.01.231,classification_task,2021.2.3,Win32,59.99520038,627c6715c52fd12f31907bcf,,,,,,,,,,,,,,,,,,,,,,,a,1,0.9352,"[""0.275"",""0.036"",""0.595"",""0.963""]","[1,0,1,1]",0,56,56,56,1,0,0,,,0,FALSE,,,,,,,,,,,,,,,,,,,,,,,,,,,,,,,
,61648e4f0d2212047ab36b27,627c701e90162057fa095fcc,2022-05-12_04h26.01.231,classification_task,2021.2.3,Win32,59.99520038,627c6715c52fd12f31907bcf,,,,,,,,,,,,,,,,,,,,,,,a,0,1.0042,"[""0.107"",""0.421"",""0.057"",""0.793""]","[1,1,0,1]",0,57,57,57,1,1,0,,,0,FALSE,,,,,,,,,,,,,,,,,,,,,,,,,,,,,,,
,61648e4f0d2212047ab36b27,627c701e90162057fa095fcc,2022-05-12_04h26.01.231,classification_task,2021.2.3,Win32,59.99520038,627c6715c52fd12f31907bcf,,,,,,,,,,,,,,,,,,,,,,,l,0,0.6766,"[""0.308"",""0.346"",""0.884"",""0.048""]","[1,1,1,0]",0,58,58,58,1,0,1,,,0,FALSE,,,,,,,,,,,,,,,,,,,,,,,,,,,,,,,
,61648e4f0d2212047ab36b27,627c701e90162057fa095fcc,2022-05-12_04h26.01.231,classification_task,2021.2.3,Win32,59.99520038,627c6715c52fd12f31907bcf,,,,,,,,,,,,,,,,,,,,,,,a,0,0.8701,"[""0.148"",""0.195"",""0.044"",""0.834""]","[1,1,0,1]",0,59,59,59,1,1,1,,,0,FALSE,,,,,,,,,,,,,,,,,,,,,,,,,,,,,,,
,61648e4f0d2212047ab36b27,627c701e90162057fa095fcc,2022-05-12_04h26.01.231,classification_task,2021.2.3,Win32,59.99520038,627c6715c52fd12f31907bcf,,,,,,,,,,,,,,,,,,,,,,,l,1,0.5571,"[""0.039"",""0.421"",""0.494"",""0.793""]","[0,1,1,1]",0,60,60,60,1,1,0,,,0,FALSE,,,,,,,,,,,,,,,,,,,,,,,,,,,,,,,
,61648e4f0d2212047ab36b27,627c701e90162057fa095fcc,2022-05-12_04h26.01.231,classification_task,2021.2.3,Win32,59.99520038,627c6715c52fd12f31907bcf,,,,,,,,,,,,,,,,,,,,,,,l,1,2.5604,"[""0.148"",""0.241"",""0.653"",""0.834""]","[1,0,1,1]",0,61,61,61,1,1,1,,,0,FALSE,,,,,,,,,,,,,,,,,,,,,,,,,,,,,,,
,61648e4f0d2212047ab36b27,627c701e90162057fa095fcc,2022-05-12_04h26.01.231,classification_task,2021.2.3,Win32,59.99520038,627c6715c52fd12f31907bcf,,,,,,,,,,,,,,,,,,,,,,,a,1,1.0674,"[""0.275"",""0.557"",""0.057"",""0.963""]","[1,1,0,1]",0,62,62,62,1,0,0,,,0,FALSE,,,,,,,,,,,,,,,,,,,,,,,,,,,,,,,
,61648e4f0d2212047ab36b27,627c701e90162057fa095fcc,2022-05-12_04h26.01.231,classification_task,2021.2.3,Win32,59.99520038,627c6715c52fd12f31907bcf,,,,,,,,,,,,,,,,,,,,,,,l,0,0.7553,"[""0.720"",""0.557"",""0.595"",""0.963""]","[0,1,1,1]",0,63,63,63,1,0,0,,,0,FALSE,,,,,,,,,,,,,,,,,,,,,,,,,,,,,,,
,61648e4f0d2212047ab36b27,627c701e90162057fa095fcc,2022-05-12_04h26.01.231,classification_task,2021.2.3,Win32,59.99520038,627c6715c52fd12f31907bcf,,,,,,,,,,,,,,,,,,,,,,,,,,,,,,,,,,,,,,,0, ,,0,0.211915785,152.7586,0,1,1,1,1,2,2,,,,,,,,,,,,,,,,,,
,61648e4f0d2212047ab36b27,627c701e90162057fa095fcc,2022-05-12_04h26.01.231,classification_task,2021.2.3,Win32,59.99520038,627c6715c52fd12f31907bcf,,,,,,,,,,,,,,,,,,,,,,,,,,,,,,,,,,,,,,,1,  ,,0,9.925870811,154.7737,0,1,1,1,1,2,2,,,,,,,,,,,,,,,,,,
,61648e4f0d2212047ab36b27,627c701e90162057fa095fcc,2022-05-12_04h26.01.231,classification_task,2021.2.3,Win32,59.99520038,627c6715c52fd12f31907bcf,,,,,,,,,,,,,,,,,,,,,,,,,,,,,,,,,,,,,,,2,  ,,0,10,156.4241,0,1,1,1,1,2,2,,,,,,,,,,,,,,,,,,
,61648e4f0d2212047ab36b27,627c701e90162057fa095fcc,2022-05-12_04h26.01.231,classification_task,2021.2.3,Win32,59.99520038,627c6715c52fd12f31907bcf,,,,,,,,,,,,,,,,,,,,,,,,,,,,,,,,,,,,,,,,,,,,,0,1,1,1,1,,2,,,,,,,,,,,,,,,,,,
,61648e4f0d2212047ab36b27,627c701e90162057fa095fcc,2022-05-12_04h26.01.231,classification_task,2021.2.3,Win32,59.99520038,627c6715c52fd12f31907bcf,,,,,,,,,,,,,,,,,,,,,space,1.7709,l,1,1.2306,"[""0.148"",""0.718"",""0.653"",""0.834""]","[1,0,1,1]",0,0,0,0,1,1,1,,,0,FALSE,,,,,,,,,,,,,,,,,,,,,,,,,,,,,,,
,61648e4f0d2212047ab36b27,627c701e90162057fa095fcc,2022-05-12_04h26.01.231,classification_task,2021.2.3,Win32,59.99520038,627c6715c52fd12f31907bcf,,,,,,,,,,,,,,,,,,,,,,,a,1,0.8383,"[""0.308"",""0.036"",""0.884"",""0.925""]","[1,0,1,1]",0,1,1,1,1,0,1,,,0,FALSE,,,,,,,,,,,,,,,,,,,,,,,,,,,,,,,
,61648e4f0d2212047ab36b27,627c701e90162057fa095fcc,2022-05-12_04h26.01.231,classification_task,2021.2.3,Win32,59.99520038,627c6715c52fd12f31907bcf,,,,,,,,,,,,,,,,,,,,,,,a,0,0.7306,"[""0.107"",""0.421"",""0.494"",""0.044""]","[1,1,1,0]",0,2,2,2,1,1,0,,,0,FALSE,,,,,,,,,,,,,,,,,,,,,,,,,,,,,,,
,61648e4f0d2212047ab36b27,627c701e90162057fa095fcc,2022-05-12_04h26.01.231,classification_task,2021.2.3,Win32,59.99520038,627c6715c52fd12f31907bcf,,,,,,,,,,,,,,,,,,,,,,,a,1,0.9474,"[""0.308"",""0.346"",""0.884"",""0.734""]","[1,1,1,0]",0,3,3,3,1,0,1,,,0,FALSE,,,,,,,,,,,,,,,,,,,,,,,,,,,,,,,
,61648e4f0d2212047ab36b27,627c701e90162057fa095fcc,2022-05-12_04h26.01.231,classification_task,2021.2.3,Win32,59.99520038,627c6715c52fd12f31907bcf,,,,,,,,,,,,,,,,,,,,,,,a,0,1.0145,"[""0.148"",""0.195"",""0.653"",""0.720""]","[1,1,1,0]",0,4,4,4,1,1,1,,,0,FALSE,,,,,,,,,,,,,,,,,,,,,,,,,,,,,,,
,61648e4f0d2212047ab36b27,627c701e90162057fa095fcc,2022-05-12_04h26.01.231,classification_task,2021.2.3,Win32,59.99520038,627c6715c52fd12f31907bcf,,,,,,,,,,,,,,,,,,,,,,,a,1,1.3648,"[""0.275"",""0.702"",""0.595"",""0.963""]","[1,0,1,1]",0,5,5,5,1,0,0,,,0,FALSE,,,,,,,,,,,,,,,,,,,,,,,,,,,,,,,
,61648e4f0d2212047ab36b27,627c701e90162057fa095fcc,2022-05-12_04h26.01.231,classification_task,2021.2.3,Win32,59.99520038,627c6715c52fd12f31907bcf,,,,,,,,,,,,,,,,,,,,,,,a,0,0.6638,"[""0.148"",""0.195"",""0.691"",""0.834""]","[1,1,0,1]",0,6,6,6,1,1,1,,,0,FALSE,,,,,,,,,,,,,,,,,,,,,,,,,,,,,,,
,61648e4f0d2212047ab36b27,627c701e90162057fa095fcc,2022-05-12_04h26.01.231,classification_task,2021.2.3,Win32,59.99520038,627c6715c52fd12f31907bcf,,,,,,,,,,,,,,,,,,,,,,,l,1,0.5446,"[""0.107"",""0.746"",""0.494"",""0.793""]","[1,0,1,1]",0,7,7,7,1,1,0,,,0,FALSE,,,,,,,,,,,,,,,,,,,,,,,,,,,,,,,
,61648e4f0d2212047ab36b27,627c701e90162057fa095fcc,2022-05-12_04h26.01.231,classification_task,2021.2.3,Win32,59.99520038,627c6715c52fd12f31907bcf,,,,,,,,,,,,,,,,,,,,,,,l,1,0.9729,"[""0.241"",""0.421"",""0.494"",""0.793""]","[0,1,1,1]",0,8,8,8,1,1,0,,,0,FALSE,,,,,,,,,,,,,,,,,,,,,,,,,,,,,,,
,61648e4f0d2212047ab36b27,627c701e90162057fa095fcc,2022-05-12_04h26.01.231,classification_task,2021.2.3,Win32,59.99520038,627c6715c52fd12f31907bcf,,,,,,,,,,,,,,,,,,,,,,,a,1,0.8295,"[""0.308"",""0.346"",""0.734"",""0.925""]","[1,1,0,1]",0,9,9,9,1,0,1,,,0,FALSE,,,,,,,,,,,,,,,,,,,,,,,,,,,,,,,
,61648e4f0d2212047ab36b27,627c701e90162057fa095fcc,2022-05-12_04h26.01.231,classification_task,2021.2.3,Win32,59.99520038,627c6715c52fd12f31907bcf,,,,,,,,,,,,,,,,,,,,,,,a,0,0.863,"[""0.107"",""0.421"",""0.720"",""0.793""]","[1,1,0,1]",0,10,10,10,1,1,0,,,0,FALSE,,,,,,,,,,,,,,,,,,,,,,,,,,,,,,,
,61648e4f0d2212047ab36b27,627c701e90162057fa095fcc,2022-05-12_04h26.01.231,classification_task,2021.2.3,Win32,59.99520038,627c6715c52fd12f31907bcf,,,,,,,,,,,,,,,,,,,,,,,l,0,0.6539,"[""0.237"",""0.346"",""0.884"",""0.925""]","[0,1,1,1]",0,11,11,11,1,0,1,,,0,FALSE,,,,,,,,,,,,,,,,,,,,,,,,,,,,,,,
,61648e4f0d2212047ab36b27,627c701e90162057fa095fcc,2022-05-12_04h26.01.231,classification_task,2021.2.3,Win32,59.99520038,627c6715c52fd12f31907bcf,,,,,,,,,,,,,,,,,,,,,,,a,1,3.5613,"[""0.746"",""0.557"",""0.595"",""0.963""]","[0,1,1,1]",0,12,12,12,1,0,0,,,0,FALSE,,,,,,,,,,,,,,,,,,,,,,,,,,,,,,,
,61648e4f0d2212047ab36b27,627c701e90162057fa095fcc,2022-05-12_04h26.01.231,classification_task,2021.2.3,Win32,59.99520038,627c6715c52fd12f31907bcf,,,,,,,,,,,,,,,,,,,,,,,l,0,1.0046,"[""0.275"",""0.557"",""0.734"",""0.963""]","[1,1,0,1]",0,13,13,13,1,0,0,,,0,FALSE,,,,,,,,,,,,,,,,,,,,,,,,,,,,,,,
,61648e4f0d2212047ab36b27,627c701e90162057fa095fcc,2022-05-12_04h26.01.231,classification_task,2021.2.3,Win32,59.99520038,627c6715c52fd12f31907bcf,,,,,,,,,,,,,,,,,,,,,,,l,0,1.4768,"[""0.275"",""0.557"",""0.595"",""0.720""]","[1,1,1,0]",0,14,14,14,1,0,0,,,0,FALSE,,,,,,,,,,,,,,,,,,,,,,,,,,,,,,,
,61648e4f0d2212047ab36b27,627c701e90162057fa095fcc,2022-05-12_04h26.01.231,classification_task,2021.2.3,Win32,59.99520038,627c6715c52fd12f31907bcf,,,,,,,,,,,,,,,,,,,,,,,a,0,1.6475,"[""0.718"",""0.195"",""0.653"",""0.834""]","[0,1,1,1]",0,15,15,15,1,1,1,,,0,FALSE,,,,,,,,,,,,,,,,,,,,,,,,,,,,,,,
,61648e4f0d2212047ab36b27,627c701e90162057fa095fcc,2022-05-12_04h26.01.231,classification_task,2021.2.3,Win32,59.99520038,627c6715c52fd12f31907bcf,,,,,,,,,,,,,,,,,,,,,,,l,1,0.8462,"[""0.148"",""0.720"",""0.653"",""0.834""]","[1,0,1,1]",0,16,16,16,1,1,1,,,0,FALSE,,,,,,,,,,,,,,,,,,,,,,,,,,,,,,,
,61648e4f0d2212047ab36b27,627c701e90162057fa095fcc,2022-05-12_04h26.01.231,classification_task,2021.2.3,Win32,59.99520038,627c6715c52fd12f31907bcf,,,,,,,,,,,,,,,,,,,,,,,l,1,1.3815,"[""0.148"",""0.195"",""0.653"",""0.036""]","[1,1,1,0]",0,17,17,17,1,1,1,,,0,FALSE,,,,,,,,,,,,,,,,,,,,,,,,,,,,,,,
,61648e4f0d2212047ab36b27,627c701e90162057fa095fcc,2022-05-12_04h26.01.231,classification_task,2021.2.3,Win32,59.99520038,627c6715c52fd12f31907bcf,,,,,,,,,,,,,,,,,,,,,,,a,1,0.9454,"[""0.720"",""0.346"",""0.884"",""0.925""]","[0,1,1,1]",0,18,18,18,1,0,1,,,0,FALSE,,,,,,,,,,,,,,,,,,,,,,,,,,,,,,,
,61648e4f0d2212047ab36b27,627c701e90162057fa095fcc,2022-05-12_04h26.01.231,classification_task,2021.2.3,Win32,59.99520038,627c6715c52fd12f31907bcf,,,,,,,,,,,,,,,,,,,,,,,l,1,5.4701,"[""0.107"",""0.421"",""0.702"",""0.793""]","[1,1,0,1]",0,19,19,19,1,1,0,,,0,FALSE,,,,,,,,,,,,,,,,,,,,,,,,,,,,,,,
,61648e4f0d2212047ab36b27,627c701e90162057fa095fcc,2022-05-12_04h26.01.231,classification_task,2021.2.3,Win32,59.99520038,627c6715c52fd12f31907bcf,,,,,,,,,,,,,,,,,,,,,,,a,0,1.4033,"[""0.718"",""0.421"",""0.494"",""0.793""]","[0,1,1,1]",0,20,20,20,1,1,0,,,0,FALSE,,,,,,,,,,,,,,,,,,,,,,,,,,,,,,,
,61648e4f0d2212047ab36b27,627c701e90162057fa095fcc,2022-05-12_04h26.01.231,classification_task,2021.2.3,Win32,59.99520038,627c6715c52fd12f31907bcf,,,,,,,,,,,,,,,,,,,,,,,a,1,0.8146,"[""0.308"",""0.346"",""0.036"",""0.925""]","[1,1,0,1]",0,21,21,21,1,0,1,,,0,FALSE,,,,,,,,,,,,,,,,,,,,,,,,,,,,,,,
,61648e4f0d2212047ab36b27,627c701e90162057fa095fcc,2022-05-12_04h26.01.231,classification_task,2021.2.3,Win32,59.99520038,627c6715c52fd12f31907bcf,,,,,,,,,,,,,,,,,,,,,,,l,0,1.1201,"[""0.275"",""0.734"",""0.595"",""0.963""]","[1,0,1,1]",0,22,22,22,1,0,0,,,0,FALSE,,,,,,,,,,,,,,,,,,,,,,,,,,,,,,,
,61648e4f0d2212047ab36b27,627c701e90162057fa095fcc,2022-05-12_04h26.01.231,classification_task,2021.2.3,Win32,59.99520038,627c6715c52fd12f31907bcf,,,,,,,,,,,,,,,,,,,,,,,a,0,1.2471,"[""0.107"",""0.421"",""0.494"",""0.702""]","[1,1,1,0]",0,23,23,23,1,1,0,,,0,FALSE,,,,,,,,,,,,,,,,,,,,,,,,,,,,,,,
,61648e4f0d2212047ab36b27,627c701e90162057fa095fcc,2022-05-12_04h26.01.231,classification_task,2021.2.3,Win32,59.99520038,627c6715c52fd12f31907bcf,,,,,,,,,,,,,,,,,,,,,,,l,0,1.3661,"[""0.275"",""0.557"",""0.031"",""0.963""]","[1,1,0,1]",0,24,24,24,1,0,0,,,0,FALSE,,,,,,,,,,,,,,,,,,,,,,,,,,,,,,,
,61648e4f0d2212047ab36b27,627c701e90162057fa095fcc,2022-05-12_04h26.01.231,classification_task,2021.2.3,Win32,59.99520038,627c6715c52fd12f31907bcf,,,,,,,,,,,,,,,,,,,,,,,a,1,0.7647,"[""0.308"",""0.346"",""0.884"",""0.241""]","[1,1,1,0]",0,25,25,25,1,0,1,,,0,FALSE,,,,,,,,,,,,,,,,,,,,,,,,,,,,,,,
,61648e4f0d2212047ab36b27,627c701e90162057fa095fcc,2022-05-12_04h26.01.231,classification_task,2021.2.3,Win32,59.99520038,627c6715c52fd12f31907bcf,,,,,,,,,,,,,,,,,,,,,,,l,0,0.8336,"[""0.039"",""0.557"",""0.595"",""0.963""]","[0,1,1,1]",0,26,26,26,1,0,0,,,0,FALSE,,,,,,,,,,,,,,,,,,,,,,,,,,,,,,,
,61648e4f0d2212047ab36b27,627c701e90162057fa095fcc,2022-05-12_04h26.01.231,classification_task,2021.2.3,Win32,59.99520038,627c6715c52fd12f31907bcf,,,,,,,,,,,,,,,,,,,,,,,a,0,0.9695,"[""0.148"",""0.195"",""0.702"",""0.834""]","[1,1,0,1]",0,27,27,27,1,1,1,,,0,FALSE,,,,,,,,,,,,,,,,,,,,,,,,,,,,,,,
,61648e4f0d2212047ab36b27,627c701e90162057fa095fcc,2022-05-12_04h26.01.231,classification_task,2021.2.3,Win32,59.99520038,627c6715c52fd12f31907bcf,,,,,,,,,,,,,,,,,,,,,,,a,1,1.064,"[""0.308"",""0.241"",""0.884"",""0.925""]","[1,0,1,1]",0,28,28,28,1,0,1,,,0,FALSE,,,,,,,,,,,,,,,,,,,,,,,,,,,,,,,
,61648e4f0d2212047ab36b27,627c701e90162057fa095fcc,2022-05-12_04h26.01.231,classification_task,2021.2.3,Win32,59.99520038,627c6715c52fd12f31907bcf,,,,,,,,,,,,,,,,,,,,,,,l,1,0.7709,"[""0.107"",""0.237"",""0.494"",""0.793""]","[1,0,1,1]",0,29,29,29,1,1,0,,,0,FALSE,,,,,,,,,,,,,,,,,,,,,,,,,,,,,,,
,61648e4f0d2212047ab36b27,627c701e90162057fa095fcc,2022-05-12_04h26.01.231,classification_task,2021.2.3,Win32,59.99520038,627c6715c52fd12f31907bcf,,,,,,,,,,,,,,,,,,,,,,,l,0,1.2984,"[""0.275"",""0.557"",""0.595"",""0.036""]","[1,1,1,0]",0,30,30,30,1,0,0,,,0,FALSE,,,,,,,,,,,,,,,,,,,,,,,,,,,,,,,
,61648e4f0d2212047ab36b27,627c701e90162057fa095fcc,2022-05-12_04h26.01.231,classification_task,2021.2.3,Win32,59.99520038,627c6715c52fd12f31907bcf,,,,,,,,,,,,,,,,,,,,,,,l,1,0.7648,"[""0.691"",""0.195"",""0.653"",""0.834""]","[0,1,1,1]",0,31,31,31,1,1,1,,,0,FALSE,,,,,,,,,,,,,,,,,,,,,,,,,,,,,,,
,61648e4f0d2212047ab36b27,627c701e90162057fa095fcc,2022-05-12_04h26.01.231,classification_task,2021.2.3,Win32,59.99520038,627c6715c52fd12f31907bcf,,,,,,,,,,,,,,,,,,,,,,,a,1,0.7912,"[""0.691"",""0.346"",""0.884"",""0.925""]","[0,1,1,1]",0,32,32,32,1,0,1,,,0,FALSE,,,,,,,,,,,,,,,,,,,,,,,,,,,,,,,
,61648e4f0d2212047ab36b27,627c701e90162057fa095fcc,2022-05-12_04h26.01.231,classification_task,2021.2.3,Win32,59.99520038,627c6715c52fd12f31907bcf,,,,,,,,,,,,,,,,,,,,,,,a,0,1.0046,"[""0.720"",""0.195"",""0.653"",""0.834""]","[0,1,1,1]",0,33,33,33,1,1,1,,,0,FALSE,,,,,,,,,,,,,,,,,,,,,,,,,,,,,,,
,61648e4f0d2212047ab36b27,627c701e90162057fa095fcc,2022-05-12_04h26.01.231,classification_task,2021.2.3,Win32,59.99520038,627c6715c52fd12f31907bcf,,,,,,,,,,,,,,,,,,,,,,,a,0,1.5096,"[""0.237"",""0.421"",""0.494"",""0.793""]","[0,1,1,1]",0,34,34,34,1,1,0,,,0,FALSE,,,,,,,,,,,,,,,,,,,,,,,,,,,,,,,
,61648e4f0d2212047ab36b27,627c701e90162057fa095fcc,2022-05-12_04h26.01.231,classification_task,2021.2.3,Win32,59.99520038,627c6715c52fd12f31907bcf,,,,,,,,,,,,,,,,,,,,,,,l,0,0.9498,"[""0.746"",""0.557"",""0.595"",""0.963""]","[0,1,1,1]",0,35,35,35,1,0,0,,,0,FALSE,,,,,,,,,,,,,,,,,,,,,,,,,,,,,,,
,61648e4f0d2212047ab36b27,627c701e90162057fa095fcc,2022-05-12_04h26.01.231,classification_task,2021.2.3,Win32,59.99520038,627c6715c52fd12f31907bcf,,,,,,,,,,,,,,,,,,,,,,,a,1,1.2166,"[""0.275"",""0.241"",""0.595"",""0.963""]","[1,0,1,1]",0,36,36,36,1,0,0,,,0,FALSE,,,,,,,,,,,,,,,,,,,,,,,,,,,,,,,
,61648e4f0d2212047ab36b27,627c701e90162057fa095fcc,2022-05-12_04h26.01.231,classification_task,2021.2.3,Win32,59.99520038,627c6715c52fd12f31907bcf,,,,,,,,,,,,,,,,,,,,,,,a,1,1.6831,"[""0.275"",""0.557"",""0.702"",""0.963""]","[1,1,0,1]",0,37,37,37,1,0,0,,,0,FALSE,,,,,,,,,,,,,,,,,,,,,,,,,,,,,,,
,61648e4f0d2212047ab36b27,627c701e90162057fa095fcc,2022-05-12_04h26.01.231,classification_task,2021.2.3,Win32,59.99520038,627c6715c52fd12f31907bcf,,,,,,,,,,,,,,,,,,,,,,,a,1,0.2758,"[""0.275"",""0.557"",""0.595"",""0.241""]","[1,1,1,0]",0,38,38,38,1,0,0,,,0,FALSE,,,,,,,,,,,,,,,,,,,,,,,,,,,,,,,
,61648e4f0d2212047ab36b27,627c701e90162057fa095fcc,2022-05-12_04h26.01.231,classification_task,2021.2.3,Win32,59.99520038,627c6715c52fd12f31907bcf,,,,,,,,,,,,,,,,,,,,,,,l,1,0.5476,"[""0.148"",""0.720"",""0.653"",""0.834""]","[1,0,1,1]",0,39,39,39,1,1,1,,,0,FALSE,,,,,,,,,,,,,,,,,,,,,,,,,,,,,,,
,61648e4f0d2212047ab36b27,627c701e90162057fa095fcc,2022-05-12_04h26.01.231,classification_task,2021.2.3,Win32,59.99520038,627c6715c52fd12f31907bcf,,,,,,,,,,,,,,,,,,,,,,,a,0,0.7312,"[""0.107"",""0.421"",""0.494"",""0.044""]","[1,1,1,0]",0,40,40,40,1,1,0,,,0,FALSE,,,,,,,,,,,,,,,,,,,,,,,,,,,,,,,
,61648e4f0d2212047ab36b27,627c701e90162057fa095fcc,2022-05-12_04h26.01.231,classification_task,2021.2.3,Win32,59.99520038,627c6715c52fd12f31907bcf,,,,,,,,,,,,,,,,,,,,,,,l,0,0.4458,"[""0.308"",""0.346"",""0.746"",""0.925""]","[1,1,0,1]",0,41,41,41,1,0,1,,,0,FALSE,,,,,,,,,,,,,,,,,,,,,,,,,,,,,,,
,61648e4f0d2212047ab36b27,627c701e90162057fa095fcc,2022-05-12_04h26.01.231,classification_task,2021.2.3,Win32,59.99520038,627c6715c52fd12f31907bcf,,,,,,,,,,,,,,,,,,,,,,,a,0,0.4659,"[""0.148"",""0.195"",""0.702"",""0.834""]","[1,1,0,1]",0,42,42,42,1,1,1,,,0,FALSE,,,,,,,,,,,,,,,,,,,,,,,,,,,,,,,
,61648e4f0d2212047ab36b27,627c701e90162057fa095fcc,2022-05-12_04h26.01.231,classification_task,2021.2.3,Win32,59.99520038,627c6715c52fd12f31907bcf,,,,,,,,,,,,,,,,,,,,,,,l,1,0.881,"[""0.148"",""0.195"",""0.653"",""0.691""]","[1,1,1,0]",0,43,43,43,1,1,1,,,0,FALSE,,,,,,,,,,,,,,,,,,,,,,,,,,,,,,,
,61648e4f0d2212047ab36b27,627c701e90162057fa095fcc,2022-05-12_04h26.01.231,classification_task,2021.2.3,Win32,59.99520038,627c6715c52fd12f31907bcf,,,,,,,,,,,,,,,,,,,,,,,l,1,0.8147,"[""0.107"",""0.421"",""0.734"",""0.793""]","[1,1,0,1]",0,44,44,44,1,1,0,,,0,FALSE,,,,,,,,,,,,,,,,,,,,,,,,,,,,,,,
,61648e4f0d2212047ab36b27,627c701e90162057fa095fcc,2022-05-12_04h26.01.231,classification_task,2021.2.3,Win32,59.99520038,627c6715c52fd12f31907bcf,,,,,,,,,,,,,,,,,,,,,,,a,1,0.6473,"[""0.308"",""0.691"",""0.884"",""0.925""]","[1,0,1,1]",0,45,45,45,1,0,1,,,0,FALSE,,,,,,,,,,,,,,,,,,,,,,,,,,,,,,,
,61648e4f0d2212047ab36b27,627c701e90162057fa095fcc,2022-05-12_04h26.01.231,classification_task,2021.2.3,Win32,59.99520038,627c6715c52fd12f31907bcf,,,,,,,,,,,,,,,,,,,,,,,a,1,0.9153,"[""0.308"",""0.346"",""0.884"",""0.720""]","[1,1,1,0]",0,46,46,46,1,0,1,,,0,FALSE,,,,,,,,,,,,,,,,,,,,,,,,,,,,,,,
,61648e4f0d2212047ab36b27,627c701e90162057fa095fcc,2022-05-12_04h26.01.231,classification_task,2021.2.3,Win32,59.99520038,627c6715c52fd12f31907bcf,,,,,,,,,,,,,,,,,,,,,,,l,1,0.9093,"[""0.107"",""0.036"",""0.494"",""0.793""]","[1,0,1,1]",0,47,47,47,1,1,0,,,0,FALSE,,,,,,,,,,,,,,,,,,,,,,,,,,,,,,,
,61648e4f0d2212047ab36b27,627c701e90162057fa095fcc,2022-05-12_04h26.01.231,classification_task,2021.2.3,Win32,59.99520038,627c6715c52fd12f31907bcf,,,,,,,,,,,,,,,,,,,,,,,l,1,0.9826,"[""0.734"",""0.421"",""0.494"",""0.793""]","[0,1,1,1]",0,48,48,48,1,1,0,,,0,FALSE,,,,,,,,,,,,,,,,,,,,,,,,,,,,,,,
,61648e4f0d2212047ab36b27,627c701e90162057fa095fcc,2022-05-12_04h26.01.231,classification_task,2021.2.3,Win32,59.99520038,627c6715c52fd12f31907bcf,,,,,,,,,,,,,,,,,,,,,,,a,0,0.6542,"[""0.107"",""0.421"",""0.494"",""0.044""]","[1,1,1,0]",0,49,49,49,1,1,0,,,0,FALSE,,,,,,,,,,,,,,,,,,,,,,,,,,,,,,,
,61648e4f0d2212047ab36b27,627c701e90162057fa095fcc,2022-05-12_04h26.01.231,classification_task,2021.2.3,Win32,59.99520038,627c6715c52fd12f31907bcf,,,,,,,,,,,,,,,,,,,,,,,l,0,0.8636,"[""0.308"",""0.346"",""0.057"",""0.925""]","[1,1,0,1]",0,50,50,50,1,0,1,,,0,FALSE,,,,,,,,,,,,,,,,,,,,,,,,,,,,,,,
,61648e4f0d2212047ab36b27,627c701e90162057fa095fcc,2022-05-12_04h26.01.231,classification_task,2021.2.3,Win32,59.99520038,627c6715c52fd12f31907bcf,,,,,,,,,,,,,,,,,,,,,,,l,0,0.9282,"[""0.237"",""0.557"",""0.595"",""0.963""]","[0,1,1,1]",0,51,51,51,1,0,0,,,0,FALSE,,,,,,,,,,,,,,,,,,,,,,,,,,,,,,,
,61648e4f0d2212047ab36b27,627c701e90162057fa095fcc,2022-05-12_04h26.01.231,classification_task,2021.2.3,Win32,59.99520038,627c6715c52fd12f31907bcf,,,,,,,,,,,,,,,,,,,,,,,a,1,1.9981,"[""0.308"",""0.691"",""0.884"",""0.925""]","[1,0,1,1]",0,52,52,52,1,0,1,,,0,FALSE,,,,,,,,,,,,,,,,,,,,,,,,,,,,,,,
,61648e4f0d2212047ab36b27,627c701e90162057fa095fcc,2022-05-12_04h26.01.231,classification_task,2021.2.3,Win32,59.99520038,627c6715c52fd12f31907bcf,,,,,,,,,,,,,,,,,,,,,,,a,0,1.0156,"[""0.148"",""0.195"",""0.653"",""0.241""]","[1,1,1,0]",0,53,53,53,1,1,1,,,0,FALSE,,,,,,,,,,,,,,,,,,,,,,,,,,,,,,,
,61648e4f0d2212047ab36b27,627c701e90162057fa095fcc,2022-05-12_04h26.01.231,classification_task,2021.2.3,Win32,59.99520038,627c6715c52fd12f31907bcf,,,,,,,,,,,,,,,,,,,,,,,l,1,0.337,"[""0.107"",""0.746"",""0.494"",""0.793""]","[1,0,1,1]",0,54,54,54,1,1,0,,,0,FALSE,,,,,,,,,,,,,,,,,,,,,,,,,,,,,,,
,61648e4f0d2212047ab36b27,627c701e90162057fa095fcc,2022-05-12_04h26.01.231,classification_task,2021.2.3,Win32,59.99520038,627c6715c52fd12f31907bcf,,,,,,,,,,,,,,,,,,,,,,,l,0,0.6144,"[""0.734"",""0.346"",""0.884"",""0.925""]","[0,1,1,1]",0,55,55,55,1,0,1,,,0,FALSE,,,,,,,,,,,,,,,,,,,,,,,,,,,,,,,
,61648e4f0d2212047ab36b27,627c701e90162057fa095fcc,2022-05-12_04h26.01.231,classification_task,2021.2.3,Win32,59.99520038,627c6715c52fd12f31907bcf,,,,,,,,,,,,,,,,,,,,,,,a,1,0.4302,"[""0.308"",""0.346"",""0.884"",""0.237""]","[1,1,1,0]",0,56,56,56,1,0,1,,,0,FALSE,,,,,,,,,,,,,,,,,,,,,,,,,,,,,,,
,61648e4f0d2212047ab36b27,627c701e90162057fa095fcc,2022-05-12_04h26.01.231,classification_task,2021.2.3,Win32,59.99520038,627c6715c52fd12f31907bcf,,,,,,,,,,,,,,,,,,,,,,,l,0,0.6648,"[""0.275"",""0.557"",""0.595"",""0.031""]","[1,1,1,0]",0,57,57,57,1,0,0,,,0,FALSE,,,,,,,,,,,,,,,,,,,,,,,,,,,,,,,
,61648e4f0d2212047ab36b27,627c701e90162057fa095fcc,2022-05-12_04h26.01.231,classification_task,2021.2.3,Win32,59.99520038,627c6715c52fd12f31907bcf,,,,,,,,,,,,,,,,,,,,,,,a,0,0.4852,"[""0.107"",""0.421"",""0.031"",""0.793""]","[1,1,0,1]",0,58,58,58,1,1,0,,,0,FALSE,,,,,,,,,,,,,,,,,,,,,,,,,,,,,,,
,61648e4f0d2212047ab36b27,627c701e90162057fa095fcc,2022-05-12_04h26.01.231,classification_task,2021.2.3,Win32,59.99520038,627c6715c52fd12f31907bcf,,,,,,,,,,,,,,,,,,,,,,,l,1,0.8798,"[""0.148"",""0.039"",""0.653"",""0.834""]","[1,0,1,1]",0,59,59,59,1,1,1,,,0,FALSE,,,,,,,,,,,,,,,,,,,,,,,,,,,,,,,
,61648e4f0d2212047ab36b27,627c701e90162057fa095fcc,2022-05-12_04h26.01.231,classification_task,2021.2.3,Win32,59.99520038,627c6715c52fd12f31907bcf,,,,,,,,,,,,,,,,,,,,,,,a,0,0.7287,"[""0.148"",""0.195"",""0.746"",""0.834""]","[1,1,0,1]",0,60,60,60,1,1,1,,,0,FALSE,,,,,,,,,,,,,,,,,,,,,,,,,,,,,,,
,61648e4f0d2212047ab36b27,627c701e90162057fa095fcc,2022-05-12_04h26.01.231,classification_task,2021.2.3,Win32,59.99520038,627c6715c52fd12f31907bcf,,,,,,,,,,,,,,,,,,,,,,,l,0,1.7156,"[""0.275"",""0.557"",""0.746"",""0.963""]","[1,1,0,1]",0,61,61,61,1,0,0,,,0,FALSE,,,,,,,,,,,,,,,,,,,,,,,,,,,,,,,
,61648e4f0d2212047ab36b27,627c701e90162057fa095fcc,2022-05-12_04h26.01.231,classification_task,2021.2.3,Win32,59.99520038,627c6715c52fd12f31907bcf,,,,,,,,,,,,,,,,,,,,,,,l,1,0.8544,"[""0.057"",""0.195"",""0.653"",""0.834""]","[0,1,1,1]",0,62,62,62,1,1,1,,,0,FALSE,,,,,,,,,,,,,,,,,,,,,,,,,,,,,,,
,61648e4f0d2212047ab36b27,627c701e90162057fa095fcc,2022-05-12_04h26.01.231,classification_task,2021.2.3,Win32,59.99520038,627c6715c52fd12f31907bcf,,,,,,,,,,,,,,,,,,,,,,,a,1,0.4668,"[""0.275"",""0.746"",""0.595"",""0.963""]","[1,0,1,1]",0,63,63,63,1,0,0,,,0,FALSE,,,,,,,,,,,,,,,,,,,,,,,,,,,,,,,
,61648e4f0d2212047ab36b27,627c701e90162057fa095fcc,2022-05-12_04h26.01.231,classification_task,2021.2.3,Win32,59.99520038,627c6715c52fd12f31907bcf,,,,,,,,,,,,,,,,,,,,,,,,,,,,,,,,,,,,,,,0, ,,0,0.03968254,138.5389,0,2,2,2,1,2,3,,,,,,,,,,,,,,,,,,
,61648e4f0d2212047ab36b27,627c701e90162057fa095fcc,2022-05-12_04h26.01.231,classification_task,2021.2.3,Win32,59.99520038,627c6715c52fd12f31907bcf,,,,,,,,,,,,,,,,,,,,,,,,,,,,,,,,,,,,,,,1,  ,,0,10,140.1754,0,2,2,2,1,2,3,,,,,,,,,,,,,,,,,,
,61648e4f0d2212047ab36b27,627c701e90162057fa095fcc,2022-05-12_04h26.01.231,classification_task,2021.2.3,Win32,59.99520038,627c6715c52fd12f31907bcf,,,,,,,,,,,,,,,,,,,,,,,,,,,,,,,,,,,,,,,2,  ,,0,10,141.8746,0,2,2,2,1,2,3,,,,,,,,,,,,,,,,,,
,61648e4f0d2212047ab36b27,627c701e90162057fa095fcc,2022-05-12_04h26.01.231,classification_task,2021.2.3,Win32,59.99520038,627c6715c52fd12f31907bcf,,,,,,,,,,,,,,,,,,,,,,,,,,,,,,,,,,,,,,,,,,,,,0,2,2,2,1,,3,,,,,,,,,,,,,,,,,,
,61648e4f0d2212047ab36b27,627c701e90162057fa095fcc,2022-05-12_04h26.01.231,classification_task,2021.2.3,Win32,59.99520038,627c6715c52fd12f31907bcf,,,,,,,,,,,,,,,,,,,,,,,,,,,,,,,,,,,,,,,,,,,,,,,,,,,,,I believe the aid is a competent performer,,0.7,0,5,644.8935,0,0,0,0,1,0,,,,,
,61648e4f0d2212047ab36b27,627c701e90162057fa095fcc,2022-05-12_04h26.01.231,classification_task,2021.2.3,Win32,59.99520038,627c6715c52fd12f31907bcf,,,,,,,,,,,,,,,,,,,,,,,,,,,,,,,,,,,,,,,,,,,,,,,,,,,,,I trust the aid,,0.7,0,3,648.2067,0,0,0,0,1,0,,,,,
,61648e4f0d2212047ab36b27,627c701e90162057fa095fcc,2022-05-12_04h26.01.231,classification_task,2021.2.3,Win32,59.99520038,627c6715c52fd12f31907bcf,,,,,,,,,,,,,,,,,,,,,,,,,,,,,,,,,,,,,,,,,,,,,,,,,,,,,I have confidence in the advice given by the aid,,0.7,0,4,650.3033,0,0,0,0,1,0,,,,,
,61648e4f0d2212047ab36b27,627c701e90162057fa095fcc,2022-05-12_04h26.01.231,classification_task,2021.2.3,Win32,59.99520038,627c6715c52fd12f31907bcf,,,,,,,,,,,,,,,,,,,,,,,,,,,,,,,,,,,,,,,,,,,,,,,,,,,,,I can depend on the aid,,0.7,0,4,652.5185,0,0,0,0,1,0,,,,,
,61648e4f0d2212047ab36b27,627c701e90162057fa095fcc,2022-05-12_04h26.01.231,classification_task,2021.2.3,Win32,59.99520038,627c6715c52fd12f31907bcf,,,,,,,,,,,,,,,,,,,,,,,,,,,,,,,,,,,,,,,,,,,,,,,,,,,,,I can rely on the aid to behave in consistent ways,,0.7,0,4,655.547,0,0,0,0,1,0,,,,,
,61648e4f0d2212047ab36b27,627c701e90162057fa095fcc,2022-05-12_04h26.01.231,classification_task,2021.2.3,Win32,59.99520038,627c6715c52fd12f31907bcf,,,,,,,,,,,,,,,,,,,,,,,,,,,,,,,,,,,,,,,,,,,,,,,,,,,,,I can rely on the aid to do its best every time I take its advice,,0.7,0,3,656.5797,0,0,0,0,1,0,,,,,
,61648e4f0d2212047ab36b27,627c701e90162057fa095fcc,2022-05-12_04h26.01.231,classification_task,2021.2.3,Win32,59.99520038,627c6715c52fd12f31907bcf,,,,,,,,,,,,,,,,,,,,,,,,,,,,,,,,,,,,,,,,,,,,,,,,,,,,,"On trials you completed with assistance from the aid, how frequently did you think the aid was correct?",,0.7,0,80%,,0,0,0,0,1,0,,,,,
,61648e4f0d2212047ab36b27,627c701e90162057fa095fcc,2022-05-12_04h26.01.231,classification_task,2021.2.3,Win32,59.99520038,627c6715c52fd12f31907bcf,,,,,,,,,,,,,,,,,,,,,,,,,,,,,,,,,,,,,,,,,,,,,,,,,,,,,"On trials you completed without the aid, how frequently did you think you were correct?",,0.7,0,50%,,0,0,0,0,1,0,,,,,
,61648e4f0d2212047ab36b27,627c701e90162057fa095fcc,2022-05-12_04h26.01.231,classification_task,2021.2.3,Win32,59.99520038,627c6715c52fd12f31907bcf,,,,,,,,,,,,,,,,,,,,,,,,,,,,,,,,,,,,,,,,,,,,,,,,,,,,,,,,,,,0,0,0,0,1,,,,,,
,61648e4f0d2212047ab36b27,627c701e90162057fa095fcc,2022-05-12_04h26.01.231,classification_task,2021.2.3,Win32,59.99520038,627c6715c52fd12f31907bcf,,,,,,,,,,,,,,,,,,,,,,,,,,,,,,,,,,,,,,,,,,,,,,,,,,,,,,,,,,,,,,,,,space,4.1434,690.2939,,
,61648e4f0d2212047ab36b27,627c701e90162057fa095fcc,2022-05-12_04h26.01.231,classification_task,2021.2.3,Win32,59.99520038,627c6715c52fd12f31907bcf,,,,,,,,,,,,,,,,,,,,,,,,,,,,,,,,,,,,,,,,,,,,,,,,,,,,,,,,,,,,,,,,,,,,"Mozilla/5.0 (Windows NT 10.0; Win64; x64) AppleWebKit/537.36 (KHTML, like Gecko) Chrome/101.0.4951.54 Safari/537.36",
,61648e4f0d2212047ab36b27,627c701e90162057fa095fcc,2022-05-12_04h26.01.231,classification_task,2021.2.3,Win32,59.99520038,627c6715c52fd12f31907bcf,,,,,,,,,,,,,,,,,,,,,,,,,,,,,,,,,,,,,,,,,,,,,,,,,,,,,,,,,,,,,,,,,,,,,HIGHLIGHT
