usingWebGL,participant,session,date,expName,psychopyVersion,OS,frameRate,PROLIFIC_PID,STUDY_ID,SESSION_ID,signatures_friend,signatures_foe,band_ranges_top,band_ranges_bottom,formitemText,formtype,formundefined,formitemWidth,formindex,formresponse,formrt,key_resp_2.keys,key_resp_2.rt,tute_resp.keys,tute_resp.rt,tutorial.thisRepN,tutorial.thisTrialN,tutorial.thisN,tutorial.thisIndex,tutorial.ran,key_resp_4.keys,key_resp_4.rt,key_resp.keys,key_resp.corr,key_resp.rt,lines_presented,is_signal_presented,trials.thisRepN,trials.thisTrialN,trials.thisN,trials.thisIndex,trials.ran,vessel,active_band,lines,is_signal,supported_pos,catch_trial,debrief_formindex,debrief_formitemText,debrief_formtype,debrief_formitemWidth,debrief_formresponse,debrief_formrt,phases.thisRepN,phases.thisTrialN,phases.thisN,phases.thisIndex,phases.ran,phases.order,phase,key_resp_3.keys,trustitemText,trusttype,trustitemWidth,trustindex,trustresponse,trustrt,support_status.thisRepN,support_status.thisTrialN,support_status.thisN,support_status.thisIndex,support_status.ran,support_status.order,key_resp_5.keys,key_resp_5.rt,globalClockTime,userAgent
TRUE,616597ecca6e8d930673b1e4,001,2022-04-29_02h08.13.841,classification_task,2021.2.3,Win32,61.83144747,616597ecca6e8d930673b1e4,626b377229c10585ec392f89,626b3a4dda4ec33bab80ac61,,,,,,,,,,,,,,,,,,,,,,,,,,,,,,,,,,,,,,,,,,,,,,,,,,,,,,,,,,,,,,,,,,,,
,616597ecca6e8d930673b1e4,001,2022-04-29_02h08.13.841,classification_task,2021.2.3,Win32,61.83144747,616597ecca6e8d930673b1e4,626b377229c10585ec392f89,626b3a4dda4ec33bab80ac61,"[[""0.188"",""0.507"",""0.855"",""0.959""],[""0.261"",""0.336"",""0.595"",""0.893""]]","[[""0.127"",""0.375"",""0.442"",""0.768""],[""0.035"",""0.089"",""0.556"",""0.817""]]","[1,10]","[100,1000]",Video game experience,,,0.7,0,,,,,,,,,,,,,,,,,,,,,,,,,,,,,,,,,,,,,,,,,,,,,,,,,,,,,,,,,,,
,616597ecca6e8d930673b1e4,001,2022-04-29_02h08.13.841,classification_task,2021.2.3,Win32,61.83144747,616597ecca6e8d930673b1e4,626b377229c10585ec392f89,626b3a4dda4ec33bab80ac61,,,,,Approximately how many hours did you spend playing video games in the last week?,,,0.7,0,10,,,,,,,,,,,,,,,,,,,,,,,,,,,,,,,,,,,,,,,,,,,,,,,,,,,,,,,,,,
,616597ecca6e8d930673b1e4,001,2022-04-29_02h08.13.841,classification_task,2021.2.3,Win32,61.83144747,616597ecca6e8d930673b1e4,626b377229c10585ec392f89,626b3a4dda4ec33bab80ac61,,,,,"Which game did you play the most this year? (Enter ""None"" if you didn't play any)",,,0.7,0,FM 2021,,,,,,,,,,,,,,,,,,,,,,,,,,,,,,,,,,,,,,,,,,,,,,,,,,,,,,,,,,
,616597ecca6e8d930673b1e4,001,2022-04-29_02h08.13.841,classification_task,2021.2.3,Win32,61.83144747,616597ecca6e8d930673b1e4,626b377229c10585ec392f89,626b3a4dda4ec33bab80ac61,,,,,Visual perception,,,0.7,0,,,,,,,,,,,,,,,,,,,,,,,,,,,,,,,,,,,,,,,,,,,,,,,,,,,,,,,,,,,
,616597ecca6e8d930673b1e4,001,2022-04-29_02h08.13.841,classification_task,2021.2.3,Win32,61.83144747,616597ecca6e8d930673b1e4,626b377229c10585ec392f89,626b3a4dda4ec33bab80ac61,,,,,Do you have any form of color blindness?,,,0.7,0,No,21.3643,,,,,,,,,,,,,,,,,,,,,,,,,,,,,,,,,,,,,,,,,,,,,,,,,,,,,,,,,
,616597ecca6e8d930673b1e4,001,2022-04-29_02h08.13.841,classification_task,2021.2.3,Win32,61.83144747,616597ecca6e8d930673b1e4,626b377229c10585ec392f89,626b3a4dda4ec33bab80ac61,,,,,Do you use software to change the colour temperature of your screen (e.g. f.lux)?,,,0.7,0,No,26.0585,,,,,,,,,,,,,,,,,,,,,,,,,,,,,,,,,,,,,,,,,,,,,,,,,,,,,,,,,
,616597ecca6e8d930673b1e4,001,2022-04-29_02h08.13.841,classification_task,2021.2.3,Win32,61.83144747,616597ecca6e8d930673b1e4,626b377229c10585ec392f89,626b3a4dda4ec33bab80ac61,,,,,,,,,,,,space,32.2147,space,5.9386,0,0,0,0,1,,,,,,,,,,,,,,,,,,,,,,,,,,,,,,,,,,,,,,,,,,,,,,,,
,616597ecca6e8d930673b1e4,001,2022-04-29_02h08.13.841,classification_task,2021.2.3,Win32,61.83144747,616597ecca6e8d930673b1e4,626b377229c10585ec392f89,626b3a4dda4ec33bab80ac61,,,,,,,,,,,,,,space,5.8285,1,0,1,0,1,,,,,,,,,,,,,,,,,,,,,,,,,,,,,,,,,,,,,,,,,,,,,,,,
,616597ecca6e8d930673b1e4,001,2022-04-29_02h08.13.841,classification_task,2021.2.3,Win32,61.83144747,616597ecca6e8d930673b1e4,626b377229c10585ec392f89,626b3a4dda4ec33bab80ac61,,,,,,,,,,,,,,space,7.195,2,0,2,0,1,,,,,,,,,,,,,,,,,,,,,,,,,,,,,,,,,,,,,,,,,,,,,,,,
,616597ecca6e8d930673b1e4,001,2022-04-29_02h08.13.841,classification_task,2021.2.3,Win32,61.83144747,616597ecca6e8d930673b1e4,626b377229c10585ec392f89,626b3a4dda4ec33bab80ac61,,,,,,,,,,,,,,space,12.3751,3,0,3,0,1,,,,,,,,,,,,,,,,,,,,,,,,,,,,,,,,,,,,,,,,,,,,,,,,
,616597ecca6e8d930673b1e4,001,2022-04-29_02h08.13.841,classification_task,2021.2.3,Win32,61.83144747,616597ecca6e8d930673b1e4,626b377229c10585ec392f89,626b3a4dda4ec33bab80ac61,,,,,,,,,,,,,,space,19.858,4,0,4,0,1,,,,,,,,,,,,,,,,,,,,,,,,,,,,,,,,,,,,,,,,,,,,,,,,
,616597ecca6e8d930673b1e4,001,2022-04-29_02h08.13.841,classification_task,2021.2.3,Win32,61.83144747,616597ecca6e8d930673b1e4,626b377229c10585ec392f89,626b3a4dda4ec33bab80ac61,,,,,,,,,,,,,,,,,,,,,space,16.7018,l,1,2.7395,"[""0.035"",""0.226"",""0.556"",""0.817""]","[1,0,1,1]",0,0,0,0,1,1,1,,,1,FALSE,,,,,,,,,,,,,,,,,,,,,,,,,,,,,,
,616597ecca6e8d930673b1e4,001,2022-04-29_02h08.13.841,classification_task,2021.2.3,Win32,61.83144747,616597ecca6e8d930673b1e4,626b377229c10585ec392f89,626b3a4dda4ec33bab80ac61,,,,,,,,,,,,,,,,,,,,,,,a,1,2.4504,"[""0.188"",""0.647"",""0.855"",""0.959""]","[1,0,1,1]",0,1,1,1,1,0,0,,,1,FALSE,,,,,,,,,,,,,,,,,,,,,,,,,,,,,,
,616597ecca6e8d930673b1e4,001,2022-04-29_02h08.13.841,classification_task,2021.2.3,Win32,61.83144747,616597ecca6e8d930673b1e4,626b377229c10585ec392f89,626b3a4dda4ec33bab80ac61,,,,,,,,,,,,,,,,,,,,,,,l,1,2.1072,"[""0.127"",""0.649"",""0.442"",""0.768""]","[1,0,1,1]",0,2,2,2,1,1,0,,,1,FALSE,,,,,,,,,,,,,,,,,,,,,,,,,,,,,,
,616597ecca6e8d930673b1e4,001,2022-04-29_02h08.13.841,classification_task,2021.2.3,Win32,61.83144747,616597ecca6e8d930673b1e4,626b377229c10585ec392f89,626b3a4dda4ec33bab80ac61,,,,,,,,,,,,,,,,,,,,,,,l,1,1.7725,"[""0.127"",""0.375"",""0.442"",""0.635""]","[1,1,1,0]",0,3,3,3,1,1,0,,,1,FALSE,,,,,,,,,,,,,,,,,,,,,,,,,,,,,,
,616597ecca6e8d930673b1e4,001,2022-04-29_02h08.13.841,classification_task,2021.2.3,Win32,61.83144747,616597ecca6e8d930673b1e4,626b377229c10585ec392f89,626b3a4dda4ec33bab80ac61,,,,,,,,,,,,,,,,,,,,,,,l,1,3.6963,"[""0.669"",""0.375"",""0.442"",""0.768""]","[0,1,1,1]",0,4,4,4,1,1,0,,,1,FALSE,,,,,,,,,,,,,,,,,,,,,,,,,,,,,,
,616597ecca6e8d930673b1e4,001,2022-04-29_02h08.13.841,classification_task,2021.2.3,Win32,61.83144747,616597ecca6e8d930673b1e4,626b377229c10585ec392f89,626b3a4dda4ec33bab80ac61,,,,,,,,,,,,,,,,,,,,,,,a,1,2.9493,"[""0.719"",""0.336"",""0.595"",""0.893""]","[0,1,1,1]",0,5,5,5,1,0,1,,,1,FALSE,,,,,,,,,,,,,,,,,,,,,,,,,,,,,,
,616597ecca6e8d930673b1e4,001,2022-04-29_02h08.13.841,classification_task,2021.2.3,Win32,61.83144747,616597ecca6e8d930673b1e4,626b377229c10585ec392f89,626b3a4dda4ec33bab80ac61,,,,,,,,,,,,,,,,,,,,,,,a,1,1.7496,"[""0.188"",""0.507"",""0.669"",""0.959""]","[1,1,0,1]",0,6,6,6,1,0,0,,,1,FALSE,,,,,,,,,,,,,,,,,,,,,,,,,,,,,,
,616597ecca6e8d930673b1e4,001,2022-04-29_02h08.13.841,classification_task,2021.2.3,Win32,61.83144747,616597ecca6e8d930673b1e4,626b377229c10585ec392f89,626b3a4dda4ec33bab80ac61,,,,,,,,,,,,,,,,,,,,,,,l,1,1.3384,"[""0.127"",""0.375"",""0.647"",""0.768""]","[1,1,0,1]",0,7,7,7,1,1,0,,,1,FALSE,,,,,,,,,,,,,,,,,,,,,,,,,,,,,,
,616597ecca6e8d930673b1e4,001,2022-04-29_02h08.13.841,classification_task,2021.2.3,Win32,61.83144747,616597ecca6e8d930673b1e4,626b377229c10585ec392f89,626b3a4dda4ec33bab80ac61,,,,,,,,,,,,,,,,,,,,,,,l,1,2.4253,"[""0.035"",""0.089"",""0.710"",""0.817""]","[1,1,0,1]",0,8,8,8,1,1,1,,,1,FALSE,,,,,,,,,,,,,,,,,,,,,,,,,,,,,,
,616597ecca6e8d930673b1e4,001,2022-04-29_02h08.13.841,classification_task,2021.2.3,Win32,61.83144747,616597ecca6e8d930673b1e4,626b377229c10585ec392f89,626b3a4dda4ec33bab80ac61,,,,,,,,,,,,,,,,,,,,,,,a,1,2.1683,"[""0.261"",""0.336"",""0.647"",""0.893""]","[1,1,0,1]",0,9,9,9,1,0,1,,,1,FALSE,,,,,,,,,,,,,,,,,,,,,,,,,,,,,,
,616597ecca6e8d930673b1e4,001,2022-04-29_02h08.13.841,classification_task,2021.2.3,Win32,61.83144747,616597ecca6e8d930673b1e4,626b377229c10585ec392f89,626b3a4dda4ec33bab80ac61,,,,,,,,,,,,,,,,,,,,,,,l,1,1.6659,"[""0.035"",""0.089"",""0.556"",""0.720""]","[1,1,1,0]",0,10,10,10,1,1,1,,,1,FALSE,,,,,,,,,,,,,,,,,,,,,,,,,,,,,,
,616597ecca6e8d930673b1e4,001,2022-04-29_02h08.13.841,classification_task,2021.2.3,Win32,61.83144747,616597ecca6e8d930673b1e4,626b377229c10585ec392f89,626b3a4dda4ec33bab80ac61,,,,,,,,,,,,,,,,,,,,,,,a,1,3.0106,"[""0.710"",""0.507"",""0.855"",""0.959""]","[0,1,1,1]",0,11,11,11,1,0,0,,,1,FALSE,,,,,,,,,,,,,,,,,,,,,,,,,,,,,,
,616597ecca6e8d930673b1e4,001,2022-04-29_02h08.13.841,classification_task,2021.2.3,Win32,61.83144747,616597ecca6e8d930673b1e4,626b377229c10585ec392f89,626b3a4dda4ec33bab80ac61,,,,,,,,,,,,,,,,,,,,,,,a,1,1.6344,"[""0.188"",""0.507"",""0.855"",""0.701""]","[1,1,1,0]",0,12,12,12,1,0,0,,,1,FALSE,,,,,,,,,,,,,,,,,,,,,,,,,,,,,,
,616597ecca6e8d930673b1e4,001,2022-04-29_02h08.13.841,classification_task,2021.2.3,Win32,61.83144747,616597ecca6e8d930673b1e4,626b377229c10585ec392f89,626b3a4dda4ec33bab80ac61,,,,,,,,,,,,,,,,,,,,,,,a,1,1.7056,"[""0.261"",""0.715"",""0.595"",""0.893""]","[1,0,1,1]",0,13,13,13,1,0,1,,,1,FALSE,,,,,,,,,,,,,,,,,,,,,,,,,,,,,,
,616597ecca6e8d930673b1e4,001,2022-04-29_02h08.13.841,classification_task,2021.2.3,Win32,61.83144747,616597ecca6e8d930673b1e4,626b377229c10585ec392f89,626b3a4dda4ec33bab80ac61,,,,,,,,,,,,,,,,,,,,,,,l,1,2.8484,"[""0.719"",""0.089"",""0.556"",""0.817""]","[0,1,1,1]",0,14,14,14,1,1,1,,,1,FALSE,,,,,,,,,,,,,,,,,,,,,,,,,,,,,,
,616597ecca6e8d930673b1e4,001,2022-04-29_02h08.13.841,classification_task,2021.2.3,Win32,61.83144747,616597ecca6e8d930673b1e4,626b377229c10585ec392f89,626b3a4dda4ec33bab80ac61,,,,,,,,,,,,,,,,,,,,,,,a,1,2.0344,"[""0.261"",""0.336"",""0.595"",""0.710""]","[1,1,1,0]",0,15,15,15,1,0,1,,,1,FALSE,,,,,,,,,,,,,,,,,,,,,,,,,,,,,,
,616597ecca6e8d930673b1e4,001,2022-04-29_02h08.13.841,classification_task,2021.2.3,Win32,61.83144747,616597ecca6e8d930673b1e4,626b377229c10585ec392f89,626b3a4dda4ec33bab80ac61,,,,,,,,,,,,,,,,,,,,,,,l,1,1.6306,"[""0.127"",""0.647"",""0.442"",""0.768""]","[1,0,1,1]",0,16,16,16,1,1,0,,,1,FALSE,,,,,,,,,,,,,,,,,,,,,,,,,,,,,,
,616597ecca6e8d930673b1e4,001,2022-04-29_02h08.13.841,classification_task,2021.2.3,Win32,61.83144747,616597ecca6e8d930673b1e4,626b377229c10585ec392f89,626b3a4dda4ec33bab80ac61,,,,,,,,,,,,,,,,,,,,,,,l,1,2.0315,"[""0.127"",""0.375"",""0.442"",""0.669""]","[1,1,1,0]",0,17,17,17,1,1,0,,,1,FALSE,,,,,,,,,,,,,,,,,,,,,,,,,,,,,,
,616597ecca6e8d930673b1e4,001,2022-04-29_02h08.13.841,classification_task,2021.2.3,Win32,61.83144747,616597ecca6e8d930673b1e4,626b377229c10585ec392f89,626b3a4dda4ec33bab80ac61,,,,,,,,,,,,,,,,,,,,,,,a,1,1.4842,"[""0.188"",""0.647"",""0.855"",""0.959""]","[1,0,1,1]",0,18,18,18,1,0,0,,,1,FALSE,,,,,,,,,,,,,,,,,,,,,,,,,,,,,,
,616597ecca6e8d930673b1e4,001,2022-04-29_02h08.13.841,classification_task,2021.2.3,Win32,61.83144747,616597ecca6e8d930673b1e4,626b377229c10585ec392f89,626b3a4dda4ec33bab80ac61,,,,,,,,,,,,,,,,,,,,,,,l,1,1.8687,"[""0.720"",""0.375"",""0.442"",""0.768""]","[0,1,1,1]",0,19,19,19,1,1,0,,,1,FALSE,,,,,,,,,,,,,,,,,,,,,,,,,,,,,,
,616597ecca6e8d930673b1e4,001,2022-04-29_02h08.13.841,classification_task,2021.2.3,Win32,61.83144747,616597ecca6e8d930673b1e4,626b377229c10585ec392f89,626b3a4dda4ec33bab80ac61,,,,,,,,,,,,,,,,,,,,,,,a,1,1.6127,"[""0.635"",""0.507"",""0.855"",""0.959""]","[0,1,1,1]",0,20,20,20,1,0,0,,,1,FALSE,,,,,,,,,,,,,,,,,,,,,,,,,,,,,,
,616597ecca6e8d930673b1e4,001,2022-04-29_02h08.13.841,classification_task,2021.2.3,Win32,61.83144747,616597ecca6e8d930673b1e4,626b377229c10585ec392f89,626b3a4dda4ec33bab80ac61,,,,,,,,,,,,,,,,,,,,,,,l,1,1.9306,"[""0.035"",""0.089"",""0.556"",""0.647""]","[1,1,1,0]",0,21,21,21,1,1,1,,,1,FALSE,,,,,,,,,,,,,,,,,,,,,,,,,,,,,,
,616597ecca6e8d930673b1e4,001,2022-04-29_02h08.13.841,classification_task,2021.2.3,Win32,61.83144747,616597ecca6e8d930673b1e4,626b377229c10585ec392f89,626b3a4dda4ec33bab80ac61,,,,,,,,,,,,,,,,,,,,,,,a,1,3.2476,"[""0.261"",""0.226"",""0.595"",""0.893""]","[1,0,1,1]",0,22,22,22,1,0,1,,,1,FALSE,,,,,,,,,,,,,,,,,,,,,,,,,,,,,,
,616597ecca6e8d930673b1e4,001,2022-04-29_02h08.13.841,classification_task,2021.2.3,Win32,61.83144747,616597ecca6e8d930673b1e4,626b377229c10585ec392f89,626b3a4dda4ec33bab80ac61,,,,,,,,,,,,,,,,,,,,,,,a,1,1.8806,"[""0.188"",""0.507"",""0.669"",""0.959""]","[1,1,0,1]",0,23,23,23,1,0,0,,,1,FALSE,,,,,,,,,,,,,,,,,,,,,,,,,,,,,,
,616597ecca6e8d930673b1e4,001,2022-04-29_02h08.13.841,classification_task,2021.2.3,Win32,61.83144747,616597ecca6e8d930673b1e4,626b377229c10585ec392f89,626b3a4dda4ec33bab80ac61,,,,,,,,,,,,,,,,,,,,,,,l,1,1.8643,"[""0.647"",""0.089"",""0.556"",""0.817""]","[0,1,1,1]",0,24,24,24,1,1,1,,,1,FALSE,,,,,,,,,,,,,,,,,,,,,,,,,,,,,,
,616597ecca6e8d930673b1e4,001,2022-04-29_02h08.13.841,classification_task,2021.2.3,Win32,61.83144747,616597ecca6e8d930673b1e4,626b377229c10585ec392f89,626b3a4dda4ec33bab80ac61,,,,,,,,,,,,,,,,,,,,,,,a,1,1.4635,"[""0.261"",""0.336"",""0.628"",""0.893""]","[1,1,0,1]",0,25,25,25,1,0,1,,,1,FALSE,,,,,,,,,,,,,,,,,,,,,,,,,,,,,,
,616597ecca6e8d930673b1e4,001,2022-04-29_02h08.13.841,classification_task,2021.2.3,Win32,61.83144747,616597ecca6e8d930673b1e4,626b377229c10585ec392f89,626b3a4dda4ec33bab80ac61,,,,,,,,,,,,,,,,,,,,,,,a,1,1.9546,"[""0.261"",""0.336"",""0.595"",""0.719""]","[1,1,1,0]",0,26,26,26,1,0,1,,,1,FALSE,,,,,,,,,,,,,,,,,,,,,,,,,,,,,,
,616597ecca6e8d930673b1e4,001,2022-04-29_02h08.13.841,classification_task,2021.2.3,Win32,61.83144747,616597ecca6e8d930673b1e4,626b377229c10585ec392f89,626b3a4dda4ec33bab80ac61,,,,,,,,,,,,,,,,,,,,,,,l,1,1.4162,"[""0.035"",""0.647"",""0.556"",""0.817""]","[1,0,1,1]",0,27,27,27,1,1,1,,,1,FALSE,,,,,,,,,,,,,,,,,,,,,,,,,,,,,,
,616597ecca6e8d930673b1e4,001,2022-04-29_02h08.13.841,classification_task,2021.2.3,Win32,61.83144747,616597ecca6e8d930673b1e4,626b377229c10585ec392f89,626b3a4dda4ec33bab80ac61,,,,,,,,,,,,,,,,,,,,,,,l,1,0.8147,"[""0.035"",""0.089"",""0.632"",""0.817""]","[1,1,0,1]",0,28,28,28,1,1,1,,,1,FALSE,,,,,,,,,,,,,,,,,,,,,,,,,,,,,,
,616597ecca6e8d930673b1e4,001,2022-04-29_02h08.13.841,classification_task,2021.2.3,Win32,61.83144747,616597ecca6e8d930673b1e4,626b377229c10585ec392f89,626b3a4dda4ec33bab80ac61,,,,,,,,,,,,,,,,,,,,,,,a,1,1.6093,"[""0.188"",""0.507"",""0.855"",""0.715""]","[1,1,1,0]",0,29,29,29,1,0,0,,,1,FALSE,,,,,,,,,,,,,,,,,,,,,,,,,,,,,,
,616597ecca6e8d930673b1e4,001,2022-04-29_02h08.13.841,classification_task,2021.2.3,Win32,61.83144747,616597ecca6e8d930673b1e4,626b377229c10585ec392f89,626b3a4dda4ec33bab80ac61,,,,,,,,,,,,,,,,,,,,,,,l,1,1.9652,"[""0.127"",""0.375"",""0.710"",""0.768""]","[1,1,0,1]",0,30,30,30,1,1,0,,,1,FALSE,,,,,,,,,,,,,,,,,,,,,,,,,,,,,,
,616597ecca6e8d930673b1e4,001,2022-04-29_02h08.13.841,classification_task,2021.2.3,Win32,61.83144747,616597ecca6e8d930673b1e4,626b377229c10585ec392f89,626b3a4dda4ec33bab80ac61,,,,,,,,,,,,,,,,,,,,,,,a,1,1.7949,"[""0.720"",""0.336"",""0.595"",""0.893""]","[0,1,1,1]",0,31,31,31,1,0,1,,,1,FALSE,,,,,,,,,,,,,,,,,,,,,,,,,,,,,,
,616597ecca6e8d930673b1e4,001,2022-04-29_02h08.13.841,classification_task,2021.2.3,Win32,61.83144747,616597ecca6e8d930673b1e4,626b377229c10585ec392f89,626b3a4dda4ec33bab80ac61,,,,,,,,,,,,,,,,,,,,,,,l,1,2.2727,"[""0.035"",""0.089"",""0.719"",""0.817""]","[1,1,0,1]",0,32,32,32,1,1,1,,,1,FALSE,,,,,,,,,,,,,,,,,,,,,,,,,,,,,,
,616597ecca6e8d930673b1e4,001,2022-04-29_02h08.13.841,classification_task,2021.2.3,Win32,61.83144747,616597ecca6e8d930673b1e4,626b377229c10585ec392f89,626b3a4dda4ec33bab80ac61,,,,,,,,,,,,,,,,,,,,,,,a,1,0.9711,"[""0.188"",""0.507"",""0.855"",""0.669""]","[1,1,1,0]",0,33,33,33,1,0,0,,,1,FALSE,,,,,,,,,,,,,,,,,,,,,,,,,,,,,,
,616597ecca6e8d930673b1e4,001,2022-04-29_02h08.13.841,classification_task,2021.2.3,Win32,61.83144747,616597ecca6e8d930673b1e4,626b377229c10585ec392f89,626b3a4dda4ec33bab80ac61,,,,,,,,,,,,,,,,,,,,,,,l,1,1.883,"[""0.654"",""0.089"",""0.556"",""0.817""]","[0,1,1,1]",0,34,34,34,1,1,1,,,1,FALSE,,,,,,,,,,,,,,,,,,,,,,,,,,,,,,
,616597ecca6e8d930673b1e4,001,2022-04-29_02h08.13.841,classification_task,2021.2.3,Win32,61.83144747,616597ecca6e8d930673b1e4,626b377229c10585ec392f89,626b3a4dda4ec33bab80ac61,,,,,,,,,,,,,,,,,,,,,,,a,1,1.8165,"[""0.188"",""0.649"",""0.855"",""0.959""]","[1,0,1,1]",0,35,35,35,1,0,0,,,1,FALSE,,,,,,,,,,,,,,,,,,,,,,,,,,,,,,
,616597ecca6e8d930673b1e4,001,2022-04-29_02h08.13.841,classification_task,2021.2.3,Win32,61.83144747,616597ecca6e8d930673b1e4,626b377229c10585ec392f89,626b3a4dda4ec33bab80ac61,,,,,,,,,,,,,,,,,,,,,,,l,1,0.8847,"[""0.127"",""0.632"",""0.442"",""0.768""]","[1,0,1,1]",0,36,36,36,1,1,0,,,1,FALSE,,,,,,,,,,,,,,,,,,,,,,,,,,,,,,
,616597ecca6e8d930673b1e4,001,2022-04-29_02h08.13.841,classification_task,2021.2.3,Win32,61.83144747,616597ecca6e8d930673b1e4,626b377229c10585ec392f89,626b3a4dda4ec33bab80ac61,,,,,,,,,,,,,,,,,,,,,,,l,1,0.9153,"[""0.127"",""0.375"",""0.701"",""0.768""]","[1,1,0,1]",0,37,37,37,1,1,0,,,1,FALSE,,,,,,,,,,,,,,,,,,,,,,,,,,,,,,
,616597ecca6e8d930673b1e4,001,2022-04-29_02h08.13.841,classification_task,2021.2.3,Win32,61.83144747,616597ecca6e8d930673b1e4,626b377229c10585ec392f89,626b3a4dda4ec33bab80ac61,,,,,,,,,,,,,,,,,,,,,,,l,1,2.1839,"[""0.635"",""0.375"",""0.442"",""0.768""]","[0,1,1,1]",0,38,38,38,1,1,0,,,1,FALSE,,,,,,,,,,,,,,,,,,,,,,,,,,,,,,
,616597ecca6e8d930673b1e4,001,2022-04-29_02h08.13.841,classification_task,2021.2.3,Win32,61.83144747,616597ecca6e8d930673b1e4,626b377229c10585ec392f89,626b3a4dda4ec33bab80ac61,,,,,,,,,,,,,,,,,,,,,,,a,1,1.3795,"[""0.261"",""0.336"",""0.719"",""0.893""]","[1,1,0,1]",0,39,39,39,1,0,1,,,1,FALSE,,,,,,,,,,,,,,,,,,,,,,,,,,,,,,
,616597ecca6e8d930673b1e4,001,2022-04-29_02h08.13.841,classification_task,2021.2.3,Win32,61.83144747,616597ecca6e8d930673b1e4,626b377229c10585ec392f89,626b3a4dda4ec33bab80ac61,,,,,,,,,,,,,,,,,,,,,,,a,0,1.1084,"[""0.035"",""0.226"",""0.556"",""0.817""]","[1,0,1,1]",0,40,40,40,1,1,1,,,1,FALSE,,,,,,,,,,,,,,,,,,,,,,,,,,,,,,
,616597ecca6e8d930673b1e4,001,2022-04-29_02h08.13.841,classification_task,2021.2.3,Win32,61.83144747,616597ecca6e8d930673b1e4,626b377229c10585ec392f89,626b3a4dda4ec33bab80ac61,,,,,,,,,,,,,,,,,,,,,,,a,1,1.3929,"[""0.188"",""0.507"",""0.654"",""0.959""]","[1,1,0,1]",0,41,41,41,1,0,0,,,1,FALSE,,,,,,,,,,,,,,,,,,,,,,,,,,,,,,
,616597ecca6e8d930673b1e4,001,2022-04-29_02h08.13.841,classification_task,2021.2.3,Win32,61.83144747,616597ecca6e8d930673b1e4,626b377229c10585ec392f89,626b3a4dda4ec33bab80ac61,,,,,,,,,,,,,,,,,,,,,,,l,1,0.8185,"[""0.127"",""0.375"",""0.442"",""0.715""]","[1,1,1,0]",0,42,42,42,1,1,0,,,1,FALSE,,,,,,,,,,,,,,,,,,,,,,,,,,,,,,
,616597ecca6e8d930673b1e4,001,2022-04-29_02h08.13.841,classification_task,2021.2.3,Win32,61.83144747,616597ecca6e8d930673b1e4,626b377229c10585ec392f89,626b3a4dda4ec33bab80ac61,,,,,,,,,,,,,,,,,,,,,,,l,0,1.4791,"[""0.715"",""0.336"",""0.595"",""0.893""]","[0,1,1,1]",0,43,43,43,1,0,1,,,1,FALSE,,,,,,,,,,,,,,,,,,,,,,,,,,,,,,
,616597ecca6e8d930673b1e4,001,2022-04-29_02h08.13.841,classification_task,2021.2.3,Win32,61.83144747,616597ecca6e8d930673b1e4,626b377229c10585ec392f89,626b3a4dda4ec33bab80ac61,,,,,,,,,,,,,,,,,,,,,,,l,0,1.1641,"[""0.261"",""0.336"",""0.595"",""0.632""]","[1,1,1,0]",0,44,44,44,1,0,1,,,1,FALSE,,,,,,,,,,,,,,,,,,,,,,,,,,,,,,
,616597ecca6e8d930673b1e4,001,2022-04-29_02h08.13.841,classification_task,2021.2.3,Win32,61.83144747,616597ecca6e8d930673b1e4,626b377229c10585ec392f89,626b3a4dda4ec33bab80ac61,,,,,,,,,,,,,,,,,,,,,,,l,1,1.1311,"[""0.035"",""0.089"",""0.556"",""0.628""]","[1,1,1,0]",0,45,45,45,1,1,1,,,1,FALSE,,,,,,,,,,,,,,,,,,,,,,,,,,,,,,
,616597ecca6e8d930673b1e4,001,2022-04-29_02h08.13.841,classification_task,2021.2.3,Win32,61.83144747,616597ecca6e8d930673b1e4,626b377229c10585ec392f89,626b3a4dda4ec33bab80ac61,,,,,,,,,,,,,,,,,,,,,,,a,1,0.9474,"[""0.710"",""0.507"",""0.855"",""0.959""]","[0,1,1,1]",0,46,46,46,1,0,0,,,1,FALSE,,,,,,,,,,,,,,,,,,,,,,,,,,,,,,
,616597ecca6e8d930673b1e4,001,2022-04-29_02h08.13.841,classification_task,2021.2.3,Win32,61.83144747,616597ecca6e8d930673b1e4,626b377229c10585ec392f89,626b3a4dda4ec33bab80ac61,,,,,,,,,,,,,,,,,,,,,,,a,1,1.749,"[""0.261"",""0.715"",""0.595"",""0.893""]","[1,0,1,1]",0,47,47,47,1,0,1,,,1,FALSE,,,,,,,,,,,,,,,,,,,,,,,,,,,,,,
,616597ecca6e8d930673b1e4,001,2022-04-29_02h08.13.841,classification_task,2021.2.3,Win32,61.83144747,616597ecca6e8d930673b1e4,626b377229c10585ec392f89,626b3a4dda4ec33bab80ac61,,,,,,,,,,,,,,,,,,,,,,,l,0,1.2053,"[""0.647"",""0.336"",""0.595"",""0.893""]","[0,1,1,1]",0,48,48,48,1,0,1,,,1,FALSE,,,,,,,,,,,,,,,,,,,,,,,,,,,,,,
,616597ecca6e8d930673b1e4,001,2022-04-29_02h08.13.841,classification_task,2021.2.3,Win32,61.83144747,616597ecca6e8d930673b1e4,626b377229c10585ec392f89,626b3a4dda4ec33bab80ac61,,,,,,,,,,,,,,,,,,,,,,,l,0,0.8164,"[""0.701"",""0.507"",""0.855"",""0.959""]","[0,1,1,1]",0,49,49,49,1,0,0,,,1,FALSE,,,,,,,,,,,,,,,,,,,,,,,,,,,,,,
,616597ecca6e8d930673b1e4,001,2022-04-29_02h08.13.841,classification_task,2021.2.3,Win32,61.83144747,616597ecca6e8d930673b1e4,626b377229c10585ec392f89,626b3a4dda4ec33bab80ac61,,,,,,,,,,,,,,,,,,,,,,,l,1,1.1813,"[""0.035"",""0.654"",""0.556"",""0.817""]","[1,0,1,1]",0,50,50,50,1,1,1,,,1,FALSE,,,,,,,,,,,,,,,,,,,,,,,,,,,,,,
,616597ecca6e8d930673b1e4,001,2022-04-29_02h08.13.841,classification_task,2021.2.3,Win32,61.83144747,616597ecca6e8d930673b1e4,626b377229c10585ec392f89,626b3a4dda4ec33bab80ac61,,,,,,,,,,,,,,,,,,,,,,,a,0,0.8804,"[""0.127"",""0.375"",""0.635"",""0.768""]","[1,1,0,1]",0,51,51,51,1,1,0,,,1,FALSE,,,,,,,,,,,,,,,,,,,,,,,,,,,,,,
,616597ecca6e8d930673b1e4,001,2022-04-29_02h08.13.841,classification_task,2021.2.3,Win32,61.83144747,616597ecca6e8d930673b1e4,626b377229c10585ec392f89,626b3a4dda4ec33bab80ac61,,,,,,,,,,,,,,,,,,,,,,,a,1,1.2152,"[""0.188"",""0.720"",""0.855"",""0.959""]","[1,0,1,1]",0,52,52,52,1,0,0,,,1,FALSE,,,,,,,,,,,,,,,,,,,,,,,,,,,,,,
,616597ecca6e8d930673b1e4,001,2022-04-29_02h08.13.841,classification_task,2021.2.3,Win32,61.83144747,616597ecca6e8d930673b1e4,626b377229c10585ec392f89,626b3a4dda4ec33bab80ac61,,,,,,,,,,,,,,,,,,,,,,,a,0,1.1487,"[""0.654"",""0.375"",""0.442"",""0.768""]","[0,1,1,1]",0,53,53,53,1,1,0,,,1,FALSE,,,,,,,,,,,,,,,,,,,,,,,,,,,,,,
,616597ecca6e8d930673b1e4,001,2022-04-29_02h08.13.841,classification_task,2021.2.3,Win32,61.83144747,616597ecca6e8d930673b1e4,626b377229c10585ec392f89,626b3a4dda4ec33bab80ac61,,,,,,,,,,,,,,,,,,,,,,,a,0,1.5465,"[""0.035"",""0.089"",""0.628"",""0.817""]","[1,1,0,1]",0,54,54,54,1,1,1,,,1,FALSE,,,,,,,,,,,,,,,,,,,,,,,,,,,,,,
,616597ecca6e8d930673b1e4,001,2022-04-29_02h08.13.841,classification_task,2021.2.3,Win32,61.83144747,616597ecca6e8d930673b1e4,626b377229c10585ec392f89,626b3a4dda4ec33bab80ac61,,,,,,,,,,,,,,,,,,,,,,,a,0,1.1666,"[""0.647"",""0.089"",""0.556"",""0.817""]","[0,1,1,1]",0,55,55,55,1,1,1,,,1,FALSE,,,,,,,,,,,,,,,,,,,,,,,,,,,,,,
,616597ecca6e8d930673b1e4,001,2022-04-29_02h08.13.841,classification_task,2021.2.3,Win32,61.83144747,616597ecca6e8d930673b1e4,626b377229c10585ec392f89,626b3a4dda4ec33bab80ac61,,,,,,,,,,,,,,,,,,,,,,,a,1,0.4799,"[""0.261"",""0.710"",""0.595"",""0.893""]","[1,0,1,1]",0,56,56,56,1,0,1,,,1,FALSE,,,,,,,,,,,,,,,,,,,,,,,,,,,,,,
,616597ecca6e8d930673b1e4,001,2022-04-29_02h08.13.841,classification_task,2021.2.3,Win32,61.83144747,616597ecca6e8d930673b1e4,626b377229c10585ec392f89,626b3a4dda4ec33bab80ac61,,,,,,,,,,,,,,,,,,,,,,,l,1,2.1985,"[""0.127"",""0.649"",""0.442"",""0.768""]","[1,0,1,1]",0,57,57,57,1,1,0,,,1,FALSE,,,,,,,,,,,,,,,,,,,,,,,,,,,,,,
,616597ecca6e8d930673b1e4,001,2022-04-29_02h08.13.841,classification_task,2021.2.3,Win32,61.83144747,616597ecca6e8d930673b1e4,626b377229c10585ec392f89,626b3a4dda4ec33bab80ac61,,,,,,,,,,,,,,,,,,,,,,,a,1,0.9896,"[""0.188"",""0.507"",""0.855"",""0.677""]","[1,1,1,0]",0,58,58,58,1,0,0,,,1,FALSE,,,,,,,,,,,,,,,,,,,,,,,,,,,,,,
,616597ecca6e8d930673b1e4,001,2022-04-29_02h08.13.841,classification_task,2021.2.3,Win32,61.83144747,616597ecca6e8d930673b1e4,626b377229c10585ec392f89,626b3a4dda4ec33bab80ac61,,,,,,,,,,,,,,,,,,,,,,,a,1,2.0638,"[""0.261"",""0.336"",""0.595"",""0.669""]","[1,1,1,0]",0,59,59,59,1,0,1,,,1,FALSE,,,,,,,,,,,,,,,,,,,,,,,,,,,,,,
,616597ecca6e8d930673b1e4,001,2022-04-29_02h08.13.841,classification_task,2021.2.3,Win32,61.83144747,616597ecca6e8d930673b1e4,626b377229c10585ec392f89,626b3a4dda4ec33bab80ac61,,,,,,,,,,,,,,,,,,,,,,,a,1,2.5641,"[""0.188"",""0.507"",""0.226"",""0.959""]","[1,1,0,1]",0,60,60,60,1,0,0,,,1,FALSE,,,,,,,,,,,,,,,,,,,,,,,,,,,,,,
,616597ecca6e8d930673b1e4,001,2022-04-29_02h08.13.841,classification_task,2021.2.3,Win32,61.83144747,616597ecca6e8d930673b1e4,626b377229c10585ec392f89,626b3a4dda4ec33bab80ac61,,,,,,,,,,,,,,,,,,,,,,,l,1,0.8177,"[""0.127"",""0.375"",""0.442"",""0.683""]","[1,1,1,0]",0,61,61,61,1,1,0,,,1,FALSE,,,,,,,,,,,,,,,,,,,,,,,,,,,,,,
,616597ecca6e8d930673b1e4,001,2022-04-29_02h08.13.841,classification_task,2021.2.3,Win32,61.83144747,616597ecca6e8d930673b1e4,626b377229c10585ec392f89,626b3a4dda4ec33bab80ac61,,,,,,,,,,,,,,,,,,,,,,,a,0,1.3979,"[""0.035"",""0.089"",""0.556"",""0.677""]","[1,1,1,0]",0,62,62,62,1,1,1,,,1,FALSE,,,,,,,,,,,,,,,,,,,,,,,,,,,,,,
,616597ecca6e8d930673b1e4,001,2022-04-29_02h08.13.841,classification_task,2021.2.3,Win32,61.83144747,616597ecca6e8d930673b1e4,626b377229c10585ec392f89,626b3a4dda4ec33bab80ac61,,,,,,,,,,,,,,,,,,,,,,,l,0,1.1995,"[""0.261"",""0.336"",""0.719"",""0.893""]","[1,1,0,1]",0,63,63,63,1,0,1,,,1,FALSE,,,,,,,,,,,,,,,,,,,,,,,,,,,,,,
,616597ecca6e8d930673b1e4,001,2022-04-29_02h08.13.841,classification_task,2021.2.3,Win32,61.83144747,616597ecca6e8d930673b1e4,626b377229c10585ec392f89,626b3a4dda4ec33bab80ac61,,,,,,,,,,,,,,,,,,,,,,,,,,,,,,,,,,,,,,,0, ,,0,8.870272389,317.1896,0,0,0,0,1,2,1,,,,,,,,,,,,,,,,,
,616597ecca6e8d930673b1e4,001,2022-04-29_02h08.13.841,classification_task,2021.2.3,Win32,61.83144747,616597ecca6e8d930673b1e4,626b377229c10585ec392f89,626b3a4dda4ec33bab80ac61,,,,,,,,,,,,,,,,,,,,,,,,,,,,,,,,,,,,,,,1,  ,,0,7.988438174,321.4624,0,0,0,0,1,2,1,,,,,,,,,,,,,,,,,
,616597ecca6e8d930673b1e4,001,2022-04-29_02h08.13.841,classification_task,2021.2.3,Win32,61.83144747,616597ecca6e8d930673b1e4,626b377229c10585ec392f89,626b3a4dda4ec33bab80ac61,,,,,,,,,,,,,,,,,,,,,,,,,,,,,,,,,,,,,,,2,  ,,0,6.273760533,324.3759,0,0,0,0,1,2,1,,,,,,,,,,,,,,,,,
,616597ecca6e8d930673b1e4,001,2022-04-29_02h08.13.841,classification_task,2021.2.3,Win32,61.83144747,616597ecca6e8d930673b1e4,626b377229c10585ec392f89,626b3a4dda4ec33bab80ac61,,,,,,,,,,,,,,,,,,,,,,,,,,,,,,,,,,,,,,,,,,,,,0,0,0,0,1,,1,,,,,,,,,,,,,,,,,
,616597ecca6e8d930673b1e4,001,2022-04-29_02h08.13.841,classification_task,2021.2.3,Win32,61.83144747,616597ecca6e8d930673b1e4,626b377229c10585ec392f89,626b3a4dda4ec33bab80ac61,,,,,,,,,,,,,,,,,,,,,space,6.6268,a,0,2.8157,"[""0.127"",""0.375"",""0.628"",""0.768""]","[1,1,0,1]",0,0,0,0,1,1,0,,,1,FALSE,,,,,,,,,,,,,,,,,,,,,,,,,,,,,,
,616597ecca6e8d930673b1e4,001,2022-04-29_02h08.13.841,classification_task,2021.2.3,Win32,61.83144747,616597ecca6e8d930673b1e4,626b377229c10585ec392f89,626b3a4dda4ec33bab80ac61,,,,,,,,,,,,,,,,,,,,,,,a,1,2.3274,"[""0.261"",""0.336"",""0.595"",""0.701""]","[1,1,1,0]",0,1,1,1,1,0,1,,,1,FALSE,,,,,,,,,,,,,,,,,,,,,,,,,,,,,,
,616597ecca6e8d930673b1e4,001,2022-04-29_02h08.13.841,classification_task,2021.2.3,Win32,61.83144747,616597ecca6e8d930673b1e4,626b377229c10585ec392f89,626b3a4dda4ec33bab80ac61,,,,,,,,,,,,,,,,,,,,,,,l,1,2.3503,"[""0.035"",""0.089"",""0.556"",""0.701""]","[1,1,1,0]",0,2,2,2,1,1,1,,,1,FALSE,,,,,,,,,,,,,,,,,,,,,,,,,,,,,,
,616597ecca6e8d930673b1e4,001,2022-04-29_02h08.13.841,classification_task,2021.2.3,Win32,61.83144747,616597ecca6e8d930673b1e4,626b377229c10585ec392f89,626b3a4dda4ec33bab80ac61,,,,,,,,,,,,,,,,,,,,,,,a,0,1.9498,"[""0.677"",""0.375"",""0.442"",""0.768""]","[0,1,1,1]",0,3,3,3,1,1,0,,,1,FALSE,,,,,,,,,,,,,,,,,,,,,,,,,,,,,,
,616597ecca6e8d930673b1e4,001,2022-04-29_02h08.13.841,classification_task,2021.2.3,Win32,61.83144747,616597ecca6e8d930673b1e4,626b377229c10585ec392f89,626b3a4dda4ec33bab80ac61,,,,,,,,,,,,,,,,,,,,,,,l,1,1.1191,"[""0.035"",""0.089"",""0.635"",""0.817""]","[1,1,0,1]",0,4,4,4,1,1,1,,,1,FALSE,,,,,,,,,,,,,,,,,,,,,,,,,,,,,,
,616597ecca6e8d930673b1e4,001,2022-04-29_02h08.13.841,classification_task,2021.2.3,Win32,61.83144747,616597ecca6e8d930673b1e4,626b377229c10585ec392f89,626b3a4dda4ec33bab80ac61,,,,,,,,,,,,,,,,,,,,,,,a,0,1.1914,"[""0.035"",""0.226"",""0.556"",""0.817""]","[1,0,1,1]",0,5,5,5,1,1,1,,,1,FALSE,,,,,,,,,,,,,,,,,,,,,,,,,,,,,,
,616597ecca6e8d930673b1e4,001,2022-04-29_02h08.13.841,classification_task,2021.2.3,Win32,61.83144747,616597ecca6e8d930673b1e4,626b377229c10585ec392f89,626b3a4dda4ec33bab80ac61,,,,,,,,,,,,,,,,,,,,,,,a,1,1.1744,"[""0.188"",""0.710"",""0.855"",""0.959""]","[1,0,1,1]",0,6,6,6,1,0,0,,,1,FALSE,,,,,,,,,,,,,,,,,,,,,,,,,,,,,,
,616597ecca6e8d930673b1e4,001,2022-04-29_02h08.13.841,classification_task,2021.2.3,Win32,61.83144747,616597ecca6e8d930673b1e4,626b377229c10585ec392f89,626b3a4dda4ec33bab80ac61,,,,,,,,,,,,,,,,,,,,,,,a,0,2.2552,"[""0.226"",""0.089"",""0.556"",""0.817""]","[0,1,1,1]",0,7,7,7,1,1,1,,,1,FALSE,,,,,,,,,,,,,,,,,,,,,,,,,,,,,,
,616597ecca6e8d930673b1e4,001,2022-04-29_02h08.13.841,classification_task,2021.2.3,Win32,61.83144747,616597ecca6e8d930673b1e4,626b377229c10585ec392f89,626b3a4dda4ec33bab80ac61,,,,,,,,,,,,,,,,,,,,,,,a,1,1.2477,"[""0.188"",""0.507"",""0.855"",""0.628""]","[1,1,1,0]",0,8,8,8,1,0,0,,,1,FALSE,,,,,,,,,,,,,,,,,,,,,,,,,,,,,,
,616597ecca6e8d930673b1e4,001,2022-04-29_02h08.13.841,classification_task,2021.2.3,Win32,61.83144747,616597ecca6e8d930673b1e4,626b377229c10585ec392f89,626b3a4dda4ec33bab80ac61,,,,,,,,,,,,,,,,,,,,,,,l,0,0.8118,"[""0.632"",""0.507"",""0.855"",""0.959""]","[0,1,1,1]",0,9,9,9,1,0,0,,,1,FALSE,,,,,,,,,,,,,,,,,,,,,,,,,,,,,,
,616597ecca6e8d930673b1e4,001,2022-04-29_02h08.13.841,classification_task,2021.2.3,Win32,61.83144747,616597ecca6e8d930673b1e4,626b377229c10585ec392f89,626b3a4dda4ec33bab80ac61,,,,,,,,,,,,,,,,,,,,,,,l,1,1.1105,"[""0.127"",""0.683"",""0.442"",""0.768""]","[1,0,1,1]",0,10,10,10,1,1,0,,,1,FALSE,,,,,,,,,,,,,,,,,,,,,,,,,,,,,,
,616597ecca6e8d930673b1e4,001,2022-04-29_02h08.13.841,classification_task,2021.2.3,Win32,61.83144747,616597ecca6e8d930673b1e4,626b377229c10585ec392f89,626b3a4dda4ec33bab80ac61,,,,,,,,,,,,,,,,,,,,,,,l,1,0.7105,"[""0.127"",""0.375"",""0.442"",""0.669""]","[1,1,1,0]",0,11,11,11,1,1,0,,,1,FALSE,,,,,,,,,,,,,,,,,,,,,,,,,,,,,,
,616597ecca6e8d930673b1e4,001,2022-04-29_02h08.13.841,classification_task,2021.2.3,Win32,61.83144747,616597ecca6e8d930673b1e4,626b377229c10585ec392f89,626b3a4dda4ec33bab80ac61,,,,,,,,,,,,,,,,,,,,,,,a,1,0.8285,"[""0.188"",""0.507"",""0.677"",""0.959""]","[1,1,0,1]",0,12,12,12,1,0,0,,,1,FALSE,,,,,,,,,,,,,,,,,,,,,,,,,,,,,,
,616597ecca6e8d930673b1e4,001,2022-04-29_02h08.13.841,classification_task,2021.2.3,Win32,61.83144747,616597ecca6e8d930673b1e4,626b377229c10585ec392f89,626b3a4dda4ec33bab80ac61,,,,,,,,,,,,,,,,,,,,,,,l,0,1.618,"[""0.261"",""0.669"",""0.595"",""0.893""]","[1,0,1,1]",0,13,13,13,1,0,1,,,1,FALSE,,,,,,,,,,,,,,,,,,,,,,,,,,,,,,
,616597ecca6e8d930673b1e4,001,2022-04-29_02h08.13.841,classification_task,2021.2.3,Win32,61.83144747,616597ecca6e8d930673b1e4,626b377229c10585ec392f89,626b3a4dda4ec33bab80ac61,,,,,,,,,,,,,,,,,,,,,,,l,0,1.1339,"[""0.261"",""0.336"",""0.632"",""0.893""]","[1,1,0,1]",0,14,14,14,1,0,1,,,1,FALSE,,,,,,,,,,,,,,,,,,,,,,,,,,,,,,
,616597ecca6e8d930673b1e4,001,2022-04-29_02h08.13.841,classification_task,2021.2.3,Win32,61.83144747,616597ecca6e8d930673b1e4,626b377229c10585ec392f89,626b3a4dda4ec33bab80ac61,,,,,,,,,,,,,,,,,,,,,,,l,0,0.262,"[""0.710"",""0.336"",""0.595"",""0.893""]","[0,1,1,1]",0,15,15,15,1,0,1,,,1,FALSE,,,,,,,,,,,,,,,,,,,,,,,,,,,,,,
,616597ecca6e8d930673b1e4,001,2022-04-29_02h08.13.841,classification_task,2021.2.3,Win32,61.83144747,616597ecca6e8d930673b1e4,626b377229c10585ec392f89,626b3a4dda4ec33bab80ac61,,,,,,,,,,,,,,,,,,,,,,,l,1,0.2891,"[""0.127"",""0.375"",""0.683"",""0.768""]","[1,1,0,1]",0,16,16,16,1,1,0,,,1,FALSE,,,,,,,,,,,,,,,,,,,,,,,,,,,,,,
,616597ecca6e8d930673b1e4,001,2022-04-29_02h08.13.841,classification_task,2021.2.3,Win32,61.83144747,616597ecca6e8d930673b1e4,626b377229c10585ec392f89,626b3a4dda4ec33bab80ac61,,,,,,,,,,,,,,,,,,,,,,,a,0,1.068,"[""0.035"",""0.089"",""0.556"",""0.647""]","[1,1,1,0]",0,17,17,17,1,1,1,,,1,FALSE,,,,,,,,,,,,,,,,,,,,,,,,,,,,,,
,616597ecca6e8d930673b1e4,001,2022-04-29_02h08.13.841,classification_task,2021.2.3,Win32,61.83144747,616597ecca6e8d930673b1e4,626b377229c10585ec392f89,626b3a4dda4ec33bab80ac61,,,,,,,,,,,,,,,,,,,,,,,l,1,1.3497,"[""0.127"",""0.375"",""0.442"",""0.701""]","[1,1,1,0]",0,18,18,18,1,1,0,,,1,FALSE,,,,,,,,,,,,,,,,,,,,,,,,,,,,,,
,616597ecca6e8d930673b1e4,001,2022-04-29_02h08.13.841,classification_task,2021.2.3,Win32,61.83144747,616597ecca6e8d930673b1e4,626b377229c10585ec392f89,626b3a4dda4ec33bab80ac61,,,,,,,,,,,,,,,,,,,,,,,a,0,1.9654,"[""0.035"",""0.628"",""0.556"",""0.817""]","[1,0,1,1]",0,19,19,19,1,1,1,,,1,FALSE,,,,,,,,,,,,,,,,,,,,,,,,,,,,,,
,616597ecca6e8d930673b1e4,001,2022-04-29_02h08.13.841,classification_task,2021.2.3,Win32,61.83144747,616597ecca6e8d930673b1e4,626b377229c10585ec392f89,626b3a4dda4ec33bab80ac61,,,,,,,,,,,,,,,,,,,,,,,a,1,1.0451,"[""0.720"",""0.336"",""0.595"",""0.893""]","[0,1,1,1]",0,20,20,20,1,0,1,,,1,FALSE,,,,,,,,,,,,,,,,,,,,,,,,,,,,,,
,616597ecca6e8d930673b1e4,001,2022-04-29_02h08.13.841,classification_task,2021.2.3,Win32,61.83144747,616597ecca6e8d930673b1e4,626b377229c10585ec392f89,626b3a4dda4ec33bab80ac61,,,,,,,,,,,,,,,,,,,,,,,a,1,1.0387,"[""0.188"",""0.507"",""0.855"",""0.715""]","[1,1,1,0]",0,21,21,21,1,0,0,,,1,FALSE,,,,,,,,,,,,,,,,,,,,,,,,,,,,,,
,616597ecca6e8d930673b1e4,001,2022-04-29_02h08.13.841,classification_task,2021.2.3,Win32,61.83144747,616597ecca6e8d930673b1e4,626b377229c10585ec392f89,626b3a4dda4ec33bab80ac61,,,,,,,,,,,,,,,,,,,,,,,l,0,2.6122,"[""0.647"",""0.507"",""0.855"",""0.959""]","[0,1,1,1]",0,22,22,22,1,0,0,,,1,FALSE,,,,,,,,,,,,,,,,,,,,,,,,,,,,,,
,616597ecca6e8d930673b1e4,001,2022-04-29_02h08.13.841,classification_task,2021.2.3,Win32,61.83144747,616597ecca6e8d930673b1e4,626b377229c10585ec392f89,626b3a4dda4ec33bab80ac61,,,,,,,,,,,,,,,,,,,,,,,l,0,1.099,"[""0.261"",""0.715"",""0.595"",""0.893""]","[1,0,1,1]",0,23,23,23,1,0,1,,,1,FALSE,,,,,,,,,,,,,,,,,,,,,,,,,,,,,,
,616597ecca6e8d930673b1e4,001,2022-04-29_02h08.13.841,classification_task,2021.2.3,Win32,61.83144747,616597ecca6e8d930673b1e4,626b377229c10585ec392f89,626b3a4dda4ec33bab80ac61,,,,,,,,,,,,,,,,,,,,,,,l,1,1.2669,"[""0.127"",""0.720"",""0.442"",""0.768""]","[1,0,1,1]",0,24,24,24,1,1,0,,,1,FALSE,,,,,,,,,,,,,,,,,,,,,,,,,,,,,,
,616597ecca6e8d930673b1e4,001,2022-04-29_02h08.13.841,classification_task,2021.2.3,Win32,61.83144747,616597ecca6e8d930673b1e4,626b377229c10585ec392f89,626b3a4dda4ec33bab80ac61,,,,,,,,,,,,,,,,,,,,,,,a,1,0.6821,"[""0.188"",""0.507"",""0.669"",""0.959""]","[1,1,0,1]",0,25,25,25,1,0,0,,,1,FALSE,,,,,,,,,,,,,,,,,,,,,,,,,,,,,,
,616597ecca6e8d930673b1e4,001,2022-04-29_02h08.13.841,classification_task,2021.2.3,Win32,61.83144747,616597ecca6e8d930673b1e4,626b377229c10585ec392f89,626b3a4dda4ec33bab80ac61,,,,,,,,,,,,,,,,,,,,,,,a,1,0.9653,"[""0.188"",""0.226"",""0.855"",""0.959""]","[1,0,1,1]",0,26,26,26,1,0,0,,,1,FALSE,,,,,,,,,,,,,,,,,,,,,,,,,,,,,,
,616597ecca6e8d930673b1e4,001,2022-04-29_02h08.13.841,classification_task,2021.2.3,Win32,61.83144747,616597ecca6e8d930673b1e4,626b377229c10585ec392f89,626b3a4dda4ec33bab80ac61,,,,,,,,,,,,,,,,,,,,,,,a,0,1.115,"[""0.649"",""0.089"",""0.556"",""0.817""]","[0,1,1,1]",0,27,27,27,1,1,1,,,1,FALSE,,,,,,,,,,,,,,,,,,,,,,,,,,,,,,
,616597ecca6e8d930673b1e4,001,2022-04-29_02h08.13.841,classification_task,2021.2.3,Win32,61.83144747,616597ecca6e8d930673b1e4,626b377229c10585ec392f89,626b3a4dda4ec33bab80ac61,,,,,,,,,,,,,,,,,,,,,,,a,0,0.9959,"[""0.035"",""0.089"",""0.654"",""0.817""]","[1,1,0,1]",0,28,28,28,1,1,1,,,1,FALSE,,,,,,,,,,,,,,,,,,,,,,,,,,,,,,
,616597ecca6e8d930673b1e4,001,2022-04-29_02h08.13.841,classification_task,2021.2.3,Win32,61.83144747,616597ecca6e8d930673b1e4,626b377229c10585ec392f89,626b3a4dda4ec33bab80ac61,,,,,,,,,,,,,,,,,,,,,,,a,1,0.6132,"[""0.261"",""0.336"",""0.595"",""0.226""]","[1,1,1,0]",0,29,29,29,1,0,1,,,1,FALSE,,,,,,,,,,,,,,,,,,,,,,,,,,,,,,
,616597ecca6e8d930673b1e4,001,2022-04-29_02h08.13.841,classification_task,2021.2.3,Win32,61.83144747,616597ecca6e8d930673b1e4,626b377229c10585ec392f89,626b3a4dda4ec33bab80ac61,,,,,,,,,,,,,,,,,,,,,,,l,0,1.2792,"[""0.261"",""0.336"",""0.647"",""0.893""]","[1,1,0,1]",0,30,30,30,1,0,1,,,1,FALSE,,,,,,,,,,,,,,,,,,,,,,,,,,,,,,
,616597ecca6e8d930673b1e4,001,2022-04-29_02h08.13.841,classification_task,2021.2.3,Win32,61.83144747,616597ecca6e8d930673b1e4,626b377229c10585ec392f89,626b3a4dda4ec33bab80ac61,,,,,,,,,,,,,,,,,,,,,,,l,1,1.5676,"[""0.719"",""0.375"",""0.442"",""0.768""]","[0,1,1,1]",0,31,31,31,1,1,0,,,1,FALSE,,,,,,,,,,,,,,,,,,,,,,,,,,,,,,
,616597ecca6e8d930673b1e4,001,2022-04-29_02h08.13.841,classification_task,2021.2.3,Win32,61.83144747,616597ecca6e8d930673b1e4,626b377229c10585ec392f89,626b3a4dda4ec33bab80ac61,,,,,,,,,,,,,,,,,,,,,,,l,0,1.1658,"[""0.261"",""0.336"",""0.683"",""0.893""]","[1,1,0,1]",0,32,32,32,1,0,1,,,1,FALSE,,,,,,,,,,,,,,,,,,,,,,,,,,,,,,
,616597ecca6e8d930673b1e4,001,2022-04-29_02h08.13.841,classification_task,2021.2.3,Win32,61.83144747,616597ecca6e8d930673b1e4,626b377229c10585ec392f89,626b3a4dda4ec33bab80ac61,,,,,,,,,,,,,,,,,,,,,,,l,1,1.1196,"[""0.127"",""0.375"",""0.442"",""0.654""]","[1,1,1,0]",0,33,33,33,1,1,0,,,1,FALSE,,,,,,,,,,,,,,,,,,,,,,,,,,,,,,
,616597ecca6e8d930673b1e4,001,2022-04-29_02h08.13.841,classification_task,2021.2.3,Win32,61.83144747,616597ecca6e8d930673b1e4,626b377229c10585ec392f89,626b3a4dda4ec33bab80ac61,,,,,,,,,,,,,,,,,,,,,,,l,1,0.7346,"[""0.127"",""0.375"",""0.701"",""0.768""]","[1,1,0,1]",0,34,34,34,1,1,0,,,1,FALSE,,,,,,,,,,,,,,,,,,,,,,,,,,,,,,
,616597ecca6e8d930673b1e4,001,2022-04-29_02h08.13.841,classification_task,2021.2.3,Win32,61.83144747,616597ecca6e8d930673b1e4,626b377229c10585ec392f89,626b3a4dda4ec33bab80ac61,,,,,,,,,,,,,,,,,,,,,,,a,0,1.0487,"[""0.035"",""0.089"",""0.556"",""0.710""]","[1,1,1,0]",0,35,35,35,1,1,1,,,1,FALSE,,,,,,,,,,,,,,,,,,,,,,,,,,,,,,
,616597ecca6e8d930673b1e4,001,2022-04-29_02h08.13.841,classification_task,2021.2.3,Win32,61.83144747,616597ecca6e8d930673b1e4,626b377229c10585ec392f89,626b3a4dda4ec33bab80ac61,,,,,,,,,,,,,,,,,,,,,,,a,0,1.2401,"[""0.647"",""0.375"",""0.442"",""0.768""]","[0,1,1,1]",0,36,36,36,1,1,0,,,1,FALSE,,,,,,,,,,,,,,,,,,,,,,,,,,,,,,
,616597ecca6e8d930673b1e4,001,2022-04-29_02h08.13.841,classification_task,2021.2.3,Win32,61.83144747,616597ecca6e8d930673b1e4,626b377229c10585ec392f89,626b3a4dda4ec33bab80ac61,,,,,,,,,,,,,,,,,,,,,,,a,1,1.02,"[""0.632"",""0.507"",""0.855"",""0.959""]","[0,1,1,1]",0,37,37,37,1,0,0,,,1,FALSE,,,,,,,,,,,,,,,,,,,,,,,,,,,,,,
,616597ecca6e8d930673b1e4,001,2022-04-29_02h08.13.841,classification_task,2021.2.3,Win32,61.83144747,616597ecca6e8d930673b1e4,626b377229c10585ec392f89,626b3a4dda4ec33bab80ac61,,,,,,,,,,,,,,,,,,,,,,,a,1,1.3798,"[""0.188"",""0.507"",""0.855"",""0.719""]","[1,1,1,0]",0,38,38,38,1,0,0,,,1,FALSE,,,,,,,,,,,,,,,,,,,,,,,,,,,,,,
,616597ecca6e8d930673b1e4,001,2022-04-29_02h08.13.841,classification_task,2021.2.3,Win32,61.83144747,616597ecca6e8d930673b1e4,626b377229c10585ec392f89,626b3a4dda4ec33bab80ac61,,,,,,,,,,,,,,,,,,,,,,,l,0,1.1392,"[""0.261"",""0.336"",""0.595"",""0.654""]","[1,1,1,0]",0,39,39,39,1,0,1,,,1,FALSE,,,,,,,,,,,,,,,,,,,,,,,,,,,,,,
,616597ecca6e8d930673b1e4,001,2022-04-29_02h08.13.841,classification_task,2021.2.3,Win32,61.83144747,616597ecca6e8d930673b1e4,626b377229c10585ec392f89,626b3a4dda4ec33bab80ac61,,,,,,,,,,,,,,,,,,,,,,,a,1,1.0017,"[""0.188"",""0.720"",""0.855"",""0.959""]","[1,0,1,1]",0,40,40,40,1,0,0,,,1,FALSE,,,,,,,,,,,,,,,,,,,,,,,,,,,,,,
,616597ecca6e8d930673b1e4,001,2022-04-29_02h08.13.841,classification_task,2021.2.3,Win32,61.83144747,616597ecca6e8d930673b1e4,626b377229c10585ec392f89,626b3a4dda4ec33bab80ac61,,,,,,,,,,,,,,,,,,,,,,,a,1,0.9621,"[""0.188"",""0.507"",""0.647"",""0.959""]","[1,1,0,1]",0,41,41,41,1,0,0,,,1,FALSE,,,,,,,,,,,,,,,,,,,,,,,,,,,,,,
,616597ecca6e8d930673b1e4,001,2022-04-29_02h08.13.841,classification_task,2021.2.3,Win32,61.83144747,616597ecca6e8d930673b1e4,626b377229c10585ec392f89,626b3a4dda4ec33bab80ac61,,,,,,,,,,,,,,,,,,,,,,,l,1,1.4876,"[""0.035"",""0.720"",""0.556"",""0.817""]","[1,0,1,1]",0,42,42,42,1,1,1,,,1,FALSE,,,,,,,,,,,,,,,,,,,,,,,,,,,,,,
,616597ecca6e8d930673b1e4,001,2022-04-29_02h08.13.841,classification_task,2021.2.3,Win32,61.83144747,616597ecca6e8d930673b1e4,626b377229c10585ec392f89,626b3a4dda4ec33bab80ac61,,,,,,,,,,,,,,,,,,,,,,,a,1,1.1428,"[""0.261"",""0.226"",""0.595"",""0.893""]","[1,0,1,1]",0,43,43,43,1,0,1,,,1,FALSE,,,,,,,,,,,,,,,,,,,,,,,,,,,,,,
,616597ecca6e8d930673b1e4,001,2022-04-29_02h08.13.841,classification_task,2021.2.3,Win32,61.83144747,616597ecca6e8d930673b1e4,626b377229c10585ec392f89,626b3a4dda4ec33bab80ac61,,,,,,,,,,,,,,,,,,,,,,,a,1,1.0797,"[""0.669"",""0.336"",""0.595"",""0.893""]","[0,1,1,1]",0,44,44,44,1,0,1,,,1,FALSE,,,,,,,,,,,,,,,,,,,,,,,,,,,,,,
,616597ecca6e8d930673b1e4,001,2022-04-29_02h08.13.841,classification_task,2021.2.3,Win32,61.83144747,616597ecca6e8d930673b1e4,626b377229c10585ec392f89,626b3a4dda4ec33bab80ac61,,,,,,,,,,,,,,,,,,,,,,,l,1,1.5629,"[""0.710"",""0.089"",""0.556"",""0.817""]","[0,1,1,1]",0,45,45,45,1,1,1,,,1,FALSE,,,,,,,,,,,,,,,,,,,,,,,,,,,,,,
,616597ecca6e8d930673b1e4,001,2022-04-29_02h08.13.841,classification_task,2021.2.3,Win32,61.83144747,616597ecca6e8d930673b1e4,626b377229c10585ec392f89,626b3a4dda4ec33bab80ac61,,,,,,,,,,,,,,,,,,,,,,,l,1,1.7934,"[""0.127"",""0.632"",""0.442"",""0.768""]","[1,0,1,1]",0,46,46,46,1,1,0,,,1,FALSE,,,,,,,,,,,,,,,,,,,,,,,,,,,,,,
,616597ecca6e8d930673b1e4,001,2022-04-29_02h08.13.841,classification_task,2021.2.3,Win32,61.83144747,616597ecca6e8d930673b1e4,626b377229c10585ec392f89,626b3a4dda4ec33bab80ac61,,,,,,,,,,,,,,,,,,,,,,,a,0,1.391,"[""0.035"",""0.089"",""0.720"",""0.817""]","[1,1,0,1]",0,47,47,47,1,1,1,,,1,FALSE,,,,,,,,,,,,,,,,,,,,,,,,,,,,,,
,616597ecca6e8d930673b1e4,001,2022-04-29_02h08.13.841,classification_task,2021.2.3,Win32,61.83144747,616597ecca6e8d930673b1e4,626b377229c10585ec392f89,626b3a4dda4ec33bab80ac61,,,,,,,,,,,,,,,,,,,,,,,l,1,1.2288,"[""0.035"",""0.089"",""0.683"",""0.817""]","[1,1,0,1]",0,48,48,48,1,1,1,,,1,FALSE,,,,,,,,,,,,,,,,,,,,,,,,,,,,,,
,616597ecca6e8d930673b1e4,001,2022-04-29_02h08.13.841,classification_task,2021.2.3,Win32,61.83144747,616597ecca6e8d930673b1e4,626b377229c10585ec392f89,626b3a4dda4ec33bab80ac61,,,,,,,,,,,,,,,,,,,,,,,l,1,1.4541,"[""0.127"",""0.375"",""0.628"",""0.768""]","[1,1,0,1]",0,49,49,49,1,1,0,,,1,FALSE,,,,,,,,,,,,,,,,,,,,,,,,,,,,,,
,616597ecca6e8d930673b1e4,001,2022-04-29_02h08.13.841,classification_task,2021.2.3,Win32,61.83144747,616597ecca6e8d930673b1e4,626b377229c10585ec392f89,626b3a4dda4ec33bab80ac61,,,,,,,,,,,,,,,,,,,,,,,a,1,0.9174,"[""0.188"",""0.507"",""0.720"",""0.959""]","[1,1,0,1]",0,50,50,50,1,0,0,,,1,FALSE,,,,,,,,,,,,,,,,,,,,,,,,,,,,,,
,616597ecca6e8d930673b1e4,001,2022-04-29_02h08.13.841,classification_task,2021.2.3,Win32,61.83144747,616597ecca6e8d930673b1e4,626b377229c10585ec392f89,626b3a4dda4ec33bab80ac61,,,,,,,,,,,,,,,,,,,,,,,a,1,1.7491,"[""0.261"",""0.336"",""0.632"",""0.893""]","[1,1,0,1]",0,51,51,51,1,0,1,,,1,FALSE,,,,,,,,,,,,,,,,,,,,,,,,,,,,,,
,616597ecca6e8d930673b1e4,001,2022-04-29_02h08.13.841,classification_task,2021.2.3,Win32,61.83144747,616597ecca6e8d930673b1e4,626b377229c10585ec392f89,626b3a4dda4ec33bab80ac61,,,,,,,,,,,,,,,,,,,,,,,l,1,1.0937,"[""0.035"",""0.089"",""0.556"",""0.710""]","[1,1,1,0]",0,52,52,52,1,1,1,,,1,FALSE,,,,,,,,,,,,,,,,,,,,,,,,,,,,,,
,616597ecca6e8d930673b1e4,001,2022-04-29_02h08.13.841,classification_task,2021.2.3,Win32,61.83144747,616597ecca6e8d930673b1e4,626b377229c10585ec392f89,626b3a4dda4ec33bab80ac61,,,,,,,,,,,,,,,,,,,,,,,l,1,1.1616,"[""0.035"",""0.647"",""0.556"",""0.817""]","[1,0,1,1]",0,53,53,53,1,1,1,,,1,FALSE,,,,,,,,,,,,,,,,,,,,,,,,,,,,,,
,616597ecca6e8d930673b1e4,001,2022-04-29_02h08.13.841,classification_task,2021.2.3,Win32,61.83144747,616597ecca6e8d930673b1e4,626b377229c10585ec392f89,626b3a4dda4ec33bab80ac61,,,,,,,,,,,,,,,,,,,,,,,l,1,0.828,"[""0.720"",""0.089"",""0.556"",""0.817""]","[0,1,1,1]",0,54,54,54,1,1,1,,,1,FALSE,,,,,,,,,,,,,,,,,,,,,,,,,,,,,,
,616597ecca6e8d930673b1e4,001,2022-04-29_02h08.13.841,classification_task,2021.2.3,Win32,61.83144747,616597ecca6e8d930673b1e4,626b377229c10585ec392f89,626b3a4dda4ec33bab80ac61,,,,,,,,,,,,,,,,,,,,,,,a,0,1.7044,"[""0.701"",""0.375"",""0.442"",""0.768""]","[0,1,1,1]",0,55,55,55,1,1,0,,,1,FALSE,,,,,,,,,,,,,,,,,,,,,,,,,,,,,,
,616597ecca6e8d930673b1e4,001,2022-04-29_02h08.13.841,classification_task,2021.2.3,Win32,61.83144747,616597ecca6e8d930673b1e4,626b377229c10585ec392f89,626b3a4dda4ec33bab80ac61,,,,,,,,,,,,,,,,,,,,,,,l,1,1.2815,"[""0.127"",""0.375"",""0.442"",""0.628""]","[1,1,1,0]",0,56,56,56,1,1,0,,,1,FALSE,,,,,,,,,,,,,,,,,,,,,,,,,,,,,,
,616597ecca6e8d930673b1e4,001,2022-04-29_02h08.13.841,classification_task,2021.2.3,Win32,61.83144747,616597ecca6e8d930673b1e4,626b377229c10585ec392f89,626b3a4dda4ec33bab80ac61,,,,,,,,,,,,,,,,,,,,,,,a,1,1.4495,"[""0.261"",""0.701"",""0.595"",""0.893""]","[1,0,1,1]",0,57,57,57,1,0,1,,,1,FALSE,,,,,,,,,,,,,,,,,,,,,,,,,,,,,,
,616597ecca6e8d930673b1e4,001,2022-04-29_02h08.13.841,classification_task,2021.2.3,Win32,61.83144747,616597ecca6e8d930673b1e4,626b377229c10585ec392f89,626b3a4dda4ec33bab80ac61,,,,,,,,,,,,,,,,,,,,,,,a,1,1.4133,"[""0.261"",""0.336"",""0.595"",""0.628""]","[1,1,1,0]",0,58,58,58,1,0,1,,,1,FALSE,,,,,,,,,,,,,,,,,,,,,,,,,,,,,,
,616597ecca6e8d930673b1e4,001,2022-04-29_02h08.13.841,classification_task,2021.2.3,Win32,61.83144747,616597ecca6e8d930673b1e4,626b377229c10585ec392f89,626b3a4dda4ec33bab80ac61,,,,,,,,,,,,,,,,,,,,,,,a,1,1.676,"[""0.188"",""0.683"",""0.855"",""0.959""]","[1,0,1,1]",0,59,59,59,1,0,0,,,1,FALSE,,,,,,,,,,,,,,,,,,,,,,,,,,,,,,
,616597ecca6e8d930673b1e4,001,2022-04-29_02h08.13.841,classification_task,2021.2.3,Win32,61.83144747,616597ecca6e8d930673b1e4,626b377229c10585ec392f89,626b3a4dda4ec33bab80ac61,,,,,,,,,,,,,,,,,,,,,,,l,0,1.2182,"[""0.226"",""0.336"",""0.595"",""0.893""]","[0,1,1,1]",0,60,60,60,1,0,1,,,1,FALSE,,,,,,,,,,,,,,,,,,,,,,,,,,,,,,
,616597ecca6e8d930673b1e4,001,2022-04-29_02h08.13.841,classification_task,2021.2.3,Win32,61.83144747,616597ecca6e8d930673b1e4,626b377229c10585ec392f89,626b3a4dda4ec33bab80ac61,,,,,,,,,,,,,,,,,,,,,,,l,0,1.6992,"[""0.226"",""0.507"",""0.855"",""0.959""]","[0,1,1,1]",0,61,61,61,1,0,0,,,1,FALSE,,,,,,,,,,,,,,,,,,,,,,,,,,,,,,
,616597ecca6e8d930673b1e4,001,2022-04-29_02h08.13.841,classification_task,2021.2.3,Win32,61.83144747,616597ecca6e8d930673b1e4,626b377229c10585ec392f89,626b3a4dda4ec33bab80ac61,,,,,,,,,,,,,,,,,,,,,,,a,1,1.7051,"[""0.188"",""0.507"",""0.855"",""0.669""]","[1,1,1,0]",0,62,62,62,1,0,0,,,1,FALSE,,,,,,,,,,,,,,,,,,,,,,,,,,,,,,
,616597ecca6e8d930673b1e4,001,2022-04-29_02h08.13.841,classification_task,2021.2.3,Win32,61.83144747,616597ecca6e8d930673b1e4,626b377229c10585ec392f89,626b3a4dda4ec33bab80ac61,,,,,,,,,,,,,,,,,,,,,,,l,1,0.7788,"[""0.127"",""0.669"",""0.442"",""0.768""]","[1,0,1,1]",0,63,63,63,1,1,0,,,1,FALSE,,,,,,,,,,,,,,,,,,,,,,,,,,,,,,
,616597ecca6e8d930673b1e4,001,2022-04-29_02h08.13.841,classification_task,2021.2.3,Win32,61.83144747,616597ecca6e8d930673b1e4,626b377229c10585ec392f89,626b3a4dda4ec33bab80ac61,,,,,,,,,,,,,,,,,,,,,,,,,,,,,,,,,,,,,,,0, ,,0,7.963942779,159.1145,0,1,1,1,1,2,2,,,,,,,,,,,,,,,,,
,616597ecca6e8d930673b1e4,001,2022-04-29_02h08.13.841,classification_task,2021.2.3,Win32,61.83144747,616597ecca6e8d930673b1e4,626b377229c10585ec392f89,626b3a4dda4ec33bab80ac61,,,,,,,,,,,,,,,,,,,,,,,,,,,,,,,,,,,,,,,1,  ,,0,9.433666471,164.1511,0,1,1,1,1,2,2,,,,,,,,,,,,,,,,,
,616597ecca6e8d930673b1e4,001,2022-04-29_02h08.13.841,classification_task,2021.2.3,Win32,61.83144747,616597ecca6e8d930673b1e4,626b377229c10585ec392f89,626b3a4dda4ec33bab80ac61,,,,,,,,,,,,,,,,,,,,,,,,,,,,,,,,,,,,,,,2,  ,,0,6.469723692,165.6713,0,1,1,1,1,2,2,,,,,,,,,,,,,,,,,
,616597ecca6e8d930673b1e4,001,2022-04-29_02h08.13.841,classification_task,2021.2.3,Win32,61.83144747,616597ecca6e8d930673b1e4,626b377229c10585ec392f89,626b3a4dda4ec33bab80ac61,,,,,,,,,,,,,,,,,,,,,,,,,,,,,,,,,,,,,,,,,,,,,0,1,1,1,1,,2,,,,,,,,,,,,,,,,,
,616597ecca6e8d930673b1e4,001,2022-04-29_02h08.13.841,classification_task,2021.2.3,Win32,61.83144747,616597ecca6e8d930673b1e4,626b377229c10585ec392f89,626b3a4dda4ec33bab80ac61,,,,,,,,,,,,,,,,,,,,,space,7.0874,l,1,4.1181,"[""0.127"",""0.628"",""0.442"",""0.768""]","[1,0,1,1]",0,0,0,0,1,1,0,,,1,FALSE,,,,,,,,,,,,,,,,,,,,,,,,,,,,,,
,616597ecca6e8d930673b1e4,001,2022-04-29_02h08.13.841,classification_task,2021.2.3,Win32,61.83144747,616597ecca6e8d930673b1e4,626b377229c10585ec392f89,626b3a4dda4ec33bab80ac61,,,,,,,,,,,,,,,,,,,,,,,a,1,0.8557,"[""0.188"",""0.710"",""0.855"",""0.959""]","[1,0,1,1]",0,1,1,1,1,0,0,,,1,FALSE,,,,,,,,,,,,,,,,,,,,,,,,,,,,,,
,616597ecca6e8d930673b1e4,001,2022-04-29_02h08.13.841,classification_task,2021.2.3,Win32,61.83144747,616597ecca6e8d930673b1e4,626b377229c10585ec392f89,626b3a4dda4ec33bab80ac61,,,,,,,,,,,,,,,,,,,,,,,l,1,1.2799,"[""0.701"",""0.375"",""0.442"",""0.768""]","[0,1,1,1]",0,2,2,2,1,1,0,,,1,FALSE,,,,,,,,,,,,,,,,,,,,,,,,,,,,,,
,616597ecca6e8d930673b1e4,001,2022-04-29_02h08.13.841,classification_task,2021.2.3,Win32,61.83144747,616597ecca6e8d930673b1e4,626b377229c10585ec392f89,626b3a4dda4ec33bab80ac61,,,,,,,,,,,,,,,,,,,,,,,l,1,1.6459,"[""0.035"",""0.089"",""0.719"",""0.817""]","[1,1,0,1]",0,3,3,3,1,1,1,,,1,FALSE,,,,,,,,,,,,,,,,,,,,,,,,,,,,,,
,616597ecca6e8d930673b1e4,001,2022-04-29_02h08.13.841,classification_task,2021.2.3,Win32,61.83144747,616597ecca6e8d930673b1e4,626b377229c10585ec392f89,626b3a4dda4ec33bab80ac61,,,,,,,,,,,,,,,,,,,,,,,l,1,1.0653,"[""0.035"",""0.089"",""0.556"",""0.669""]","[1,1,1,0]",0,4,4,4,1,1,1,,,1,FALSE,,,,,,,,,,,,,,,,,,,,,,,,,,,,,,
,616597ecca6e8d930673b1e4,001,2022-04-29_02h08.13.841,classification_task,2021.2.3,Win32,61.83144747,616597ecca6e8d930673b1e4,626b377229c10585ec392f89,626b3a4dda4ec33bab80ac61,,,,,,,,,,,,,,,,,,,,,,,a,1,1.0154,"[""0.628"",""0.336"",""0.595"",""0.893""]","[0,1,1,1]",0,5,5,5,1,0,1,,,1,FALSE,,,,,,,,,,,,,,,,,,,,,,,,,,,,,,
,616597ecca6e8d930673b1e4,001,2022-04-29_02h08.13.841,classification_task,2021.2.3,Win32,61.83144747,616597ecca6e8d930673b1e4,626b377229c10585ec392f89,626b3a4dda4ec33bab80ac61,,,,,,,,,,,,,,,,,,,,,,,a,0,0.2142,"[""0.127"",""0.375"",""0.442"",""0.647""]","[1,1,1,0]",0,6,6,6,1,1,0,,,1,FALSE,,,,,,,,,,,,,,,,,,,,,,,,,,,,,,
,616597ecca6e8d930673b1e4,001,2022-04-29_02h08.13.841,classification_task,2021.2.3,Win32,61.83144747,616597ecca6e8d930673b1e4,626b377229c10585ec392f89,626b3a4dda4ec33bab80ac61,,,,,,,,,,,,,,,,,,,,,,,l,0,0.8632,"[""0.261"",""0.336"",""0.595"",""0.720""]","[1,1,1,0]",0,7,7,7,1,0,1,,,1,FALSE,,,,,,,,,,,,,,,,,,,,,,,,,,,,,,
,616597ecca6e8d930673b1e4,001,2022-04-29_02h08.13.841,classification_task,2021.2.3,Win32,61.83144747,616597ecca6e8d930673b1e4,626b377229c10585ec392f89,626b3a4dda4ec33bab80ac61,,,,,,,,,,,,,,,,,,,,,,,a,1,1.5296,"[""0.188"",""0.507"",""0.855"",""0.647""]","[1,1,1,0]",0,8,8,8,1,0,0,,,1,FALSE,,,,,,,,,,,,,,,,,,,,,,,,,,,,,,
,616597ecca6e8d930673b1e4,001,2022-04-29_02h08.13.841,classification_task,2021.2.3,Win32,61.83144747,616597ecca6e8d930673b1e4,626b377229c10585ec392f89,626b3a4dda4ec33bab80ac61,,,,,,,,,,,,,,,,,,,,,,,a,1,1.8807,"[""0.226"",""0.507"",""0.855"",""0.959""]","[0,1,1,1]",0,9,9,9,1,0,0,,,1,FALSE,,,,,,,,,,,,,,,,,,,,,,,,,,,,,,
,616597ecca6e8d930673b1e4,001,2022-04-29_02h08.13.841,classification_task,2021.2.3,Win32,61.83144747,616597ecca6e8d930673b1e4,626b377229c10585ec392f89,626b3a4dda4ec33bab80ac61,,,,,,,,,,,,,,,,,,,,,,,l,0,0.8923,"[""0.261"",""0.647"",""0.595"",""0.893""]","[1,0,1,1]",0,10,10,10,1,0,1,,,1,FALSE,,,,,,,,,,,,,,,,,,,,,,,,,,,,,,
,616597ecca6e8d930673b1e4,001,2022-04-29_02h08.13.841,classification_task,2021.2.3,Win32,61.83144747,616597ecca6e8d930673b1e4,626b377229c10585ec392f89,626b3a4dda4ec33bab80ac61,,,,,,,,,,,,,,,,,,,,,,,l,0,0.8696,"[""0.261"",""0.336"",""0.628"",""0.893""]","[1,1,0,1]",0,11,11,11,1,0,1,,,1,FALSE,,,,,,,,,,,,,,,,,,,,,,,,,,,,,,
,616597ecca6e8d930673b1e4,001,2022-04-29_02h08.13.841,classification_task,2021.2.3,Win32,61.83144747,616597ecca6e8d930673b1e4,626b377229c10585ec392f89,626b3a4dda4ec33bab80ac61,,,,,,,,,,,,,,,,,,,,,,,a,1,1.4473,"[""0.188"",""0.507"",""0.632"",""0.959""]","[1,1,0,1]",0,12,12,12,1,0,0,,,1,FALSE,,,,,,,,,,,,,,,,,,,,,,,,,,,,,,
,616597ecca6e8d930673b1e4,001,2022-04-29_02h08.13.841,classification_task,2021.2.3,Win32,61.83144747,616597ecca6e8d930673b1e4,626b377229c10585ec392f89,626b3a4dda4ec33bab80ac61,,,,,,,,,,,,,,,,,,,,,,,a,0,1.0286,"[""0.035"",""0.647"",""0.556"",""0.817""]","[1,0,1,1]",0,13,13,13,1,1,1,,,1,FALSE,,,,,,,,,,,,,,,,,,,,,,,,,,,,,,
,616597ecca6e8d930673b1e4,001,2022-04-29_02h08.13.841,classification_task,2021.2.3,Win32,61.83144747,616597ecca6e8d930673b1e4,626b377229c10585ec392f89,626b3a4dda4ec33bab80ac61,,,,,,,,,,,,,,,,,,,,,,,l,1,1.78,"[""0.127"",""0.375"",""0.683"",""0.768""]","[1,1,0,1]",0,14,14,14,1,1,0,,,1,FALSE,,,,,,,,,,,,,,,,,,,,,,,,,,,,,,
,616597ecca6e8d930673b1e4,001,2022-04-29_02h08.13.841,classification_task,2021.2.3,Win32,61.83144747,616597ecca6e8d930673b1e4,626b377229c10585ec392f89,626b3a4dda4ec33bab80ac61,,,,,,,,,,,,,,,,,,,,,,,l,1,0.7141,"[""0.647"",""0.089"",""0.556"",""0.817""]","[0,1,1,1]",0,15,15,15,1,1,1,,,1,FALSE,,,,,,,,,,,,,,,,,,,,,,,,,,,,,,
,616597ecca6e8d930673b1e4,001,2022-04-29_02h08.13.841,classification_task,2021.2.3,Win32,61.83144747,616597ecca6e8d930673b1e4,626b377229c10585ec392f89,626b3a4dda4ec33bab80ac61,,,,,,,,,,,,,,,,,,,,,,,l,0,0.6823,"[""0.710"",""0.336"",""0.595"",""0.893""]","[0,1,1,1]",0,16,16,16,1,0,1,,,1,FALSE,,,,,,,,,,,,,,,,,,,,,,,,,,,,,,
,616597ecca6e8d930673b1e4,001,2022-04-29_02h08.13.841,classification_task,2021.2.3,Win32,61.83144747,616597ecca6e8d930673b1e4,626b377229c10585ec392f89,626b3a4dda4ec33bab80ac61,,,,,,,,,,,,,,,,,,,,,,,l,1,1.2793,"[""0.127"",""0.628"",""0.442"",""0.768""]","[1,0,1,1]",0,17,17,17,1,1,0,,,1,FALSE,,,,,,,,,,,,,,,,,,,,,,,,,,,,,,
,616597ecca6e8d930673b1e4,001,2022-04-29_02h08.13.841,classification_task,2021.2.3,Win32,61.83144747,616597ecca6e8d930673b1e4,626b377229c10585ec392f89,626b3a4dda4ec33bab80ac61,,,,,,,,,,,,,,,,,,,,,,,a,1,0.7817,"[""0.261"",""0.683"",""0.595"",""0.893""]","[1,0,1,1]",0,18,18,18,1,0,1,,,1,FALSE,,,,,,,,,,,,,,,,,,,,,,,,,,,,,,
,616597ecca6e8d930673b1e4,001,2022-04-29_02h08.13.841,classification_task,2021.2.3,Win32,61.83144747,616597ecca6e8d930673b1e4,626b377229c10585ec392f89,626b3a4dda4ec33bab80ac61,,,,,,,,,,,,,,,,,,,,,,,a,0,0.9813,"[""0.649"",""0.089"",""0.556"",""0.817""]","[0,1,1,1]",0,19,19,19,1,1,1,,,1,FALSE,,,,,,,,,,,,,,,,,,,,,,,,,,,,,,
,616597ecca6e8d930673b1e4,001,2022-04-29_02h08.13.841,classification_task,2021.2.3,Win32,61.83144747,616597ecca6e8d930673b1e4,626b377229c10585ec392f89,626b3a4dda4ec33bab80ac61,,,,,,,,,,,,,,,,,,,,,,,a,1,0.8638,"[""0.261"",""0.336"",""0.595"",""0.669""]","[1,1,1,0]",0,20,20,20,1,0,1,,,1,FALSE,,,,,,,,,,,,,,,,,,,,,,,,,,,,,,
,616597ecca6e8d930673b1e4,001,2022-04-29_02h08.13.841,classification_task,2021.2.3,Win32,61.83144747,616597ecca6e8d930673b1e4,626b377229c10585ec392f89,626b3a4dda4ec33bab80ac61,,,,,,,,,,,,,,,,,,,,,,,a,1,0.8635,"[""0.654"",""0.507"",""0.855"",""0.959""]","[0,1,1,1]",0,21,21,21,1,0,0,,,1,FALSE,,,,,,,,,,,,,,,,,,,,,,,,,,,,,,
,616597ecca6e8d930673b1e4,001,2022-04-29_02h08.13.841,classification_task,2021.2.3,Win32,61.83144747,616597ecca6e8d930673b1e4,626b377229c10585ec392f89,626b3a4dda4ec33bab80ac61,,,,,,,,,,,,,,,,,,,,,,,a,1,1.4463,"[""0.188"",""0.507"",""0.855"",""0.654""]","[1,1,1,0]",0,22,22,22,1,0,0,,,1,FALSE,,,,,,,,,,,,,,,,,,,,,,,,,,,,,,
,616597ecca6e8d930673b1e4,001,2022-04-29_02h08.13.841,classification_task,2021.2.3,Win32,61.83144747,616597ecca6e8d930673b1e4,626b377229c10585ec392f89,626b3a4dda4ec33bab80ac61,,,,,,,,,,,,,,,,,,,,,,,a,1,0.8648,"[""0.188"",""0.628"",""0.855"",""0.959""]","[1,0,1,1]",0,23,23,23,1,0,0,,,1,FALSE,,,,,,,,,,,,,,,,,,,,,,,,,,,,,,
,616597ecca6e8d930673b1e4,001,2022-04-29_02h08.13.841,classification_task,2021.2.3,Win32,61.83144747,616597ecca6e8d930673b1e4,626b377229c10585ec392f89,626b3a4dda4ec33bab80ac61,,,,,,,,,,,,,,,,,,,,,,,l,1,0.6804,"[""0.035"",""0.669"",""0.556"",""0.817""]","[1,0,1,1]",0,24,24,24,1,1,1,,,1,FALSE,,,,,,,,,,,,,,,,,,,,,,,,,,,,,,
,616597ecca6e8d930673b1e4,001,2022-04-29_02h08.13.841,classification_task,2021.2.3,Win32,61.83144747,616597ecca6e8d930673b1e4,626b377229c10585ec392f89,626b3a4dda4ec33bab80ac61,,,,,,,,,,,,,,,,,,,,,,,l,1,1.4828,"[""0.127"",""0.375"",""0.719"",""0.768""]","[1,1,0,1]",0,25,25,25,1,1,0,,,1,FALSE,,,,,,,,,,,,,,,,,,,,,,,,,,,,,,
,616597ecca6e8d930673b1e4,001,2022-04-29_02h08.13.841,classification_task,2021.2.3,Win32,61.83144747,616597ecca6e8d930673b1e4,626b377229c10585ec392f89,626b3a4dda4ec33bab80ac61,,,,,,,,,,,,,,,,,,,,,,,a,1,1.8317,"[""0.261"",""0.336"",""0.647"",""0.893""]","[1,1,0,1]",0,26,26,26,1,0,1,,,1,FALSE,,,,,,,,,,,,,,,,,,,,,,,,,,,,,,
,616597ecca6e8d930673b1e4,001,2022-04-29_02h08.13.841,classification_task,2021.2.3,Win32,61.83144747,616597ecca6e8d930673b1e4,626b377229c10585ec392f89,626b3a4dda4ec33bab80ac61,,,,,,,,,,,,,,,,,,,,,,,a,0,1.758,"[""0.035"",""0.089"",""0.556"",""0.226""]","[1,1,1,0]",0,27,27,27,1,1,1,,,1,FALSE,,,,,,,,,,,,,,,,,,,,,,,,,,,,,,
,616597ecca6e8d930673b1e4,001,2022-04-29_02h08.13.841,classification_task,2021.2.3,Win32,61.83144747,616597ecca6e8d930673b1e4,626b377229c10585ec392f89,626b3a4dda4ec33bab80ac61,,,,,,,,,,,,,,,,,,,,,,,l,1,1.6139,"[""0.127"",""0.375"",""0.442"",""0.647""]","[1,1,1,0]",0,28,28,28,1,1,0,,,1,FALSE,,,,,,,,,,,,,,,,,,,,,,,,,,,,,,
,616597ecca6e8d930673b1e4,001,2022-04-29_02h08.13.841,classification_task,2021.2.3,Win32,61.83144747,616597ecca6e8d930673b1e4,626b377229c10585ec392f89,626b3a4dda4ec33bab80ac61,,,,,,,,,,,,,,,,,,,,,,,l,1,1.4473,"[""0.647"",""0.375"",""0.442"",""0.768""]","[0,1,1,1]",0,29,29,29,1,1,0,,,1,FALSE,,,,,,,,,,,,,,,,,,,,,,,,,,,,,,
,616597ecca6e8d930673b1e4,001,2022-04-29_02h08.13.841,classification_task,2021.2.3,Win32,61.83144747,616597ecca6e8d930673b1e4,626b377229c10585ec392f89,626b3a4dda4ec33bab80ac61,,,,,,,,,,,,,,,,,,,,,,,a,1,1.2666,"[""0.188"",""0.507"",""0.628"",""0.959""]","[1,1,0,1]",0,30,30,30,1,0,0,,,1,FALSE,,,,,,,,,,,,,,,,,,,,,,,,,,,,,,
,616597ecca6e8d930673b1e4,001,2022-04-29_02h08.13.841,classification_task,2021.2.3,Win32,61.83144747,616597ecca6e8d930673b1e4,626b377229c10585ec392f89,626b3a4dda4ec33bab80ac61,,,,,,,,,,,,,,,,,,,,,,,l,1,2.0318,"[""0.035"",""0.089"",""0.649"",""0.817""]","[1,1,0,1]",0,31,31,31,1,1,1,,,1,FALSE,,,,,,,,,,,,,,,,,,,,,,,,,,,,,,
,616597ecca6e8d930673b1e4,001,2022-04-29_02h08.13.841,classification_task,2021.2.3,Win32,61.83144747,616597ecca6e8d930673b1e4,626b377229c10585ec392f89,626b3a4dda4ec33bab80ac61,,,,,,,,,,,,,,,,,,,,,,,a,0,0.9973,"[""0.035"",""0.649"",""0.556"",""0.817""]","[1,0,1,1]",0,32,32,32,1,1,1,,,1,FALSE,,,,,,,,,,,,,,,,,,,,,,,,,,,,,,
,616597ecca6e8d930673b1e4,001,2022-04-29_02h08.13.841,classification_task,2021.2.3,Win32,61.83144747,616597ecca6e8d930673b1e4,626b377229c10585ec392f89,626b3a4dda4ec33bab80ac61,,,,,,,,,,,,,,,,,,,,,,,l,0,0.7832,"[""0.635"",""0.507"",""0.855"",""0.959""]","[0,1,1,1]",0,33,33,33,1,0,0,,,1,FALSE,,,,,,,,,,,,,,,,,,,,,,,,,,,,,,
,616597ecca6e8d930673b1e4,001,2022-04-29_02h08.13.841,classification_task,2021.2.3,Win32,61.83144747,616597ecca6e8d930673b1e4,626b377229c10585ec392f89,626b3a4dda4ec33bab80ac61,,,,,,,,,,,,,,,,,,,,,,,l,1,1.3495,"[""0.127"",""0.375"",""0.442"",""0.677""]","[1,1,1,0]",0,34,34,34,1,1,0,,,1,FALSE,,,,,,,,,,,,,,,,,,,,,,,,,,,,,,
,616597ecca6e8d930673b1e4,001,2022-04-29_02h08.13.841,classification_task,2021.2.3,Win32,61.83144747,616597ecca6e8d930673b1e4,626b377229c10585ec392f89,626b3a4dda4ec33bab80ac61,,,,,,,,,,,,,,,,,,,,,,,a,1,1.1984,"[""0.719"",""0.336"",""0.595"",""0.893""]","[0,1,1,1]",0,35,35,35,1,0,1,,,1,FALSE,,,,,,,,,,,,,,,,,,,,,,,,,,,,,,
,616597ecca6e8d930673b1e4,001,2022-04-29_02h08.13.841,classification_task,2021.2.3,Win32,61.83144747,616597ecca6e8d930673b1e4,626b377229c10585ec392f89,626b3a4dda4ec33bab80ac61,,,,,,,,,,,,,,,,,,,,,,,l,1,1.5986,"[""0.127"",""0.375"",""0.649"",""0.768""]","[1,1,0,1]",0,36,36,36,1,1,0,,,1,FALSE,,,,,,,,,,,,,,,,,,,,,,,,,,,,,,
,616597ecca6e8d930673b1e4,001,2022-04-29_02h08.13.841,classification_task,2021.2.3,Win32,61.83144747,616597ecca6e8d930673b1e4,626b377229c10585ec392f89,626b3a4dda4ec33bab80ac61,,,,,,,,,,,,,,,,,,,,,,,l,1,0.6887,"[""0.127"",""0.701"",""0.442"",""0.768""]","[1,0,1,1]",0,37,37,37,1,1,0,,,1,FALSE,,,,,,,,,,,,,,,,,,,,,,,,,,,,,,
,616597ecca6e8d930673b1e4,001,2022-04-29_02h08.13.841,classification_task,2021.2.3,Win32,61.83144747,616597ecca6e8d930673b1e4,626b377229c10585ec392f89,626b3a4dda4ec33bab80ac61,,,,,,,,,,,,,,,,,,,,,,,l,1,1.146,"[""0.035"",""0.089"",""0.556"",""0.649""]","[1,1,1,0]",0,38,38,38,1,1,1,,,1,FALSE,,,,,,,,,,,,,,,,,,,,,,,,,,,,,,
,616597ecca6e8d930673b1e4,001,2022-04-29_02h08.13.841,classification_task,2021.2.3,Win32,61.83144747,616597ecca6e8d930673b1e4,626b377229c10585ec392f89,626b3a4dda4ec33bab80ac61,,,,,,,,,,,,,,,,,,,,,,,a,1,0.9805,"[""0.188"",""0.507"",""0.855"",""0.649""]","[1,1,1,0]",0,39,39,39,1,0,0,,,1,FALSE,,,,,,,,,,,,,,,,,,,,,,,,,,,,,,
,616597ecca6e8d930673b1e4,001,2022-04-29_02h08.13.841,classification_task,2021.2.3,Win32,61.83144747,616597ecca6e8d930673b1e4,626b377229c10585ec392f89,626b3a4dda4ec33bab80ac61,,,,,,,,,,,,,,,,,,,,,,,a,1,1.2316,"[""0.188"",""0.507"",""0.683"",""0.959""]","[1,1,0,1]",0,40,40,40,1,0,0,,,1,FALSE,,,,,,,,,,,,,,,,,,,,,,,,,,,,,,
,616597ecca6e8d930673b1e4,001,2022-04-29_02h08.13.841,classification_task,2021.2.3,Win32,61.83144747,616597ecca6e8d930673b1e4,626b377229c10585ec392f89,626b3a4dda4ec33bab80ac61,,,,,,,,,,,,,,,,,,,,,,,a,1,0.9632,"[""0.188"",""0.226"",""0.855"",""0.959""]","[1,0,1,1]",0,41,41,41,1,0,0,,,1,FALSE,,,,,,,,,,,,,,,,,,,,,,,,,,,,,,
,616597ecca6e8d930673b1e4,001,2022-04-29_02h08.13.841,classification_task,2021.2.3,Win32,61.83144747,616597ecca6e8d930673b1e4,626b377229c10585ec392f89,626b3a4dda4ec33bab80ac61,,,,,,,,,,,,,,,,,,,,,,,l,1,1.3795,"[""0.669"",""0.089"",""0.556"",""0.817""]","[0,1,1,1]",0,42,42,42,1,1,1,,,1,FALSE,,,,,,,,,,,,,,,,,,,,,,,,,,,,,,
,616597ecca6e8d930673b1e4,001,2022-04-29_02h08.13.841,classification_task,2021.2.3,Win32,61.83144747,616597ecca6e8d930673b1e4,626b377229c10585ec392f89,626b3a4dda4ec33bab80ac61,,,,,,,,,,,,,,,,,,,,,,,l,1,0.7277,"[""0.701"",""0.375"",""0.442"",""0.768""]","[0,1,1,1]",0,43,43,43,1,1,0,,,1,FALSE,,,,,,,,,,,,,,,,,,,,,,,,,,,,,,
,616597ecca6e8d930673b1e4,001,2022-04-29_02h08.13.841,classification_task,2021.2.3,Win32,61.83144747,616597ecca6e8d930673b1e4,626b377229c10585ec392f89,626b3a4dda4ec33bab80ac61,,,,,,,,,,,,,,,,,,,,,,,l,0,1.1296,"[""0.261"",""0.336"",""0.595"",""0.720""]","[1,1,1,0]",0,44,44,44,1,0,1,,,1,FALSE,,,,,,,,,,,,,,,,,,,,,,,,,,,,,,
,616597ecca6e8d930673b1e4,001,2022-04-29_02h08.13.841,classification_task,2021.2.3,Win32,61.83144747,616597ecca6e8d930673b1e4,626b377229c10585ec392f89,626b3a4dda4ec33bab80ac61,,,,,,,,,,,,,,,,,,,,,,,l,0,0.9639,"[""0.261"",""0.336"",""0.710"",""0.893""]","[1,1,0,1]",0,45,45,45,1,0,1,,,1,FALSE,,,,,,,,,,,,,,,,,,,,,,,,,,,,,,
,616597ecca6e8d930673b1e4,001,2022-04-29_02h08.13.841,classification_task,2021.2.3,Win32,61.83144747,616597ecca6e8d930673b1e4,626b377229c10585ec392f89,626b3a4dda4ec33bab80ac61,,,,,,,,,,,,,,,,,,,,,,,a,1,2.3636,"[""0.261"",""0.647"",""0.595"",""0.893""]","[1,0,1,1]",0,46,46,46,1,0,1,,,1,FALSE,,,,,,,,,,,,,,,,,,,,,,,,,,,,,,
,616597ecca6e8d930673b1e4,001,2022-04-29_02h08.13.841,classification_task,2021.2.3,Win32,61.83144747,616597ecca6e8d930673b1e4,626b377229c10585ec392f89,626b3a4dda4ec33bab80ac61,,,,,,,,,,,,,,,,,,,,,,,a,0,0.7238,"[""0.035"",""0.089"",""0.715"",""0.817""]","[1,1,0,1]",0,47,47,47,1,1,1,,,1,FALSE,,,,,,,,,,,,,,,,,,,,,,,,,,,,,,
,616597ecca6e8d930673b1e4,001,2022-04-29_02h08.13.841,classification_task,2021.2.3,Win32,61.83144747,616597ecca6e8d930673b1e4,626b377229c10585ec392f89,626b3a4dda4ec33bab80ac61,,,,,,,,,,,,,,,,,,,,,,,l,0,0.547,"[""0.261"",""0.635"",""0.595"",""0.893""]","[1,0,1,1]",0,48,48,48,1,0,1,,,1,FALSE,,,,,,,,,,,,,,,,,,,,,,,,,,,,,,
,616597ecca6e8d930673b1e4,001,2022-04-29_02h08.13.841,classification_task,2021.2.3,Win32,61.83144747,616597ecca6e8d930673b1e4,626b377229c10585ec392f89,626b3a4dda4ec33bab80ac61,,,,,,,,,,,,,,,,,,,,,,,l,1,0.5796,"[""0.035"",""0.089"",""0.719"",""0.817""]","[1,1,0,1]",0,49,49,49,1,1,1,,,1,FALSE,,,,,,,,,,,,,,,,,,,,,,,,,,,,,,
,616597ecca6e8d930673b1e4,001,2022-04-29_02h08.13.841,classification_task,2021.2.3,Win32,61.83144747,616597ecca6e8d930673b1e4,626b377229c10585ec392f89,626b3a4dda4ec33bab80ac61,,,,,,,,,,,,,,,,,,,,,,,l,1,0.7963,"[""0.715"",""0.375"",""0.442"",""0.768""]","[0,1,1,1]",0,50,50,50,1,1,0,,,1,FALSE,,,,,,,,,,,,,,,,,,,,,,,,,,,,,,
,616597ecca6e8d930673b1e4,001,2022-04-29_02h08.13.841,classification_task,2021.2.3,Win32,61.83144747,616597ecca6e8d930673b1e4,626b377229c10585ec392f89,626b3a4dda4ec33bab80ac61,,,,,,,,,,,,,,,,,,,,,,,l,0,0.745,"[""0.261"",""0.336"",""0.595"",""0.677""]","[1,1,1,0]",0,51,51,51,1,0,1,,,1,FALSE,,,,,,,,,,,,,,,,,,,,,,,,,,,,,,
,616597ecca6e8d930673b1e4,001,2022-04-29_02h08.13.841,classification_task,2021.2.3,Win32,61.83144747,616597ecca6e8d930673b1e4,626b377229c10585ec392f89,626b3a4dda4ec33bab80ac61,,,,,,,,,,,,,,,,,,,,,,,a,0,1.0141,"[""0.669"",""0.089"",""0.556"",""0.817""]","[0,1,1,1]",0,52,52,52,1,1,1,,,1,FALSE,,,,,,,,,,,,,,,,,,,,,,,,,,,,,,
,616597ecca6e8d930673b1e4,001,2022-04-29_02h08.13.841,classification_task,2021.2.3,Win32,61.83144747,616597ecca6e8d930673b1e4,626b377229c10585ec392f89,626b3a4dda4ec33bab80ac61,,,,,,,,,,,,,,,,,,,,,,,l,1,0.9641,"[""0.127"",""0.628"",""0.442"",""0.768""]","[1,0,1,1]",0,53,53,53,1,1,0,,,1,FALSE,,,,,,,,,,,,,,,,,,,,,,,,,,,,,,
,616597ecca6e8d930673b1e4,001,2022-04-29_02h08.13.841,classification_task,2021.2.3,Win32,61.83144747,616597ecca6e8d930673b1e4,626b377229c10585ec392f89,626b3a4dda4ec33bab80ac61,,,,,,,,,,,,,,,,,,,,,,,a,1,0.7649,"[""0.188"",""0.632"",""0.855"",""0.959""]","[1,0,1,1]",0,54,54,54,1,0,0,,,1,FALSE,,,,,,,,,,,,,,,,,,,,,,,,,,,,,,
,616597ecca6e8d930673b1e4,001,2022-04-29_02h08.13.841,classification_task,2021.2.3,Win32,61.83144747,616597ecca6e8d930673b1e4,626b377229c10585ec392f89,626b3a4dda4ec33bab80ac61,,,,,,,,,,,,,,,,,,,,,,,l,0,1.0336,"[""0.669"",""0.507"",""0.855"",""0.959""]","[0,1,1,1]",0,55,55,55,1,0,0,,,1,FALSE,,,,,,,,,,,,,,,,,,,,,,,,,,,,,,
,616597ecca6e8d930673b1e4,001,2022-04-29_02h08.13.841,classification_task,2021.2.3,Win32,61.83144747,616597ecca6e8d930673b1e4,626b377229c10585ec392f89,626b3a4dda4ec33bab80ac61,,,,,,,,,,,,,,,,,,,,,,,a,0,0.98,"[""0.035"",""0.089"",""0.556"",""0.632""]","[1,1,1,0]",0,56,56,56,1,1,1,,,1,FALSE,,,,,,,,,,,,,,,,,,,,,,,,,,,,,,
,616597ecca6e8d930673b1e4,001,2022-04-29_02h08.13.841,classification_task,2021.2.3,Win32,61.83144747,616597ecca6e8d930673b1e4,626b377229c10585ec392f89,626b3a4dda4ec33bab80ac61,,,,,,,,,,,,,,,,,,,,,,,l,1,1.73,"[""0.127"",""0.375"",""0.719"",""0.768""]","[1,1,0,1]",0,57,57,57,1,1,0,,,1,FALSE,,,,,,,,,,,,,,,,,,,,,,,,,,,,,,
,616597ecca6e8d930673b1e4,001,2022-04-29_02h08.13.841,classification_task,2021.2.3,Win32,61.83144747,616597ecca6e8d930673b1e4,626b377229c10585ec392f89,626b3a4dda4ec33bab80ac61,,,,,,,,,,,,,,,,,,,,,,,l,0,1.2977,"[""0.647"",""0.336"",""0.595"",""0.893""]","[0,1,1,1]",0,58,58,58,1,0,1,,,1,FALSE,,,,,,,,,,,,,,,,,,,,,,,,,,,,,,
,616597ecca6e8d930673b1e4,001,2022-04-29_02h08.13.841,classification_task,2021.2.3,Win32,61.83144747,616597ecca6e8d930673b1e4,626b377229c10585ec392f89,626b3a4dda4ec33bab80ac61,,,,,,,,,,,,,,,,,,,,,,,a,1,0.8815,"[""0.188"",""0.507"",""0.720"",""0.959""]","[1,1,0,1]",0,59,59,59,1,0,0,,,1,FALSE,,,,,,,,,,,,,,,,,,,,,,,,,,,,,,
,616597ecca6e8d930673b1e4,001,2022-04-29_02h08.13.841,classification_task,2021.2.3,Win32,61.83144747,616597ecca6e8d930673b1e4,626b377229c10585ec392f89,626b3a4dda4ec33bab80ac61,,,,,,,,,,,,,,,,,,,,,,,a,1,1.1138,"[""0.188"",""0.507"",""0.855"",""0.654""]","[1,1,1,0]",0,60,60,60,1,0,0,,,1,FALSE,,,,,,,,,,,,,,,,,,,,,,,,,,,,,,
,616597ecca6e8d930673b1e4,001,2022-04-29_02h08.13.841,classification_task,2021.2.3,Win32,61.83144747,616597ecca6e8d930673b1e4,626b377229c10585ec392f89,626b3a4dda4ec33bab80ac61,,,,,,,,,,,,,,,,,,,,,,,l,1,0.8139,"[""0.127"",""0.375"",""0.442"",""0.720""]","[1,1,1,0]",0,61,61,61,1,1,0,,,1,FALSE,,,,,,,,,,,,,,,,,,,,,,,,,,,,,,
,616597ecca6e8d930673b1e4,001,2022-04-29_02h08.13.841,classification_task,2021.2.3,Win32,61.83144747,616597ecca6e8d930673b1e4,626b377229c10585ec392f89,626b3a4dda4ec33bab80ac61,,,,,,,,,,,,,,,,,,,,,,,l,1,0.6983,"[""0.035"",""0.226"",""0.556"",""0.817""]","[1,0,1,1]",0,62,62,62,1,1,1,,,1,FALSE,,,,,,,,,,,,,,,,,,,,,,,,,,,,,,
,616597ecca6e8d930673b1e4,001,2022-04-29_02h08.13.841,classification_task,2021.2.3,Win32,61.83144747,616597ecca6e8d930673b1e4,626b377229c10585ec392f89,626b3a4dda4ec33bab80ac61,,,,,,,,,,,,,,,,,,,,,,,l,0,0.8994,"[""0.261"",""0.336"",""0.649"",""0.893""]","[1,1,0,1]",0,63,63,63,1,0,1,,,1,FALSE,,,,,,,,,,,,,,,,,,,,,,,,,,,,,,
,616597ecca6e8d930673b1e4,001,2022-04-29_02h08.13.841,classification_task,2021.2.3,Win32,61.83144747,616597ecca6e8d930673b1e4,626b377229c10585ec392f89,626b3a4dda4ec33bab80ac61,,,,,,,,,,,,,,,,,,,,,,,,,,,,,,,,,,,,,,,0, ,,0,9.776601999,149.4436,0,2,2,2,1,2,3,,,,,,,,,,,,,,,,,
,616597ecca6e8d930673b1e4,001,2022-04-29_02h08.13.841,classification_task,2021.2.3,Win32,61.83144747,616597ecca6e8d930673b1e4,626b377229c10585ec392f89,626b3a4dda4ec33bab80ac61,,,,,,,,,,,,,,,,,,,,,,,,,,,,,,,,,,,,,,,1,  ,,0,9.923574368,151.0068,0,2,2,2,1,2,3,,,,,,,,,,,,,,,,,
,616597ecca6e8d930673b1e4,001,2022-04-29_02h08.13.841,classification_task,2021.2.3,Win32,61.83144747,616597ecca6e8d930673b1e4,626b377229c10585ec392f89,626b3a4dda4ec33bab80ac61,,,,,,,,,,,,,,,,,,,,,,,,,,,,,,,,,,,,,,,2,  ,,0,5.073486185,153.0566,0,2,2,2,1,2,3,,,,,,,,,,,,,,,,,
,616597ecca6e8d930673b1e4,001,2022-04-29_02h08.13.841,classification_task,2021.2.3,Win32,61.83144747,616597ecca6e8d930673b1e4,626b377229c10585ec392f89,626b3a4dda4ec33bab80ac61,,,,,,,,,,,,,,,,,,,,,,,,,,,,,,,,,,,,,,,,,,,,,0,2,2,2,1,,3,,,,,,,,,,,,,,,,,
,616597ecca6e8d930673b1e4,001,2022-04-29_02h08.13.841,classification_task,2021.2.3,Win32,61.83144747,616597ecca6e8d930673b1e4,626b377229c10585ec392f89,626b3a4dda4ec33bab80ac61,,,,,,,,,,,,,,,,,,,,,,,,,,,,,,,,,,,,,,,,,,,,,,,,,,,,,I believe the aid is a competent performer,,0.7,0,4,658.8978,0,0,0,0,1,0,,,,
,616597ecca6e8d930673b1e4,001,2022-04-29_02h08.13.841,classification_task,2021.2.3,Win32,61.83144747,616597ecca6e8d930673b1e4,626b377229c10585ec392f89,626b3a4dda4ec33bab80ac61,,,,,,,,,,,,,,,,,,,,,,,,,,,,,,,,,,,,,,,,,,,,,,,,,,,,,I trust the aid,,0.7,0,4,659.9776,0,0,0,0,1,0,,,,
,616597ecca6e8d930673b1e4,001,2022-04-29_02h08.13.841,classification_task,2021.2.3,Win32,61.83144747,616597ecca6e8d930673b1e4,626b377229c10585ec392f89,626b3a4dda4ec33bab80ac61,,,,,,,,,,,,,,,,,,,,,,,,,,,,,,,,,,,,,,,,,,,,,,,,,,,,,I have confidence in the advice given by the aid,,0.7,0,3,661.1416,0,0,0,0,1,0,,,,
,616597ecca6e8d930673b1e4,001,2022-04-29_02h08.13.841,classification_task,2021.2.3,Win32,61.83144747,616597ecca6e8d930673b1e4,626b377229c10585ec392f89,626b3a4dda4ec33bab80ac61,,,,,,,,,,,,,,,,,,,,,,,,,,,,,,,,,,,,,,,,,,,,,,,,,,,,,I can depend on the aid,,0.7,0,4,662.3245,0,0,0,0,1,0,,,,
,616597ecca6e8d930673b1e4,001,2022-04-29_02h08.13.841,classification_task,2021.2.3,Win32,61.83144747,616597ecca6e8d930673b1e4,626b377229c10585ec392f89,626b3a4dda4ec33bab80ac61,,,,,,,,,,,,,,,,,,,,,,,,,,,,,,,,,,,,,,,,,,,,,,,,,,,,,I can rely on the aid to behave in consistent ways,,0.7,0,4,664.4043,0,0,0,0,1,0,,,,
,616597ecca6e8d930673b1e4,001,2022-04-29_02h08.13.841,classification_task,2021.2.3,Win32,61.83144747,616597ecca6e8d930673b1e4,626b377229c10585ec392f89,626b3a4dda4ec33bab80ac61,,,,,,,,,,,,,,,,,,,,,,,,,,,,,,,,,,,,,,,,,,,,,,,,,,,,,I can rely on the aid to do its best every time I take its advice,,0.7,0,4,668.1769,0,0,0,0,1,0,,,,
,616597ecca6e8d930673b1e4,001,2022-04-29_02h08.13.841,classification_task,2021.2.3,Win32,61.83144747,616597ecca6e8d930673b1e4,626b377229c10585ec392f89,626b3a4dda4ec33bab80ac61,,,,,,,,,,,,,,,,,,,,,,,,,,,,,,,,,,,,,,,,,,,,,,,,,,,,,"On trials you completed with assistance from the aid, how frequently did you think the aid was correct?",,0.7,0,65,,0,0,0,0,1,0,,,,
,616597ecca6e8d930673b1e4,001,2022-04-29_02h08.13.841,classification_task,2021.2.3,Win32,61.83144747,616597ecca6e8d930673b1e4,626b377229c10585ec392f89,626b3a4dda4ec33bab80ac61,,,,,,,,,,,,,,,,,,,,,,,,,,,,,,,,,,,,,,,,,,,,,,,,,,,,,"On trials you completed without the aid, how frequently did you think you were correct?",,0.7,0,40,,0,0,0,0,1,0,,,,
,616597ecca6e8d930673b1e4,001,2022-04-29_02h08.13.841,classification_task,2021.2.3,Win32,61.83144747,616597ecca6e8d930673b1e4,626b377229c10585ec392f89,626b3a4dda4ec33bab80ac61,,,,,,,,,,,,,,,,,,,,,,,,,,,,,,,,,,,,,,,,,,,,,,,,,,,,,,,,,,,0,0,0,0,1,,,,,
,616597ecca6e8d930673b1e4,001,2022-04-29_02h08.13.841,classification_task,2021.2.3,Win32,61.83144747,616597ecca6e8d930673b1e4,626b377229c10585ec392f89,626b3a4dda4ec33bab80ac61,,,,,,,,,,,,,,,,,,,,,,,,,,,,,,,,,,,,,,,,,,,,,,,,,,,,,,,,,,,,,,,,,space,8.8402,690.0732,
,616597ecca6e8d930673b1e4,001,2022-04-29_02h08.13.841,classification_task,2021.2.3,Win32,61.83144747,616597ecca6e8d930673b1e4,626b377229c10585ec392f89,626b3a4dda4ec33bab80ac61,,,,,,,,,,,,,,,,,,,,,,,,,,,,,,,,,,,,,,,,,,,,,,,,,,,,,,,,,,,,,,,,,,,,"Mozilla/5.0 (Windows NT 10.0; Win64; x64) AppleWebKit/537.36 (KHTML, like Gecko) Chrome/100.0.4896.127 Safari/537.36"
