usingWebGL,participant,session,date,expName,psychopyVersion,OS,frameRate,study_id,signatures_friend,signatures_foe,band_ranges_top,band_ranges_bottom,formitemText,formtype,formundefined,formitemWidth,formindex,formresponse,formrt,key_resp_2.keys,key_resp_2.rt,tute_resp.keys,tute_resp.rt,tutorial.thisRepN,tutorial.thisTrialN,tutorial.thisN,tutorial.thisIndex,tutorial.ran,key_resp_4.keys,key_resp_4.rt,key_resp.keys,key_resp.corr,lines_presented,is_signal_presented,trials.thisRepN,trials.thisTrialN,trials.thisN,trials.thisIndex,trials.ran,vessel,active_band,lines,is_signal,supported_pos,catch_trial,key_resp.rt,debrief_formindex,debrief_formitemText,debrief_formtype,debrief_formitemWidth,debrief_formresponse,debrief_formrt,phases.thisRepN,phases.thisTrialN,phases.thisN,phases.thisIndex,phases.ran,phases.order,phase,key_resp_3.keys,trustitemText,trusttype,trustitemWidth,trustindex,trustresponse,trustrt,support_status.thisRepN,support_status.thisTrialN,support_status.thisN,support_status.thisIndex,support_status.ran,support_status.order,key_resp_5.keys,key_resp_5.rt,globalClockTime,userAgent,manualCondition
TRUE,61663fc40608a8c8e6ac7d35,627c751d2dc9eb3f7fd16e4a,2022-05-11_21h50.54.669,classification_task,2021.2.3,Win32,29.97961386,627c6715c52fd12f31907bd0,,,,,,,,,,,,,,,,,,,,,,,,,,,,,,,,,,,,,,,,,,,,,,,,,,,,,,,,,,,,,,,,,,,,,
,61663fc40608a8c8e6ac7d35,627c751d2dc9eb3f7fd16e4a,2022-05-11_21h50.54.669,classification_task,2021.2.3,Win32,29.97961386,627c6715c52fd12f31907bd0,"[[""0.194"",""0.483"",""0.799"",""0.973""],[""0.240"",""0.419"",""0.752"",""0.906""]]","[[""0.100"",""0.296"",""0.576"",""0.840""],[""0.146"",""0.379"",""0.672"",""0.713""]]","[1,10]","[100,1000]",Video game experience,,,0.7,0,,,,,,,,,,,,,,,,,,,,,,,,,,,,,,,,,,,,,,,,,,,,,,,,,,,,,,,,,,,,
,61663fc40608a8c8e6ac7d35,627c751d2dc9eb3f7fd16e4a,2022-05-11_21h50.54.669,classification_task,2021.2.3,Win32,29.97961386,627c6715c52fd12f31907bd0,,,,,Approximately how many hours did you spend playing video games in the last week?,,,0.7,0,0,,,,,,,,,,,,,,,,,,,,,,,,,,,,,,,,,,,,,,,,,,,,,,,,,,,,,,,,,,,
,61663fc40608a8c8e6ac7d35,627c751d2dc9eb3f7fd16e4a,2022-05-11_21h50.54.669,classification_task,2021.2.3,Win32,29.97961386,627c6715c52fd12f31907bd0,,,,,"Which game did you play the most this year? (Enter ""None"" if you didn't play any)",,,0.7,0,Resident evil,,,,,,,,,,,,,,,,,,,,,,,,,,,,,,,,,,,,,,,,,,,,,,,,,,,,,,,,,,,
,61663fc40608a8c8e6ac7d35,627c751d2dc9eb3f7fd16e4a,2022-05-11_21h50.54.669,classification_task,2021.2.3,Win32,29.97961386,627c6715c52fd12f31907bd0,,,,,Visual perception,,,0.7,0,,,,,,,,,,,,,,,,,,,,,,,,,,,,,,,,,,,,,,,,,,,,,,,,,,,,,,,,,,,,
,61663fc40608a8c8e6ac7d35,627c751d2dc9eb3f7fd16e4a,2022-05-11_21h50.54.669,classification_task,2021.2.3,Win32,29.97961386,627c6715c52fd12f31907bd0,,,,,Do you have any form of color blindness?,,,0.7,0,No,20.8646,,,,,,,,,,,,,,,,,,,,,,,,,,,,,,,,,,,,,,,,,,,,,,,,,,,,,,,,,,
,61663fc40608a8c8e6ac7d35,627c751d2dc9eb3f7fd16e4a,2022-05-11_21h50.54.669,classification_task,2021.2.3,Win32,29.97961386,627c6715c52fd12f31907bd0,,,,,Do you use software to change the colour temperature of your screen (e.g. f.lux)?,,,0.7,0,No,24.7216,,,,,,,,,,,,,,,,,,,,,,,,,,,,,,,,,,,,,,,,,,,,,,,,,,,,,,,,,,
,61663fc40608a8c8e6ac7d35,627c751d2dc9eb3f7fd16e4a,2022-05-11_21h50.54.669,classification_task,2021.2.3,Win32,29.97961386,627c6715c52fd12f31907bd0,,,,,,,,,,,,space,41.4568,space,9.8953,0,0,0,0,1,,,,,,,,,,,,,,,,,,,,,,,,,,,,,,,,,,,,,,,,,,,,,,,,,
,61663fc40608a8c8e6ac7d35,627c751d2dc9eb3f7fd16e4a,2022-05-11_21h50.54.669,classification_task,2021.2.3,Win32,29.97961386,627c6715c52fd12f31907bd0,,,,,,,,,,,,,,space,19.758,1,0,1,0,1,,,,,,,,,,,,,,,,,,,,,,,,,,,,,,,,,,,,,,,,,,,,,,,,,
,61663fc40608a8c8e6ac7d35,627c751d2dc9eb3f7fd16e4a,2022-05-11_21h50.54.669,classification_task,2021.2.3,Win32,29.97961386,627c6715c52fd12f31907bd0,,,,,,,,,,,,,,space,26.3484,2,0,2,0,1,,,,,,,,,,,,,,,,,,,,,,,,,,,,,,,,,,,,,,,,,,,,,,,,,
,61663fc40608a8c8e6ac7d35,627c751d2dc9eb3f7fd16e4a,2022-05-11_21h50.54.669,classification_task,2021.2.3,Win32,29.97961386,627c6715c52fd12f31907bd0,,,,,,,,,,,,,,space,43.2405,3,0,3,0,1,,,,,,,,,,,,,,,,,,,,,,,,,,,,,,,,,,,,,,,,,,,,,,,,,
,61663fc40608a8c8e6ac7d35,627c751d2dc9eb3f7fd16e4a,2022-05-11_21h50.54.669,classification_task,2021.2.3,Win32,29.97961386,627c6715c52fd12f31907bd0,,,,,,,,,,,,,,space,24.7542,4,0,4,0,1,,,,,,,,,,,,,,,,,,,,,,,,,,,,,,,,,,,,,,,,,,,,,,,,,
,61663fc40608a8c8e6ac7d35,627c751d2dc9eb3f7fd16e4a,2022-05-11_21h50.54.669,classification_task,2021.2.3,Win32,29.97961386,627c6715c52fd12f31907bd0,,,,,,,,,,,,,,,,,,,,,space,25.9519,,0,"[""0.146"",""0.379"",""0.672"",""0.066""]","[1,1,1,0]",0,0,0,0,1,1,1,,,0,FALSE,,,,,,,,,,,,,,,,,,,,,,,,,,,,,,,,
,61663fc40608a8c8e6ac7d35,627c751d2dc9eb3f7fd16e4a,2022-05-11_21h50.54.669,classification_task,2021.2.3,Win32,29.97961386,627c6715c52fd12f31907bd0,,,,,,,,,,,,,,,,,,,,,,,a,1,"[""0.240"",""0.419"",""0.752"",""0.340""]","[1,1,1,0]",0,1,1,1,1,0,1,,,0,FALSE,4.5985,,,,,,,,,,,,,,,,,,,,,,,,,,,,,,,
,61663fc40608a8c8e6ac7d35,627c751d2dc9eb3f7fd16e4a,2022-05-11_21h50.54.669,classification_task,2021.2.3,Win32,29.97961386,627c6715c52fd12f31907bd0,,,,,,,,,,,,,,,,,,,,,,,l,1,"[""0.528"",""0.296"",""0.576"",""0.840""]","[0,1,1,1]",0,2,2,2,1,1,0,,,0,FALSE,6.8889,,,,,,,,,,,,,,,,,,,,,,,,,,,,,,,
,61663fc40608a8c8e6ac7d35,627c751d2dc9eb3f7fd16e4a,2022-05-11_21h50.54.669,classification_task,2021.2.3,Win32,29.97961386,627c6715c52fd12f31907bd0,,,,,,,,,,,,,,,,,,,,,,,a,1,"[""0.194"",""0.483"",""0.799"",""0.026""]","[1,1,1,0]",0,3,3,3,1,0,0,,,0,FALSE,5.9497,,,,,,,,,,,,,,,,,,,,,,,,,,,,,,,
,61663fc40608a8c8e6ac7d35,627c751d2dc9eb3f7fd16e4a,2022-05-11_21h50.54.669,classification_task,2021.2.3,Win32,29.97961386,627c6715c52fd12f31907bd0,,,,,,,,,,,,,,,,,,,,,,,l,1,"[""0.146"",""0.379"",""0.341"",""0.713""]","[1,1,0,1]",0,4,4,4,1,1,1,,,0,FALSE,4.4313,,,,,,,,,,,,,,,,,,,,,,,,,,,,,,,
,61663fc40608a8c8e6ac7d35,627c751d2dc9eb3f7fd16e4a,2022-05-11_21h50.54.669,classification_task,2021.2.3,Win32,29.97961386,627c6715c52fd12f31907bd0,,,,,,,,,,,,,,,,,,,,,,,l,1,"[""0.146"",""0.026"",""0.672"",""0.713""]","[1,0,1,1]",0,5,5,5,1,1,1,,,0,FALSE,4.5273,,,,,,,,,,,,,,,,,,,,,,,,,,,,,,,
,61663fc40608a8c8e6ac7d35,627c751d2dc9eb3f7fd16e4a,2022-05-11_21h50.54.669,classification_task,2021.2.3,Win32,29.97961386,627c6715c52fd12f31907bd0,,,,,,,,,,,,,,,,,,,,,,,a,1,"[""0.240"",""0.340"",""0.752"",""0.906""]","[1,0,1,1]",0,6,6,6,1,0,1,,,0,FALSE,3.7462,,,,,,,,,,,,,,,,,,,,,,,,,,,,,,,
,61663fc40608a8c8e6ac7d35,627c751d2dc9eb3f7fd16e4a,2022-05-11_21h50.54.669,classification_task,2021.2.3,Win32,29.97961386,627c6715c52fd12f31907bd0,,,,,,,,,,,,,,,,,,,,,,,l,0,"[""0.194"",""0.627"",""0.799"",""0.973""]","[1,0,1,1]",0,7,7,7,1,0,0,,,0,FALSE,5.3599,,,,,,,,,,,,,,,,,,,,,,,,,,,,,,,
,61663fc40608a8c8e6ac7d35,627c751d2dc9eb3f7fd16e4a,2022-05-11_21h50.54.669,classification_task,2021.2.3,Win32,29.97961386,627c6715c52fd12f31907bd0,,,,,,,,,,,,,,,,,,,,,,,a,0,"[""0.627"",""0.379"",""0.672"",""0.713""]","[0,1,1,1]",0,8,8,8,1,1,1,,,0,FALSE,8.7169,,,,,,,,,,,,,,,,,,,,,,,,,,,,,,,
,61663fc40608a8c8e6ac7d35,627c751d2dc9eb3f7fd16e4a,2022-05-11_21h50.54.669,classification_task,2021.2.3,Win32,29.97961386,627c6715c52fd12f31907bd0,,,,,,,,,,,,,,,,,,,,,,,a,1,"[""0.194"",""0.483"",""0.528"",""0.973""]","[1,1,0,1]",0,9,9,9,1,0,0,,,0,FALSE,5.2933,,,,,,,,,,,,,,,,,,,,,,,,,,,,,,,
,61663fc40608a8c8e6ac7d35,627c751d2dc9eb3f7fd16e4a,2022-05-11_21h50.54.669,classification_task,2021.2.3,Win32,29.97961386,627c6715c52fd12f31907bd0,,,,,,,,,,,,,,,,,,,,,,,a,1,"[""0.240"",""0.419"",""0.047"",""0.906""]","[1,1,0,1]",0,10,10,10,1,0,1,,,0,FALSE,3.1392,,,,,,,,,,,,,,,,,,,,,,,,,,,,,,,
,61663fc40608a8c8e6ac7d35,627c751d2dc9eb3f7fd16e4a,2022-05-11_21h50.54.669,classification_task,2021.2.3,Win32,29.97961386,627c6715c52fd12f31907bd0,,,,,,,,,,,,,,,,,,,,,,,l,1,"[""0.100"",""0.296"",""0.528"",""0.840""]","[1,1,0,1]",0,11,11,11,1,1,0,,,0,FALSE,2.8604,,,,,,,,,,,,,,,,,,,,,,,,,,,,,,,
,61663fc40608a8c8e6ac7d35,627c751d2dc9eb3f7fd16e4a,2022-05-11_21h50.54.669,classification_task,2021.2.3,Win32,29.97961386,627c6715c52fd12f31907bd0,,,,,,,,,,,,,,,,,,,,,,,a,1,"[""0.531"",""0.419"",""0.752"",""0.906""]","[0,1,1,1]",0,12,12,12,1,0,1,,,0,FALSE,2.8263,,,,,,,,,,,,,,,,,,,,,,,,,,,,,,,
,61663fc40608a8c8e6ac7d35,627c751d2dc9eb3f7fd16e4a,2022-05-11_21h50.54.669,classification_task,2021.2.3,Win32,29.97961386,627c6715c52fd12f31907bd0,,,,,,,,,,,,,,,,,,,,,,,l,1,"[""0.100"",""0.296"",""0.576"",""0.340""]","[1,1,1,0]",0,13,13,13,1,1,0,,,0,FALSE,4.0626,,,,,,,,,,,,,,,,,,,,,,,,,,,,,,,
,61663fc40608a8c8e6ac7d35,627c751d2dc9eb3f7fd16e4a,2022-05-11_21h50.54.669,classification_task,2021.2.3,Win32,29.97961386,627c6715c52fd12f31907bd0,,,,,,,,,,,,,,,,,,,,,,,a,1,"[""0.627"",""0.483"",""0.799"",""0.973""]","[0,1,1,1]",0,14,14,14,1,0,0,,,0,FALSE,4.0264,,,,,,,,,,,,,,,,,,,,,,,,,,,,,,,
,61663fc40608a8c8e6ac7d35,627c751d2dc9eb3f7fd16e4a,2022-05-11_21h50.54.669,classification_task,2021.2.3,Win32,29.97961386,627c6715c52fd12f31907bd0,,,,,,,,,,,,,,,,,,,,,,,a,0,"[""0.100"",""0.534"",""0.576"",""0.840""]","[1,0,1,1]",0,15,15,15,1,1,0,,,0,FALSE,4.2801,,,,,,,,,,,,,,,,,,,,,,,,,,,,,,,
,61663fc40608a8c8e6ac7d35,627c751d2dc9eb3f7fd16e4a,2022-05-11_21h50.54.669,classification_task,2021.2.3,Win32,29.97961386,627c6715c52fd12f31907bd0,,,,,,,,,,,,,,,,,,,,,,,l,0,"[""0.194"",""0.483"",""0.799"",""0.340""]","[1,1,1,0]",0,16,16,16,1,0,0,,,0,FALSE,6.4191,,,,,,,,,,,,,,,,,,,,,,,,,,,,,,,
,61663fc40608a8c8e6ac7d35,627c751d2dc9eb3f7fd16e4a,2022-05-11_21h50.54.669,classification_task,2021.2.3,Win32,29.97961386,627c6715c52fd12f31907bd0,,,,,,,,,,,,,,,,,,,,,,,l,1,"[""0.341"",""0.296"",""0.576"",""0.840""]","[0,1,1,1]",0,17,17,17,1,1,0,,,0,FALSE,6.5975,,,,,,,,,,,,,,,,,,,,,,,,,,,,,,,
,61663fc40608a8c8e6ac7d35,627c751d2dc9eb3f7fd16e4a,2022-05-11_21h50.54.669,classification_task,2021.2.3,Win32,29.97961386,627c6715c52fd12f31907bd0,,,,,,,,,,,,,,,,,,,,,,,a,1,"[""0.627"",""0.419"",""0.752"",""0.906""]","[0,1,1,1]",0,18,18,18,1,0,1,,,0,FALSE,5.1466,,,,,,,,,,,,,,,,,,,,,,,,,,,,,,,
,61663fc40608a8c8e6ac7d35,627c751d2dc9eb3f7fd16e4a,2022-05-11_21h50.54.669,classification_task,2021.2.3,Win32,29.97961386,627c6715c52fd12f31907bd0,,,,,,,,,,,,,,,,,,,,,,,l,1,"[""0.100"",""0.296"",""0.576"",""0.623""]","[1,1,1,0]",0,19,19,19,1,1,0,,,0,FALSE,4.617,,,,,,,,,,,,,,,,,,,,,,,,,,,,,,,
,61663fc40608a8c8e6ac7d35,627c751d2dc9eb3f7fd16e4a,2022-05-11_21h50.54.669,classification_task,2021.2.3,Win32,29.97961386,627c6715c52fd12f31907bd0,,,,,,,,,,,,,,,,,,,,,,,l,1,"[""0.146"",""0.379"",""0.672"",""0.534""]","[1,1,1,0]",0,20,20,20,1,1,1,,,0,FALSE,4.3914,,,,,,,,,,,,,,,,,,,,,,,,,,,,,,,
,61663fc40608a8c8e6ac7d35,627c751d2dc9eb3f7fd16e4a,2022-05-11_21h50.54.669,classification_task,2021.2.3,Win32,29.97961386,627c6715c52fd12f31907bd0,,,,,,,,,,,,,,,,,,,,,,,a,1,"[""0.531"",""0.483"",""0.799"",""0.973""]","[0,1,1,1]",0,21,21,21,1,0,0,,,0,FALSE,9.1476,,,,,,,,,,,,,,,,,,,,,,,,,,,,,,,
,61663fc40608a8c8e6ac7d35,627c751d2dc9eb3f7fd16e4a,2022-05-11_21h50.54.669,classification_task,2021.2.3,Win32,29.97961386,627c6715c52fd12f31907bd0,,,,,,,,,,,,,,,,,,,,,,,l,1,"[""0.623"",""0.379"",""0.672"",""0.713""]","[0,1,1,1]",0,22,22,22,1,1,1,,,0,FALSE,7.4833,,,,,,,,,,,,,,,,,,,,,,,,,,,,,,,
,61663fc40608a8c8e6ac7d35,627c751d2dc9eb3f7fd16e4a,2022-05-11_21h50.54.669,classification_task,2021.2.3,Win32,29.97961386,627c6715c52fd12f31907bd0,,,,,,,,,,,,,,,,,,,,,,,l,0,"[""0.240"",""0.419"",""0.752"",""0.047""]","[1,1,1,0]",0,23,23,23,1,0,1,,,0,FALSE,6.3262,,,,,,,,,,,,,,,,,,,,,,,,,,,,,,,
,61663fc40608a8c8e6ac7d35,627c751d2dc9eb3f7fd16e4a,2022-05-11_21h50.54.669,classification_task,2021.2.3,Win32,29.97961386,627c6715c52fd12f31907bd0,,,,,,,,,,,,,,,,,,,,,,,l,1,"[""0.100"",""0.296"",""0.340"",""0.840""]","[1,1,0,1]",0,24,24,24,1,1,0,,,0,FALSE,5.946,,,,,,,,,,,,,,,,,,,,,,,,,,,,,,,
,61663fc40608a8c8e6ac7d35,627c751d2dc9eb3f7fd16e4a,2022-05-11_21h50.54.669,classification_task,2021.2.3,Win32,29.97961386,627c6715c52fd12f31907bd0,,,,,,,,,,,,,,,,,,,,,,,a,1,"[""0.240"",""0.419"",""0.623"",""0.906""]","[1,1,0,1]",0,25,25,25,1,0,1,,,0,FALSE,4.8419,,,,,,,,,,,,,,,,,,,,,,,,,,,,,,,
,61663fc40608a8c8e6ac7d35,627c751d2dc9eb3f7fd16e4a,2022-05-11_21h50.54.669,classification_task,2021.2.3,Win32,29.97961386,627c6715c52fd12f31907bd0,,,,,,,,,,,,,,,,,,,,,,,a,1,"[""0.240"",""0.047"",""0.752"",""0.906""]","[1,0,1,1]",0,26,26,26,1,0,1,,,0,FALSE,3.7314,,,,,,,,,,,,,,,,,,,,,,,,,,,,,,,
,61663fc40608a8c8e6ac7d35,627c751d2dc9eb3f7fd16e4a,2022-05-11_21h50.54.669,classification_task,2021.2.3,Win32,29.97961386,627c6715c52fd12f31907bd0,,,,,,,,,,,,,,,,,,,,,,,l,1,"[""0.146"",""0.340"",""0.672"",""0.713""]","[1,0,1,1]",0,27,27,27,1,1,1,,,0,FALSE,4.4216,,,,,,,,,,,,,,,,,,,,,,,,,,,,,,,
,61663fc40608a8c8e6ac7d35,627c751d2dc9eb3f7fd16e4a,2022-05-11_21h50.54.669,classification_task,2021.2.3,Win32,29.97961386,627c6715c52fd12f31907bd0,,,,,,,,,,,,,,,,,,,,,,,a,0,"[""0.146"",""0.379"",""0.066"",""0.713""]","[1,1,0,1]",0,28,28,28,1,1,1,,,0,FALSE,5.8287,,,,,,,,,,,,,,,,,,,,,,,,,,,,,,,
,61663fc40608a8c8e6ac7d35,627c751d2dc9eb3f7fd16e4a,2022-05-11_21h50.54.669,classification_task,2021.2.3,Win32,29.97961386,627c6715c52fd12f31907bd0,,,,,,,,,,,,,,,,,,,,,,,a,1,"[""0.194"",""0.340"",""0.799"",""0.973""]","[1,0,1,1]",0,29,29,29,1,0,0,,,0,FALSE,6.9685,,,,,,,,,,,,,,,,,,,,,,,,,,,,,,,
,61663fc40608a8c8e6ac7d35,627c751d2dc9eb3f7fd16e4a,2022-05-11_21h50.54.669,classification_task,2021.2.3,Win32,29.97961386,627c6715c52fd12f31907bd0,,,,,,,,,,,,,,,,,,,,,,,l,1,"[""0.100"",""0.522"",""0.576"",""0.840""]","[1,0,1,1]",0,30,30,30,1,1,0,,,0,FALSE,9.5311,,,,,,,,,,,,,,,,,,,,,,,,,,,,,,,
,61663fc40608a8c8e6ac7d35,627c751d2dc9eb3f7fd16e4a,2022-05-11_21h50.54.669,classification_task,2021.2.3,Win32,29.97961386,627c6715c52fd12f31907bd0,,,,,,,,,,,,,,,,,,,,,,,a,1,"[""0.194"",""0.483"",""0.627"",""0.973""]","[1,1,0,1]",0,31,31,31,1,0,0,,,0,FALSE,5.6125,,,,,,,,,,,,,,,,,,,,,,,,,,,,,,,
,61663fc40608a8c8e6ac7d35,627c751d2dc9eb3f7fd16e4a,2022-05-11_21h50.54.669,classification_task,2021.2.3,Win32,29.97961386,627c6715c52fd12f31907bd0,,,,,,,,,,,,,,,,,,,,,,,,0,"[""0.240"",""0.419"",""0.752"",""0.623""]","[1,1,1,0]",0,32,32,32,1,0,1,,,0,FALSE,,,,,,,,,,,,,,,,,,,,,,,,,,,,,,,,
,61663fc40608a8c8e6ac7d35,627c751d2dc9eb3f7fd16e4a,2022-05-11_21h50.54.669,classification_task,2021.2.3,Win32,29.97961386,627c6715c52fd12f31907bd0,,,,,,,,,,,,,,,,,,,,,,,l,0,"[""0.194"",""0.026"",""0.799"",""0.973""]","[1,0,1,1]",0,33,33,33,1,0,0,,,0,FALSE,4.5604,,,,,,,,,,,,,,,,,,,,,,,,,,,,,,,
,61663fc40608a8c8e6ac7d35,627c751d2dc9eb3f7fd16e4a,2022-05-11_21h50.54.669,classification_task,2021.2.3,Win32,29.97961386,627c6715c52fd12f31907bd0,,,,,,,,,,,,,,,,,,,,,,,l,1,"[""0.146"",""0.623"",""0.672"",""0.713""]","[1,0,1,1]",0,34,34,34,1,1,1,,,0,FALSE,5.4178,,,,,,,,,,,,,,,,,,,,,,,,,,,,,,,
,61663fc40608a8c8e6ac7d35,627c751d2dc9eb3f7fd16e4a,2022-05-11_21h50.54.669,classification_task,2021.2.3,Win32,29.97961386,627c6715c52fd12f31907bd0,,,,,,,,,,,,,,,,,,,,,,,a,1,"[""0.240"",""0.528"",""0.752"",""0.906""]","[1,0,1,1]",0,35,35,35,1,0,1,,,0,FALSE,6.2687,,,,,,,,,,,,,,,,,,,,,,,,,,,,,,,
,61663fc40608a8c8e6ac7d35,627c751d2dc9eb3f7fd16e4a,2022-05-11_21h50.54.669,classification_task,2021.2.3,Win32,29.97961386,627c6715c52fd12f31907bd0,,,,,,,,,,,,,,,,,,,,,,,a,1,"[""0.627"",""0.419"",""0.752"",""0.906""]","[0,1,1,1]",0,36,36,36,1,0,1,,,0,FALSE,3.9185,,,,,,,,,,,,,,,,,,,,,,,,,,,,,,,
,61663fc40608a8c8e6ac7d35,627c751d2dc9eb3f7fd16e4a,2022-05-11_21h50.54.669,classification_task,2021.2.3,Win32,29.97961386,627c6715c52fd12f31907bd0,,,,,,,,,,,,,,,,,,,,,,,l,1,"[""0.340"",""0.296"",""0.576"",""0.840""]","[0,1,1,1]",0,37,37,37,1,1,0,,,0,FALSE,2.36,,,,,,,,,,,,,,,,,,,,,,,,,,,,,,,
,61663fc40608a8c8e6ac7d35,627c751d2dc9eb3f7fd16e4a,2022-05-11_21h50.54.669,classification_task,2021.2.3,Win32,29.97961386,627c6715c52fd12f31907bd0,,,,,,,,,,,,,,,,,,,,,,,a,0,"[""0.100"",""0.296"",""0.623"",""0.840""]","[1,1,0,1]",0,38,38,38,1,1,0,,,0,FALSE,1.2113,,,,,,,,,,,,,,,,,,,,,,,,,,,,,,,
,61663fc40608a8c8e6ac7d35,627c751d2dc9eb3f7fd16e4a,2022-05-11_21h50.54.669,classification_task,2021.2.3,Win32,29.97961386,627c6715c52fd12f31907bd0,,,,,,,,,,,,,,,,,,,,,,,l,1,"[""0.146"",""0.379"",""0.672"",""0.627""]","[1,1,1,0]",0,39,39,39,1,1,1,,,0,FALSE,1.1877,,,,,,,,,,,,,,,,,,,,,,,,,,,,,,,
,61663fc40608a8c8e6ac7d35,627c751d2dc9eb3f7fd16e4a,2022-05-11_21h50.54.669,classification_task,2021.2.3,Win32,29.97961386,627c6715c52fd12f31907bd0,,,,,,,,,,,,,,,,,,,,,,,a,0,"[""0.100"",""0.340"",""0.576"",""0.840""]","[1,0,1,1]",0,40,40,40,1,1,0,,,0,FALSE,1.491,,,,,,,,,,,,,,,,,,,,,,,,,,,,,,,
,61663fc40608a8c8e6ac7d35,627c751d2dc9eb3f7fd16e4a,2022-05-11_21h50.54.669,classification_task,2021.2.3,Win32,29.97961386,627c6715c52fd12f31907bd0,,,,,,,,,,,,,,,,,,,,,,,a,1,"[""0.240"",""0.419"",""0.614"",""0.906""]","[1,1,0,1]",0,41,41,41,1,0,1,,,0,FALSE,1.8997,,,,,,,,,,,,,,,,,,,,,,,,,,,,,,,
,61663fc40608a8c8e6ac7d35,627c751d2dc9eb3f7fd16e4a,2022-05-11_21h50.54.669,classification_task,2021.2.3,Win32,29.97961386,627c6715c52fd12f31907bd0,,,,,,,,,,,,,,,,,,,,,,,l,0,"[""0.616"",""0.483"",""0.799"",""0.973""]","[0,1,1,1]",0,42,42,42,1,0,0,,,0,FALSE,8.097,,,,,,,,,,,,,,,,,,,,,,,,,,,,,,,
,61663fc40608a8c8e6ac7d35,627c751d2dc9eb3f7fd16e4a,2022-05-11_21h50.54.669,classification_task,2021.2.3,Win32,29.97961386,627c6715c52fd12f31907bd0,,,,,,,,,,,,,,,,,,,,,,,a,0,"[""0.100"",""0.296"",""0.576"",""0.066""]","[1,1,1,0]",0,43,43,43,1,1,0,,,0,FALSE,4.2225,,,,,,,,,,,,,,,,,,,,,,,,,,,,,,,
,61663fc40608a8c8e6ac7d35,627c751d2dc9eb3f7fd16e4a,2022-05-11_21h50.54.669,classification_task,2021.2.3,Win32,29.97961386,627c6715c52fd12f31907bd0,,,,,,,,,,,,,,,,,,,,,,,a,1,"[""0.194"",""0.483"",""0.042"",""0.973""]","[1,1,0,1]",0,44,44,44,1,0,0,,,0,FALSE,2.4839,,,,,,,,,,,,,,,,,,,,,,,,,,,,,,,
,61663fc40608a8c8e6ac7d35,627c751d2dc9eb3f7fd16e4a,2022-05-11_21h50.54.669,classification_task,2021.2.3,Win32,29.97961386,627c6715c52fd12f31907bd0,,,,,,,,,,,,,,,,,,,,,,,l,1,"[""0.534"",""0.379"",""0.672"",""0.713""]","[0,1,1,1]",0,45,45,45,1,1,1,,,0,FALSE,1.2091,,,,,,,,,,,,,,,,,,,,,,,,,,,,,,,
,61663fc40608a8c8e6ac7d35,627c751d2dc9eb3f7fd16e4a,2022-05-11_21h50.54.669,classification_task,2021.2.3,Win32,29.97961386,627c6715c52fd12f31907bd0,,,,,,,,,,,,,,,,,,,,,,,l,0,"[""0.194"",""0.483"",""0.799"",""0.522""]","[1,1,1,0]",0,46,46,46,1,0,0,,,0,FALSE,5.4987,,,,,,,,,,,,,,,,,,,,,,,,,,,,,,,
,61663fc40608a8c8e6ac7d35,627c751d2dc9eb3f7fd16e4a,2022-05-11_21h50.54.669,classification_task,2021.2.3,Win32,29.97961386,627c6715c52fd12f31907bd0,,,,,,,,,,,,,,,,,,,,,,,a,0,"[""0.146"",""0.379"",""0.528"",""0.713""]","[1,1,0,1]",0,47,47,47,1,1,1,,,0,FALSE,1.345,,,,,,,,,,,,,,,,,,,,,,,,,,,,,,,
,61663fc40608a8c8e6ac7d35,627c751d2dc9eb3f7fd16e4a,2022-05-11_21h50.54.669,classification_task,2021.2.3,Win32,29.97961386,627c6715c52fd12f31907bd0,,,,,,,,,,,,,,,,,,,,,,,a,1,"[""0.240"",""0.531"",""0.752"",""0.906""]","[1,0,1,1]",0,48,48,48,1,0,1,,,0,FALSE,1.6095,,,,,,,,,,,,,,,,,,,,,,,,,,,,,,,
,61663fc40608a8c8e6ac7d35,627c751d2dc9eb3f7fd16e4a,2022-05-11_21h50.54.669,classification_task,2021.2.3,Win32,29.97961386,627c6715c52fd12f31907bd0,,,,,,,,,,,,,,,,,,,,,,,l,0,"[""0.528"",""0.419"",""0.752"",""0.906""]","[0,1,1,1]",0,49,49,49,1,0,1,,,0,FALSE,1.0203,,,,,,,,,,,,,,,,,,,,,,,,,,,,,,,
,61663fc40608a8c8e6ac7d35,627c751d2dc9eb3f7fd16e4a,2022-05-11_21h50.54.669,classification_task,2021.2.3,Win32,29.97961386,627c6715c52fd12f31907bd0,,,,,,,,,,,,,,,,,,,,,,,a,0,"[""0.146"",""0.026"",""0.672"",""0.713""]","[1,0,1,1]",0,50,50,50,1,1,1,,,0,FALSE,1.2273,,,,,,,,,,,,,,,,,,,,,,,,,,,,,,,
,61663fc40608a8c8e6ac7d35,627c751d2dc9eb3f7fd16e4a,2022-05-11_21h50.54.669,classification_task,2021.2.3,Win32,29.97961386,627c6715c52fd12f31907bd0,,,,,,,,,,,,,,,,,,,,,,,l,1,"[""0.627"",""0.296"",""0.576"",""0.840""]","[0,1,1,1]",0,51,51,51,1,1,0,,,0,FALSE,1.1295,,,,,,,,,,,,,,,,,,,,,,,,,,,,,,,
,61663fc40608a8c8e6ac7d35,627c751d2dc9eb3f7fd16e4a,2022-05-11_21h50.54.669,classification_task,2021.2.3,Win32,29.97961386,627c6715c52fd12f31907bd0,,,,,,,,,,,,,,,,,,,,,,,a,1,"[""0.240"",""0.419"",""0.340"",""0.906""]","[1,1,0,1]",0,52,52,52,1,0,1,,,0,FALSE,3.0743,,,,,,,,,,,,,,,,,,,,,,,,,,,,,,,
,61663fc40608a8c8e6ac7d35,627c751d2dc9eb3f7fd16e4a,2022-05-11_21h50.54.669,classification_task,2021.2.3,Win32,29.97961386,627c6715c52fd12f31907bd0,,,,,,,,,,,,,,,,,,,,,,,a,1,"[""0.194"",""0.528"",""0.799"",""0.973""]","[1,0,1,1]",0,53,53,53,1,0,0,,,0,FALSE,3.3526,,,,,,,,,,,,,,,,,,,,,,,,,,,,,,,
,61663fc40608a8c8e6ac7d35,627c751d2dc9eb3f7fd16e4a,2022-05-11_21h50.54.669,classification_task,2021.2.3,Win32,29.97961386,627c6715c52fd12f31907bd0,,,,,,,,,,,,,,,,,,,,,,,a,0,"[""0.100"",""0.340"",""0.576"",""0.840""]","[1,0,1,1]",0,54,54,54,1,1,0,,,0,FALSE,2.2972,,,,,,,,,,,,,,,,,,,,,,,,,,,,,,,
,61663fc40608a8c8e6ac7d35,627c751d2dc9eb3f7fd16e4a,2022-05-11_21h50.54.669,classification_task,2021.2.3,Win32,29.97961386,627c6715c52fd12f31907bd0,,,,,,,,,,,,,,,,,,,,,,,l,1,"[""0.623"",""0.379"",""0.672"",""0.713""]","[0,1,1,1]",0,55,55,55,1,1,1,,,0,FALSE,2.4413,,,,,,,,,,,,,,,,,,,,,,,,,,,,,,,
,61663fc40608a8c8e6ac7d35,627c751d2dc9eb3f7fd16e4a,2022-05-11_21h50.54.669,classification_task,2021.2.3,Win32,29.97961386,627c6715c52fd12f31907bd0,,,,,,,,,,,,,,,,,,,,,,,l,0,"[""0.194"",""0.483"",""0.799"",""0.614""]","[1,1,1,0]",0,56,56,56,1,0,0,,,0,FALSE,5.2132,,,,,,,,,,,,,,,,,,,,,,,,,,,,,,,
,61663fc40608a8c8e6ac7d35,627c751d2dc9eb3f7fd16e4a,2022-05-11_21h50.54.669,classification_task,2021.2.3,Win32,29.97961386,627c6715c52fd12f31907bd0,,,,,,,,,,,,,,,,,,,,,,,l,1,"[""0.146"",""0.379"",""0.672"",""0.531""]","[1,1,1,0]",0,57,57,57,1,1,1,,,0,FALSE,1.3078,,,,,,,,,,,,,,,,,,,,,,,,,,,,,,,
,61663fc40608a8c8e6ac7d35,627c751d2dc9eb3f7fd16e4a,2022-05-11_21h50.54.669,classification_task,2021.2.3,Win32,29.97961386,627c6715c52fd12f31907bd0,,,,,,,,,,,,,,,,,,,,,,,a,0,"[""0.100"",""0.296"",""0.576"",""0.531""]","[1,1,1,0]",0,58,58,58,1,1,0,,,0,FALSE,2.8882,,,,,,,,,,,,,,,,,,,,,,,,,,,,,,,
,61663fc40608a8c8e6ac7d35,627c751d2dc9eb3f7fd16e4a,2022-05-11_21h50.54.669,classification_task,2021.2.3,Win32,29.97961386,627c6715c52fd12f31907bd0,,,,,,,,,,,,,,,,,,,,,,,l,0,"[""0.194"",""0.483"",""0.340"",""0.973""]","[1,1,0,1]",0,59,59,59,1,0,0,,,0,FALSE,2.8434,,,,,,,,,,,,,,,,,,,,,,,,,,,,,,,
,61663fc40608a8c8e6ac7d35,627c751d2dc9eb3f7fd16e4a,2022-05-11_21h50.54.669,classification_task,2021.2.3,Win32,29.97961386,627c6715c52fd12f31907bd0,,,,,,,,,,,,,,,,,,,,,,,a,1,"[""0.240"",""0.419"",""0.752"",""0.531""]","[1,1,1,0]",0,60,60,60,1,0,1,,,0,FALSE,4.7423,,,,,,,,,,,,,,,,,,,,,,,,,,,,,,,
,61663fc40608a8c8e6ac7d35,627c751d2dc9eb3f7fd16e4a,2022-05-11_21h50.54.669,classification_task,2021.2.3,Win32,29.97961386,627c6715c52fd12f31907bd0,,,,,,,,,,,,,,,,,,,,,,,a,0,"[""0.146"",""0.379"",""0.522"",""0.713""]","[1,1,0,1]",0,61,61,61,1,1,1,,,0,FALSE,3.9811,,,,,,,,,,,,,,,,,,,,,,,,,,,,,,,
,61663fc40608a8c8e6ac7d35,627c751d2dc9eb3f7fd16e4a,2022-05-11_21h50.54.669,classification_task,2021.2.3,Win32,29.97961386,627c6715c52fd12f31907bd0,,,,,,,,,,,,,,,,,,,,,,,l,0,"[""0.616"",""0.483"",""0.799"",""0.973""]","[0,1,1,1]",0,62,62,62,1,0,0,,,0,FALSE,1.9634,,,,,,,,,,,,,,,,,,,,,,,,,,,,,,,
,61663fc40608a8c8e6ac7d35,627c751d2dc9eb3f7fd16e4a,2022-05-11_21h50.54.669,classification_task,2021.2.3,Win32,29.97961386,627c6715c52fd12f31907bd0,,,,,,,,,,,,,,,,,,,,,,,l,1,"[""0.100"",""0.296"",""0.522"",""0.840""]","[1,1,0,1]",0,63,63,63,1,1,0,,,0,FALSE,8.4963,,,,,,,,,,,,,,,,,,,,,,,,,,,,,,,
,61663fc40608a8c8e6ac7d35,627c751d2dc9eb3f7fd16e4a,2022-05-11_21h50.54.669,classification_task,2021.2.3,Win32,29.97961386,627c6715c52fd12f31907bd0,,,,,,,,,,,,,,,,,,,,,,,,,,,,,,,,,,,,,,,0, ,,0,0.982755242,602.0316,0,0,0,0,1,2,1,,,,,,,,,,,,,,,,,,
,61663fc40608a8c8e6ac7d35,627c751d2dc9eb3f7fd16e4a,2022-05-11_21h50.54.669,classification_task,2021.2.3,Win32,29.97961386,627c6715c52fd12f31907bd0,,,,,,,,,,,,,,,,,,,,,,,,,,,,,,,,,,,,,,,1,  ,,0,8.110915148,609.1413,0,0,0,0,1,2,1,,,,,,,,,,,,,,,,,,
,61663fc40608a8c8e6ac7d35,627c751d2dc9eb3f7fd16e4a,2022-05-11_21h50.54.669,classification_task,2021.2.3,Win32,29.97961386,627c6715c52fd12f31907bd0,,,,,,,,,,,,,,,,,,,,,,,,,,,,,,,,,,,,,,,2,  ,,0,0,613.6337,0,0,0,0,1,2,1,,,,,,,,,,,,,,,,,,
,61663fc40608a8c8e6ac7d35,627c751d2dc9eb3f7fd16e4a,2022-05-11_21h50.54.669,classification_task,2021.2.3,Win32,29.97961386,627c6715c52fd12f31907bd0,,,,,,,,,,,,,,,,,,,,,,,,,,,,,,,,,,,,,,,,,,,,,0,0,0,0,1,,1,,,,,,,,,,,,,,,,,,
,61663fc40608a8c8e6ac7d35,627c751d2dc9eb3f7fd16e4a,2022-05-11_21h50.54.669,classification_task,2021.2.3,Win32,29.97961386,627c6715c52fd12f31907bd0,,,,,,,,,,,,,,,,,,,,,space,38.8049,,0,"[""0.240"",""0.419"",""0.614"",""0.906""]","[1,1,0,1]",0,0,0,0,1,0,1,,,0,FALSE,,,,,,,,,,,,,,,,,,,,,,,,,,,,,,,,
,61663fc40608a8c8e6ac7d35,627c751d2dc9eb3f7fd16e4a,2022-05-11_21h50.54.669,classification_task,2021.2.3,Win32,29.97961386,627c6715c52fd12f31907bd0,,,,,,,,,,,,,,,,,,,,,,,a,1,"[""0.194"",""0.483"",""0.522"",""0.973""]","[1,1,0,1]",0,1,1,1,1,0,0,,,0,FALSE,1.9196,,,,,,,,,,,,,,,,,,,,,,,,,,,,,,,
,61663fc40608a8c8e6ac7d35,627c751d2dc9eb3f7fd16e4a,2022-05-11_21h50.54.669,classification_task,2021.2.3,Win32,29.97961386,627c6715c52fd12f31907bd0,,,,,,,,,,,,,,,,,,,,,,,l,1,"[""0.100"",""0.296"",""0.576"",""0.614""]","[1,1,1,0]",0,2,2,2,1,1,0,,,0,FALSE,0.9047,,,,,,,,,,,,,,,,,,,,,,,,,,,,,,,
,61663fc40608a8c8e6ac7d35,627c751d2dc9eb3f7fd16e4a,2022-05-11_21h50.54.669,classification_task,2021.2.3,Win32,29.97961386,627c6715c52fd12f31907bd0,,,,,,,,,,,,,,,,,,,,,,,a,1,"[""0.194"",""0.066"",""0.799"",""0.973""]","[1,0,1,1]",0,3,3,3,1,0,0,,,0,FALSE,0.7204,,,,,,,,,,,,,,,,,,,,,,,,,,,,,,,
,61663fc40608a8c8e6ac7d35,627c751d2dc9eb3f7fd16e4a,2022-05-11_21h50.54.669,classification_task,2021.2.3,Win32,29.97961386,627c6715c52fd12f31907bd0,,,,,,,,,,,,,,,,,,,,,,,a,1,"[""0.240"",""0.627"",""0.752"",""0.906""]","[1,0,1,1]",0,4,4,4,1,0,1,,,0,FALSE,2.9762,,,,,,,,,,,,,,,,,,,,,,,,,,,,,,,
,61663fc40608a8c8e6ac7d35,627c751d2dc9eb3f7fd16e4a,2022-05-11_21h50.54.669,classification_task,2021.2.3,Win32,29.97961386,627c6715c52fd12f31907bd0,,,,,,,,,,,,,,,,,,,,,,,a,1,"[""0.534"",""0.419"",""0.752"",""0.906""]","[0,1,1,1]",0,5,5,5,1,0,1,,,0,FALSE,4.6494,,,,,,,,,,,,,,,,,,,,,,,,,,,,,,,
,61663fc40608a8c8e6ac7d35,627c751d2dc9eb3f7fd16e4a,2022-05-11_21h50.54.669,classification_task,2021.2.3,Win32,29.97961386,627c6715c52fd12f31907bd0,,,,,,,,,,,,,,,,,,,,,,,l,1,"[""0.100"",""0.296"",""0.066"",""0.840""]","[1,1,0,1]",0,6,6,6,1,1,0,,,0,FALSE,0.9665,,,,,,,,,,,,,,,,,,,,,,,,,,,,,,,
,61663fc40608a8c8e6ac7d35,627c751d2dc9eb3f7fd16e4a,2022-05-11_21h50.54.669,classification_task,2021.2.3,Win32,29.97961386,627c6715c52fd12f31907bd0,,,,,,,,,,,,,,,,,,,,,,,l,0,"[""0.240"",""0.419"",""0.752"",""0.534""]","[1,1,1,0]",0,7,7,7,1,0,1,,,0,FALSE,2.5046,,,,,,,,,,,,,,,,,,,,,,,,,,,,,,,
,61663fc40608a8c8e6ac7d35,627c751d2dc9eb3f7fd16e4a,2022-05-11_21h50.54.669,classification_task,2021.2.3,Win32,29.97961386,627c6715c52fd12f31907bd0,,,,,,,,,,,,,,,,,,,,,,,a,1,"[""0.522"",""0.483"",""0.799"",""0.973""]","[0,1,1,1]",0,8,8,8,1,0,0,,,0,FALSE,0.8801,,,,,,,,,,,,,,,,,,,,,,,,,,,,,,,
,61663fc40608a8c8e6ac7d35,627c751d2dc9eb3f7fd16e4a,2022-05-11_21h50.54.669,classification_task,2021.2.3,Win32,29.97961386,627c6715c52fd12f31907bd0,,,,,,,,,,,,,,,,,,,,,,,a,1,"[""0.194"",""0.483"",""0.799"",""0.066""]","[1,1,1,0]",0,9,9,9,1,0,0,,,0,FALSE,0.7782,,,,,,,,,,,,,,,,,,,,,,,,,,,,,,,
,61663fc40608a8c8e6ac7d35,627c751d2dc9eb3f7fd16e4a,2022-05-11_21h50.54.669,classification_task,2021.2.3,Win32,29.97961386,627c6715c52fd12f31907bd0,,,,,,,,,,,,,,,,,,,,,,,l,1,"[""0.146"",""0.623"",""0.672"",""0.713""]","[1,0,1,1]",0,10,10,10,1,1,1,,,0,FALSE,3.8399,,,,,,,,,,,,,,,,,,,,,,,,,,,,,,,
,61663fc40608a8c8e6ac7d35,627c751d2dc9eb3f7fd16e4a,2022-05-11_21h50.54.669,classification_task,2021.2.3,Win32,29.97961386,627c6715c52fd12f31907bd0,,,,,,,,,,,,,,,,,,,,,,,a,0,"[""0.627"",""0.379"",""0.672"",""0.713""]","[0,1,1,1]",0,11,11,11,1,1,1,,,0,FALSE,3.6335,,,,,,,,,,,,,,,,,,,,,,,,,,,,,,,
,61663fc40608a8c8e6ac7d35,627c751d2dc9eb3f7fd16e4a,2022-05-11_21h50.54.669,classification_task,2021.2.3,Win32,29.97961386,627c6715c52fd12f31907bd0,,,,,,,,,,,,,,,,,,,,,,,l,1,"[""0.623"",""0.296"",""0.576"",""0.840""]","[0,1,1,1]",0,12,12,12,1,1,0,,,0,FALSE,0.7683,,,,,,,,,,,,,,,,,,,,,,,,,,,,,,,
,61663fc40608a8c8e6ac7d35,627c751d2dc9eb3f7fd16e4a,2022-05-11_21h50.54.669,classification_task,2021.2.3,Win32,29.97961386,627c6715c52fd12f31907bd0,,,,,,,,,,,,,,,,,,,,,,,l,1,"[""0.100"",""0.341"",""0.576"",""0.840""]","[1,0,1,1]",0,13,13,13,1,1,0,,,0,FALSE,4.0777,,,,,,,,,,,,,,,,,,,,,,,,,,,,,,,
,61663fc40608a8c8e6ac7d35,627c751d2dc9eb3f7fd16e4a,2022-05-11_21h50.54.669,classification_task,2021.2.3,Win32,29.97961386,627c6715c52fd12f31907bd0,,,,,,,,,,,,,,,,,,,,,,,a,0,"[""0.146"",""0.379"",""0.528"",""0.713""]","[1,1,0,1]",0,14,14,14,1,1,1,,,0,FALSE,5.3375,,,,,,,,,,,,,,,,,,,,,,,,,,,,,,,
,61663fc40608a8c8e6ac7d35,627c751d2dc9eb3f7fd16e4a,2022-05-11_21h50.54.669,classification_task,2021.2.3,Win32,29.97961386,627c6715c52fd12f31907bd0,,,,,,,,,,,,,,,,,,,,,,,a,0,"[""0.146"",""0.379"",""0.672"",""0.616""]","[1,1,1,0]",0,15,15,15,1,1,1,,,0,FALSE,1.8727,,,,,,,,,,,,,,,,,,,,,,,,,,,,,,,
,61663fc40608a8c8e6ac7d35,627c751d2dc9eb3f7fd16e4a,2022-05-11_21h50.54.669,classification_task,2021.2.3,Win32,29.97961386,627c6715c52fd12f31907bd0,,,,,,,,,,,,,,,,,,,,,,,l,1,"[""0.100"",""0.296"",""0.614"",""0.840""]","[1,1,0,1]",0,16,16,16,1,1,0,,,0,FALSE,1.0251,,,,,,,,,,,,,,,,,,,,,,,,,,,,,,,
,61663fc40608a8c8e6ac7d35,627c751d2dc9eb3f7fd16e4a,2022-05-11_21h50.54.669,classification_task,2021.2.3,Win32,29.97961386,627c6715c52fd12f31907bd0,,,,,,,,,,,,,,,,,,,,,,,a,1,"[""0.194"",""0.531"",""0.799"",""0.973""]","[1,0,1,1]",0,17,17,17,1,0,0,,,0,FALSE,0.823,,,,,,,,,,,,,,,,,,,,,,,,,,,,,,,
,61663fc40608a8c8e6ac7d35,627c751d2dc9eb3f7fd16e4a,2022-05-11_21h50.54.669,classification_task,2021.2.3,Win32,29.97961386,627c6715c52fd12f31907bd0,,,,,,,,,,,,,,,,,,,,,,,a,1,"[""0.194"",""0.483"",""0.799"",""0.522""]","[1,1,1,0]",0,18,18,18,1,0,0,,,0,FALSE,0.7513,,,,,,,,,,,,,,,,,,,,,,,,,,,,,,,
,61663fc40608a8c8e6ac7d35,627c751d2dc9eb3f7fd16e4a,2022-05-11_21h50.54.669,classification_task,2021.2.3,Win32,29.97961386,627c6715c52fd12f31907bd0,,,,,,,,,,,,,,,,,,,,,,,l,0,"[""0.340"",""0.419"",""0.752"",""0.906""]","[0,1,1,1]",0,19,19,19,1,0,1,,,0,FALSE,6.9319,,,,,,,,,,,,,,,,,,,,,,,,,,,,,,,
,61663fc40608a8c8e6ac7d35,627c751d2dc9eb3f7fd16e4a,2022-05-11_21h50.54.669,classification_task,2021.2.3,Win32,29.97961386,627c6715c52fd12f31907bd0,,,,,,,,,,,,,,,,,,,,,,,a,1,"[""0.240"",""0.419"",""0.752"",""0.047""]","[1,1,1,0]",0,20,20,20,1,0,1,,,0,FALSE,3.951,,,,,,,,,,,,,,,,,,,,,,,,,,,,,,,
,61663fc40608a8c8e6ac7d35,627c751d2dc9eb3f7fd16e4a,2022-05-11_21h50.54.669,classification_task,2021.2.3,Win32,29.97961386,627c6715c52fd12f31907bd0,,,,,,,,,,,,,,,,,,,,,,,l,1,"[""0.146"",""0.379"",""0.522"",""0.713""]","[1,1,0,1]",0,21,21,21,1,1,1,,,0,FALSE,1.7901,,,,,,,,,,,,,,,,,,,,,,,,,,,,,,,
,61663fc40608a8c8e6ac7d35,627c751d2dc9eb3f7fd16e4a,2022-05-11_21h50.54.669,classification_task,2021.2.3,Win32,29.97961386,627c6715c52fd12f31907bd0,,,,,,,,,,,,,,,,,,,,,,,a,0,"[""0.614"",""0.379"",""0.672"",""0.713""]","[0,1,1,1]",0,22,22,22,1,1,1,,,0,FALSE,1.9923,,,,,,,,,,,,,,,,,,,,,,,,,,,,,,,
,61663fc40608a8c8e6ac7d35,627c751d2dc9eb3f7fd16e4a,2022-05-11_21h50.54.669,classification_task,2021.2.3,Win32,29.97961386,627c6715c52fd12f31907bd0,,,,,,,,,,,,,,,,,,,,,,,a,1,"[""0.194"",""0.483"",""0.627"",""0.973""]","[1,1,0,1]",0,23,23,23,1,0,0,,,0,FALSE,0.76,,,,,,,,,,,,,,,,,,,,,,,,,,,,,,,
,61663fc40608a8c8e6ac7d35,627c751d2dc9eb3f7fd16e4a,2022-05-11_21h50.54.669,classification_task,2021.2.3,Win32,29.97961386,627c6715c52fd12f31907bd0,,,,,,,,,,,,,,,,,,,,,,,l,1,"[""0.100"",""0.522"",""0.576"",""0.840""]","[1,0,1,1]",0,24,24,24,1,1,0,,,0,FALSE,0.9737,,,,,,,,,,,,,,,,,,,,,,,,,,,,,,,
,61663fc40608a8c8e6ac7d35,627c751d2dc9eb3f7fd16e4a,2022-05-11_21h50.54.669,classification_task,2021.2.3,Win32,29.97961386,627c6715c52fd12f31907bd0,,,,,,,,,,,,,,,,,,,,,,,a,0,"[""0.146"",""0.522"",""0.672"",""0.713""]","[1,0,1,1]",0,25,25,25,1,1,1,,,0,FALSE,5.5321,,,,,,,,,,,,,,,,,,,,,,,,,,,,,,,
,61663fc40608a8c8e6ac7d35,627c751d2dc9eb3f7fd16e4a,2022-05-11_21h50.54.669,classification_task,2021.2.3,Win32,29.97961386,627c6715c52fd12f31907bd0,,,,,,,,,,,,,,,,,,,,,,,l,1,"[""0.146"",""0.379"",""0.672"",""0.528""]","[1,1,1,0]",0,26,26,26,1,1,1,,,0,FALSE,1.119,,,,,,,,,,,,,,,,,,,,,,,,,,,,,,,
,61663fc40608a8c8e6ac7d35,627c751d2dc9eb3f7fd16e4a,2022-05-11_21h50.54.669,classification_task,2021.2.3,Win32,29.97961386,627c6715c52fd12f31907bd0,,,,,,,,,,,,,,,,,,,,,,,l,0,"[""0.240"",""0.340"",""0.752"",""0.906""]","[1,0,1,1]",0,27,27,27,1,0,1,,,0,FALSE,0.7899,,,,,,,,,,,,,,,,,,,,,,,,,,,,,,,
,61663fc40608a8c8e6ac7d35,627c751d2dc9eb3f7fd16e4a,2022-05-11_21h50.54.669,classification_task,2021.2.3,Win32,29.97961386,627c6715c52fd12f31907bd0,,,,,,,,,,,,,,,,,,,,,,,l,0,"[""0.240"",""0.419"",""0.340"",""0.906""]","[1,1,0,1]",0,28,28,28,1,0,1,,,0,FALSE,0.6988,,,,,,,,,,,,,,,,,,,,,,,,,,,,,,,
,61663fc40608a8c8e6ac7d35,627c751d2dc9eb3f7fd16e4a,2022-05-11_21h50.54.669,classification_task,2021.2.3,Win32,29.97961386,627c6715c52fd12f31907bd0,,,,,,,,,,,,,,,,,,,,,,,l,1,"[""0.616"",""0.296"",""0.576"",""0.840""]","[0,1,1,1]",0,29,29,29,1,1,0,,,0,FALSE,0.7742,,,,,,,,,,,,,,,,,,,,,,,,,,,,,,,
,61663fc40608a8c8e6ac7d35,627c751d2dc9eb3f7fd16e4a,2022-05-11_21h50.54.669,classification_task,2021.2.3,Win32,29.97961386,627c6715c52fd12f31907bd0,,,,,,,,,,,,,,,,,,,,,,,l,1,"[""0.100"",""0.296"",""0.576"",""0.340""]","[1,1,1,0]",0,30,30,30,1,1,0,,,0,FALSE,0.7963,,,,,,,,,,,,,,,,,,,,,,,,,,,,,,,
,61663fc40608a8c8e6ac7d35,627c751d2dc9eb3f7fd16e4a,2022-05-11_21h50.54.669,classification_task,2021.2.3,Win32,29.97961386,627c6715c52fd12f31907bd0,,,,,,,,,,,,,,,,,,,,,,,a,1,"[""0.623"",""0.483"",""0.799"",""0.973""]","[0,1,1,1]",0,31,31,31,1,0,0,,,0,FALSE,0.7055,,,,,,,,,,,,,,,,,,,,,,,,,,,,,,,
,61663fc40608a8c8e6ac7d35,627c751d2dc9eb3f7fd16e4a,2022-05-11_21h50.54.669,classification_task,2021.2.3,Win32,29.97961386,627c6715c52fd12f31907bd0,,,,,,,,,,,,,,,,,,,,,,,,0,"[""0.240"",""0.419"",""0.752"",""0.026""]","[1,1,1,0]",0,32,32,32,1,0,1,,,0,FALSE,,,,,,,,,,,,,,,,,,,,,,,,,,,,,,,,
,61663fc40608a8c8e6ac7d35,627c751d2dc9eb3f7fd16e4a,2022-05-11_21h50.54.669,classification_task,2021.2.3,Win32,29.97961386,627c6715c52fd12f31907bd0,,,,,,,,,,,,,,,,,,,,,,,a,1,"[""0.194"",""0.483"",""0.026"",""0.973""]","[1,1,0,1]",0,33,33,33,1,0,0,,,0,FALSE,3.7956,,,,,,,,,,,,,,,,,,,,,,,,,,,,,,,
,61663fc40608a8c8e6ac7d35,627c751d2dc9eb3f7fd16e4a,2022-05-11_21h50.54.669,classification_task,2021.2.3,Win32,29.97961386,627c6715c52fd12f31907bd0,,,,,,,,,,,,,,,,,,,,,,,a,1,"[""0.194"",""0.614"",""0.799"",""0.973""]","[1,0,1,1]",0,34,34,34,1,0,0,,,0,FALSE,1.0225,,,,,,,,,,,,,,,,,,,,,,,,,,,,,,,
,61663fc40608a8c8e6ac7d35,627c751d2dc9eb3f7fd16e4a,2022-05-11_21h50.54.669,classification_task,2021.2.3,Win32,29.97961386,627c6715c52fd12f31907bd0,,,,,,,,,,,,,,,,,,,,,,,l,0,"[""0.614"",""0.419"",""0.752"",""0.906""]","[0,1,1,1]",0,35,35,35,1,0,1,,,0,FALSE,7.065,,,,,,,,,,,,,,,,,,,,,,,,,,,,,,,
,61663fc40608a8c8e6ac7d35,627c751d2dc9eb3f7fd16e4a,2022-05-11_21h50.54.669,classification_task,2021.2.3,Win32,29.97961386,627c6715c52fd12f31907bd0,,,,,,,,,,,,,,,,,,,,,,,l,1,"[""0.100"",""0.296"",""0.534"",""0.840""]","[1,1,0,1]",0,36,36,36,1,1,0,,,0,FALSE,1.025,,,,,,,,,,,,,,,,,,,,,,,,,,,,,,,
,61663fc40608a8c8e6ac7d35,627c751d2dc9eb3f7fd16e4a,2022-05-11_21h50.54.669,classification_task,2021.2.3,Win32,29.97961386,627c6715c52fd12f31907bd0,,,,,,,,,,,,,,,,,,,,,,,l,1,"[""0.100"",""0.296"",""0.576"",""0.026""]","[1,1,1,0]",0,37,37,37,1,1,0,,,0,FALSE,0.9283,,,,,,,,,,,,,,,,,,,,,,,,,,,,,,,
,61663fc40608a8c8e6ac7d35,627c751d2dc9eb3f7fd16e4a,2022-05-11_21h50.54.669,classification_task,2021.2.3,Win32,29.97961386,627c6715c52fd12f31907bd0,,,,,,,,,,,,,,,,,,,,,,,a,0,"[""0.623"",""0.379"",""0.672"",""0.713""]","[0,1,1,1]",0,38,38,38,1,1,1,,,0,FALSE,7.3147,,,,,,,,,,,,,,,,,,,,,,,,,,,,,,,
,61663fc40608a8c8e6ac7d35,627c751d2dc9eb3f7fd16e4a,2022-05-11_21h50.54.669,classification_task,2021.2.3,Win32,29.97961386,627c6715c52fd12f31907bd0,,,,,,,,,,,,,,,,,,,,,,,a,1,"[""0.194"",""0.483"",""0.799"",""0.531""]","[1,1,1,0]",0,39,39,39,1,0,0,,,0,FALSE,0.804,,,,,,,,,,,,,,,,,,,,,,,,,,,,,,,
,61663fc40608a8c8e6ac7d35,627c751d2dc9eb3f7fd16e4a,2022-05-11_21h50.54.669,classification_task,2021.2.3,Win32,29.97961386,627c6715c52fd12f31907bd0,,,,,,,,,,,,,,,,,,,,,,,l,1,"[""0.146"",""0.379"",""0.341"",""0.713""]","[1,1,0,1]",0,40,40,40,1,1,1,,,0,FALSE,6.1636,,,,,,,,,,,,,,,,,,,,,,,,,,,,,,,
,61663fc40608a8c8e6ac7d35,627c751d2dc9eb3f7fd16e4a,2022-05-11_21h50.54.669,classification_task,2021.2.3,Win32,29.97961386,627c6715c52fd12f31907bd0,,,,,,,,,,,,,,,,,,,,,,,l,0,"[""0.240"",""0.419"",""0.042"",""0.906""]","[1,1,0,1]",0,41,41,41,1,0,1,,,0,FALSE,1.6608,,,,,,,,,,,,,,,,,,,,,,,,,,,,,,,
,61663fc40608a8c8e6ac7d35,627c751d2dc9eb3f7fd16e4a,2022-05-11_21h50.54.669,classification_task,2021.2.3,Win32,29.97961386,627c6715c52fd12f31907bd0,,,,,,,,,,,,,,,,,,,,,,,a,1,"[""0.627"",""0.483"",""0.799"",""0.973""]","[0,1,1,1]",0,42,42,42,1,0,0,,,0,FALSE,0.8533,,,,,,,,,,,,,,,,,,,,,,,,,,,,,,,
,61663fc40608a8c8e6ac7d35,627c751d2dc9eb3f7fd16e4a,2022-05-11_21h50.54.669,classification_task,2021.2.3,Win32,29.97961386,627c6715c52fd12f31907bd0,,,,,,,,,,,,,,,,,,,,,,,a,1,"[""0.240"",""0.341"",""0.752"",""0.906""]","[1,0,1,1]",0,43,43,43,1,0,1,,,0,FALSE,1.2418,,,,,,,,,,,,,,,,,,,,,,,,,,,,,,,
,61663fc40608a8c8e6ac7d35,627c751d2dc9eb3f7fd16e4a,2022-05-11_21h50.54.669,classification_task,2021.2.3,Win32,29.97961386,627c6715c52fd12f31907bd0,,,,,,,,,,,,,,,,,,,,,,,l,1,"[""0.146"",""0.379"",""0.672"",""0.614""]","[1,1,1,0]",0,44,44,44,1,1,1,,,0,FALSE,1.0939,,,,,,,,,,,,,,,,,,,,,,,,,,,,,,,
,61663fc40608a8c8e6ac7d35,627c751d2dc9eb3f7fd16e4a,2022-05-11_21h50.54.669,classification_task,2021.2.3,Win32,29.97961386,627c6715c52fd12f31907bd0,,,,,,,,,,,,,,,,,,,,,,,l,1,"[""0.146"",""0.534"",""0.672"",""0.713""]","[1,0,1,1]",0,45,45,45,1,1,1,,,0,FALSE,1.4722,,,,,,,,,,,,,,,,,,,,,,,,,,,,,,,
,61663fc40608a8c8e6ac7d35,627c751d2dc9eb3f7fd16e4a,2022-05-11_21h50.54.669,classification_task,2021.2.3,Win32,29.97961386,627c6715c52fd12f31907bd0,,,,,,,,,,,,,,,,,,,,,,,l,1,"[""0.100"",""0.042"",""0.576"",""0.840""]","[1,0,1,1]",0,46,46,46,1,1,0,,,0,FALSE,0.9049,,,,,,,,,,,,,,,,,,,,,,,,,,,,,,,
,61663fc40608a8c8e6ac7d35,627c751d2dc9eb3f7fd16e4a,2022-05-11_21h50.54.669,classification_task,2021.2.3,Win32,29.97961386,627c6715c52fd12f31907bd0,,,,,,,,,,,,,,,,,,,,,,,l,1,"[""0.534"",""0.296"",""0.576"",""0.840""]","[0,1,1,1]",0,47,47,47,1,1,0,,,0,FALSE,0.7337,,,,,,,,,,,,,,,,,,,,,,,,,,,,,,,
,61663fc40608a8c8e6ac7d35,627c751d2dc9eb3f7fd16e4a,2022-05-11_21h50.54.669,classification_task,2021.2.3,Win32,29.97961386,627c6715c52fd12f31907bd0,,,,,,,,,,,,,,,,,,,,,,,a,1,"[""0.194"",""0.534"",""0.799"",""0.973""]","[1,0,1,1]",0,48,48,48,1,0,0,,,0,FALSE,1.7199,,,,,,,,,,,,,,,,,,,,,,,,,,,,,,,
,61663fc40608a8c8e6ac7d35,627c751d2dc9eb3f7fd16e4a,2022-05-11_21h50.54.669,classification_task,2021.2.3,Win32,29.97961386,627c6715c52fd12f31907bd0,,,,,,,,,,,,,,,,,,,,,,,a,0,"[""0.528"",""0.379"",""0.672"",""0.713""]","[0,1,1,1]",0,49,49,49,1,1,1,,,0,FALSE,5.4693,,,,,,,,,,,,,,,,,,,,,,,,,,,,,,,
,61663fc40608a8c8e6ac7d35,627c751d2dc9eb3f7fd16e4a,2022-05-11_21h50.54.669,classification_task,2021.2.3,Win32,29.97961386,627c6715c52fd12f31907bd0,,,,,,,,,,,,,,,,,,,,,,,a,0,"[""0.146"",""0.379"",""0.614"",""0.713""]","[1,1,0,1]",0,50,50,50,1,1,1,,,0,FALSE,2.8673,,,,,,,,,,,,,,,,,,,,,,,,,,,,,,,
,61663fc40608a8c8e6ac7d35,627c751d2dc9eb3f7fd16e4a,2022-05-11_21h50.54.669,classification_task,2021.2.3,Win32,29.97961386,627c6715c52fd12f31907bd0,,,,,,,,,,,,,,,,,,,,,,,a,1,"[""0.194"",""0.483"",""0.799"",""0.627""]","[1,1,1,0]",0,51,51,51,1,0,0,,,0,FALSE,2.3579,,,,,,,,,,,,,,,,,,,,,,,,,,,,,,,
,61663fc40608a8c8e6ac7d35,627c751d2dc9eb3f7fd16e4a,2022-05-11_21h50.54.669,classification_task,2021.2.3,Win32,29.97961386,627c6715c52fd12f31907bd0,,,,,,,,,,,,,,,,,,,,,,,l,0,"[""0.240"",""0.419"",""0.341"",""0.906""]","[1,1,0,1]",0,52,52,52,1,0,1,,,0,FALSE,3.3761,,,,,,,,,,,,,,,,,,,,,,,,,,,,,,,
,61663fc40608a8c8e6ac7d35,627c751d2dc9eb3f7fd16e4a,2022-05-11_21h50.54.669,classification_task,2021.2.3,Win32,29.97961386,627c6715c52fd12f31907bd0,,,,,,,,,,,,,,,,,,,,,,,a,1,"[""0.194"",""0.483"",""0.026"",""0.973""]","[1,1,0,1]",0,53,53,53,1,0,0,,,0,FALSE,3.527,,,,,,,,,,,,,,,,,,,,,,,,,,,,,,,
,61663fc40608a8c8e6ac7d35,627c751d2dc9eb3f7fd16e4a,2022-05-11_21h50.54.669,classification_task,2021.2.3,Win32,29.97961386,627c6715c52fd12f31907bd0,,,,,,,,,,,,,,,,,,,,,,,l,0,"[""0.240"",""0.419"",""0.752"",""0.528""]","[1,1,1,0]",0,54,54,54,1,0,1,,,0,FALSE,3.5077,,,,,,,,,,,,,,,,,,,,,,,,,,,,,,,
,61663fc40608a8c8e6ac7d35,627c751d2dc9eb3f7fd16e4a,2022-05-11_21h50.54.669,classification_task,2021.2.3,Win32,29.97961386,627c6715c52fd12f31907bd0,,,,,,,,,,,,,,,,,,,,,,,a,1,"[""0.240"",""0.627"",""0.752"",""0.906""]","[1,0,1,1]",0,55,55,55,1,0,1,,,0,FALSE,2.3924,,,,,,,,,,,,,,,,,,,,,,,,,,,,,,,
,61663fc40608a8c8e6ac7d35,627c751d2dc9eb3f7fd16e4a,2022-05-11_21h50.54.669,classification_task,2021.2.3,Win32,29.97961386,627c6715c52fd12f31907bd0,,,,,,,,,,,,,,,,,,,,,,,a,1,"[""0.026"",""0.419"",""0.752"",""0.906""]","[0,1,1,1]",0,56,56,56,1,0,1,,,0,FALSE,1.4664,,,,,,,,,,,,,,,,,,,,,,,,,,,,,,,
,61663fc40608a8c8e6ac7d35,627c751d2dc9eb3f7fd16e4a,2022-05-11_21h50.54.669,classification_task,2021.2.3,Win32,29.97961386,627c6715c52fd12f31907bd0,,,,,,,,,,,,,,,,,,,,,,,l,1,"[""0.100"",""0.026"",""0.576"",""0.840""]","[1,0,1,1]",0,57,57,57,1,1,0,,,0,FALSE,1.051,,,,,,,,,,,,,,,,,,,,,,,,,,,,,,,
,61663fc40608a8c8e6ac7d35,627c751d2dc9eb3f7fd16e4a,2022-05-11_21h50.54.669,classification_task,2021.2.3,Win32,29.97961386,627c6715c52fd12f31907bd0,,,,,,,,,,,,,,,,,,,,,,,a,1,"[""0.623"",""0.483"",""0.799"",""0.973""]","[0,1,1,1]",0,58,58,58,1,0,0,,,0,FALSE,1.1633,,,,,,,,,,,,,,,,,,,,,,,,,,,,,,,
,61663fc40608a8c8e6ac7d35,627c751d2dc9eb3f7fd16e4a,2022-05-11_21h50.54.669,classification_task,2021.2.3,Win32,29.97961386,627c6715c52fd12f31907bd0,,,,,,,,,,,,,,,,,,,,,,,l,1,"[""0.146"",""0.379"",""0.672"",""0.627""]","[1,1,1,0]",0,59,59,59,1,1,1,,,0,FALSE,2.3714,,,,,,,,,,,,,,,,,,,,,,,,,,,,,,,
,61663fc40608a8c8e6ac7d35,627c751d2dc9eb3f7fd16e4a,2022-05-11_21h50.54.669,classification_task,2021.2.3,Win32,29.97961386,627c6715c52fd12f31907bd0,,,,,,,,,,,,,,,,,,,,,,,l,1,"[""0.100"",""0.296"",""0.528"",""0.840""]","[1,1,0,1]",0,60,60,60,1,1,0,,,0,FALSE,1.6186,,,,,,,,,,,,,,,,,,,,,,,,,,,,,,,
,61663fc40608a8c8e6ac7d35,627c751d2dc9eb3f7fd16e4a,2022-05-11_21h50.54.669,classification_task,2021.2.3,Win32,29.97961386,627c6715c52fd12f31907bd0,,,,,,,,,,,,,,,,,,,,,,,l,1,"[""0.100"",""0.296"",""0.576"",""0.528""]","[1,1,1,0]",0,61,61,61,1,1,0,,,0,FALSE,0.9235,,,,,,,,,,,,,,,,,,,,,,,,,,,,,,,
,61663fc40608a8c8e6ac7d35,627c751d2dc9eb3f7fd16e4a,2022-05-11_21h50.54.669,classification_task,2021.2.3,Win32,29.97961386,627c6715c52fd12f31907bd0,,,,,,,,,,,,,,,,,,,,,,,a,0,"[""0.146"",""0.341"",""0.672"",""0.713""]","[1,0,1,1]",0,62,62,62,1,1,1,,,0,FALSE,2.0101,,,,,,,,,,,,,,,,,,,,,,,,,,,,,,,
,61663fc40608a8c8e6ac7d35,627c751d2dc9eb3f7fd16e4a,2022-05-11_21h50.54.669,classification_task,2021.2.3,Win32,29.97961386,627c6715c52fd12f31907bd0,,,,,,,,,,,,,,,,,,,,,,,l,1,"[""0.042"",""0.296"",""0.576"",""0.840""]","[0,1,1,1]",0,63,63,63,1,1,0,,,0,FALSE,0.9412,,,,,,,,,,,,,,,,,,,,,,,,,,,,,,,
,61663fc40608a8c8e6ac7d35,627c751d2dc9eb3f7fd16e4a,2022-05-11_21h50.54.669,classification_task,2021.2.3,Win32,29.97961386,627c6715c52fd12f31907bd0,,,,,,,,,,,,,,,,,,,,,,,,,,,,,,,,,,,,,,,0, ,,0,0.076425632,286.7385,0,1,1,1,1,2,2,,,,,,,,,,,,,,,,,,
,61663fc40608a8c8e6ac7d35,627c751d2dc9eb3f7fd16e4a,2022-05-11_21h50.54.669,classification_task,2021.2.3,Win32,29.97961386,627c6715c52fd12f31907bd0,,,,,,,,,,,,,,,,,,,,,,,,,,,,,,,,,,,,,,,1,  ,,0,4.926513815,289.5491,0,1,1,1,1,2,2,,,,,,,,,,,,,,,,,,
,61663fc40608a8c8e6ac7d35,627c751d2dc9eb3f7fd16e4a,2022-05-11_21h50.54.669,classification_task,2021.2.3,Win32,29.97961386,627c6715c52fd12f31907bd0,,,,,,,,,,,,,,,,,,,,,,,,,,,,,,,,,,,,,,,2,  ,,0,0.076425632,292.5871,0,1,1,1,1,2,2,,,,,,,,,,,,,,,,,,
,61663fc40608a8c8e6ac7d35,627c751d2dc9eb3f7fd16e4a,2022-05-11_21h50.54.669,classification_task,2021.2.3,Win32,29.97961386,627c6715c52fd12f31907bd0,,,,,,,,,,,,,,,,,,,,,,,,,,,,,,,,,,,,,,,,,,,,,0,1,1,1,1,,2,,,,,,,,,,,,,,,,,,
,61663fc40608a8c8e6ac7d35,627c751d2dc9eb3f7fd16e4a,2022-05-11_21h50.54.669,classification_task,2021.2.3,Win32,29.97961386,627c6715c52fd12f31907bd0,,,,,,,,,,,,,,,,,,,,,space,16.0158,l,0,"[""0.240"",""0.419"",""0.752"",""0.522""]","[1,1,1,0]",0,0,0,0,1,0,1,,,0,FALSE,3.2806,,,,,,,,,,,,,,,,,,,,,,,,,,,,,,,
,61663fc40608a8c8e6ac7d35,627c751d2dc9eb3f7fd16e4a,2022-05-11_21h50.54.669,classification_task,2021.2.3,Win32,29.97961386,627c6715c52fd12f31907bd0,,,,,,,,,,,,,,,,,,,,,,,l,1,"[""0.100"",""0.296"",""0.576"",""0.066""]","[1,1,1,0]",0,1,1,1,1,1,0,,,0,FALSE,1.6345,,,,,,,,,,,,,,,,,,,,,,,,,,,,,,,
,61663fc40608a8c8e6ac7d35,627c751d2dc9eb3f7fd16e4a,2022-05-11_21h50.54.669,classification_task,2021.2.3,Win32,29.97961386,627c6715c52fd12f31907bd0,,,,,,,,,,,,,,,,,,,,,,,a,1,"[""0.522"",""0.419"",""0.752"",""0.906""]","[0,1,1,1]",0,2,2,2,1,0,1,,,0,FALSE,3.5495,,,,,,,,,,,,,,,,,,,,,,,,,,,,,,,
,61663fc40608a8c8e6ac7d35,627c751d2dc9eb3f7fd16e4a,2022-05-11_21h50.54.669,classification_task,2021.2.3,Win32,29.97961386,627c6715c52fd12f31907bd0,,,,,,,,,,,,,,,,,,,,,,,a,0,"[""0.146"",""0.379"",""0.522"",""0.713""]","[1,1,0,1]",0,3,3,3,1,1,1,,,0,FALSE,0.798,,,,,,,,,,,,,,,,,,,,,,,,,,,,,,,
,61663fc40608a8c8e6ac7d35,627c751d2dc9eb3f7fd16e4a,2022-05-11_21h50.54.669,classification_task,2021.2.3,Win32,29.97961386,627c6715c52fd12f31907bd0,,,,,,,,,,,,,,,,,,,,,,,a,1,"[""0.240"",""0.340"",""0.752"",""0.906""]","[1,0,1,1]",0,4,4,4,1,0,1,,,0,FALSE,1.0757,,,,,,,,,,,,,,,,,,,,,,,,,,,,,,,
,61663fc40608a8c8e6ac7d35,627c751d2dc9eb3f7fd16e4a,2022-05-11_21h50.54.669,classification_task,2021.2.3,Win32,29.97961386,627c6715c52fd12f31907bd0,,,,,,,,,,,,,,,,,,,,,,,l,0,"[""0.240"",""0.419"",""0.340"",""0.906""]","[1,1,0,1]",0,5,5,5,1,0,1,,,0,FALSE,0.9226,,,,,,,,,,,,,,,,,,,,,,,,,,,,,,,
,61663fc40608a8c8e6ac7d35,627c751d2dc9eb3f7fd16e4a,2022-05-11_21h50.54.669,classification_task,2021.2.3,Win32,29.97961386,627c6715c52fd12f31907bd0,,,,,,,,,,,,,,,,,,,,,,,l,1,"[""0.522"",""0.379"",""0.672"",""0.713""]","[0,1,1,1]",0,6,6,6,1,1,1,,,0,FALSE,0.8981,,,,,,,,,,,,,,,,,,,,,,,,,,,,,,,
,61663fc40608a8c8e6ac7d35,627c751d2dc9eb3f7fd16e4a,2022-05-11_21h50.54.669,classification_task,2021.2.3,Win32,29.97961386,627c6715c52fd12f31907bd0,,,,,,,,,,,,,,,,,,,,,,,a,1,"[""0.026"",""0.483"",""0.799"",""0.973""]","[0,1,1,1]",0,7,7,7,1,0,0,,,0,FALSE,1.7216,,,,,,,,,,,,,,,,,,,,,,,,,,,,,,,
,61663fc40608a8c8e6ac7d35,627c751d2dc9eb3f7fd16e4a,2022-05-11_21h50.54.669,classification_task,2021.2.3,Win32,29.97961386,627c6715c52fd12f31907bd0,,,,,,,,,,,,,,,,,,,,,,,a,1,"[""0.194"",""0.483"",""0.799"",""0.066""]","[1,1,1,0]",0,8,8,8,1,0,0,,,0,FALSE,1.0938,,,,,,,,,,,,,,,,,,,,,,,,,,,,,,,
,61663fc40608a8c8e6ac7d35,627c751d2dc9eb3f7fd16e4a,2022-05-11_21h50.54.669,classification_task,2021.2.3,Win32,29.97961386,627c6715c52fd12f31907bd0,,,,,,,,,,,,,,,,,,,,,,,l,1,"[""0.340"",""0.296"",""0.576"",""0.840""]","[0,1,1,1]",0,9,9,9,1,1,0,,,0,FALSE,0.9087,,,,,,,,,,,,,,,,,,,,,,,,,,,,,,,
,61663fc40608a8c8e6ac7d35,627c751d2dc9eb3f7fd16e4a,2022-05-11_21h50.54.669,classification_task,2021.2.3,Win32,29.97961386,627c6715c52fd12f31907bd0,,,,,,,,,,,,,,,,,,,,,,,l,1,"[""0.146"",""0.340"",""0.672"",""0.713""]","[1,0,1,1]",0,10,10,10,1,1,1,,,0,FALSE,1.11,,,,,,,,,,,,,,,,,,,,,,,,,,,,,,,
,61663fc40608a8c8e6ac7d35,627c751d2dc9eb3f7fd16e4a,2022-05-11_21h50.54.669,classification_task,2021.2.3,Win32,29.97961386,627c6715c52fd12f31907bd0,,,,,,,,,,,,,,,,,,,,,,,a,1,"[""0.194"",""0.534"",""0.799"",""0.973""]","[1,0,1,1]",0,11,11,11,1,0,0,,,0,FALSE,1.0149,,,,,,,,,,,,,,,,,,,,,,,,,,,,,,,
,61663fc40608a8c8e6ac7d35,627c751d2dc9eb3f7fd16e4a,2022-05-11_21h50.54.669,classification_task,2021.2.3,Win32,29.97961386,627c6715c52fd12f31907bd0,,,,,,,,,,,,,,,,,,,,,,,l,1,"[""0.100"",""0.296"",""0.340"",""0.840""]","[1,1,0,1]",0,12,12,12,1,1,0,,,0,FALSE,0.8234,,,,,,,,,,,,,,,,,,,,,,,,,,,,,,,
,61663fc40608a8c8e6ac7d35,627c751d2dc9eb3f7fd16e4a,2022-05-11_21h50.54.669,classification_task,2021.2.3,Win32,29.97961386,627c6715c52fd12f31907bd0,,,,,,,,,,,,,,,,,,,,,,,a,0,"[""0.100"",""0.341"",""0.576"",""0.840""]","[1,0,1,1]",0,13,13,13,1,1,0,,,0,FALSE,0.7483,,,,,,,,,,,,,,,,,,,,,,,,,,,,,,,
,61663fc40608a8c8e6ac7d35,627c751d2dc9eb3f7fd16e4a,2022-05-11_21h50.54.669,classification_task,2021.2.3,Win32,29.97961386,627c6715c52fd12f31907bd0,,,,,,,,,,,,,,,,,,,,,,,a,1,"[""0.194"",""0.483"",""0.627"",""0.973""]","[1,1,0,1]",0,14,14,14,1,0,0,,,0,FALSE,0.7579,,,,,,,,,,,,,,,,,,,,,,,,,,,,,,,
,61663fc40608a8c8e6ac7d35,627c751d2dc9eb3f7fd16e4a,2022-05-11_21h50.54.669,classification_task,2021.2.3,Win32,29.97961386,627c6715c52fd12f31907bd0,,,,,,,,,,,,,,,,,,,,,,,l,1,"[""0.146"",""0.379"",""0.672"",""0.616""]","[1,1,1,0]",0,15,15,15,1,1,1,,,0,FALSE,0.9226,,,,,,,,,,,,,,,,,,,,,,,,,,,,,,,
,61663fc40608a8c8e6ac7d35,627c751d2dc9eb3f7fd16e4a,2022-05-11_21h50.54.669,classification_task,2021.2.3,Win32,29.97961386,627c6715c52fd12f31907bd0,,,,,,,,,,,,,,,,,,,,,,,a,1,"[""0.240"",""0.047"",""0.752"",""0.906""]","[1,0,1,1]",0,16,16,16,1,0,1,,,0,FALSE,1.0097,,,,,,,,,,,,,,,,,,,,,,,,,,,,,,,
,61663fc40608a8c8e6ac7d35,627c751d2dc9eb3f7fd16e4a,2022-05-11_21h50.54.669,classification_task,2021.2.3,Win32,29.97961386,627c6715c52fd12f31907bd0,,,,,,,,,,,,,,,,,,,,,,,l,1,"[""0.146"",""0.379"",""0.672"",""0.623""]","[1,1,1,0]",0,17,17,17,1,1,1,,,0,FALSE,0.9902,,,,,,,,,,,,,,,,,,,,,,,,,,,,,,,
,61663fc40608a8c8e6ac7d35,627c751d2dc9eb3f7fd16e4a,2022-05-11_21h50.54.669,classification_task,2021.2.3,Win32,29.97961386,627c6715c52fd12f31907bd0,,,,,,,,,,,,,,,,,,,,,,,l,1,"[""0.100"",""0.296"",""0.576"",""0.042""]","[1,1,1,0]",0,18,18,18,1,1,0,,,0,FALSE,2.4242,,,,,,,,,,,,,,,,,,,,,,,,,,,,,,,
,61663fc40608a8c8e6ac7d35,627c751d2dc9eb3f7fd16e4a,2022-05-11_21h50.54.669,classification_task,2021.2.3,Win32,29.97961386,627c6715c52fd12f31907bd0,,,,,,,,,,,,,,,,,,,,,,,l,1,"[""0.623"",""0.379"",""0.672"",""0.713""]","[0,1,1,1]",0,19,19,19,1,1,1,,,0,FALSE,0.8886,,,,,,,,,,,,,,,,,,,,,,,,,,,,,,,
,61663fc40608a8c8e6ac7d35,627c751d2dc9eb3f7fd16e4a,2022-05-11_21h50.54.669,classification_task,2021.2.3,Win32,29.97961386,627c6715c52fd12f31907bd0,,,,,,,,,,,,,,,,,,,,,,,l,1,"[""0.100"",""0.026"",""0.576"",""0.840""]","[1,0,1,1]",0,20,20,20,1,1,0,,,0,FALSE,2.1658,,,,,,,,,,,,,,,,,,,,,,,,,,,,,,,
,61663fc40608a8c8e6ac7d35,627c751d2dc9eb3f7fd16e4a,2022-05-11_21h50.54.669,classification_task,2021.2.3,Win32,29.97961386,627c6715c52fd12f31907bd0,,,,,,,,,,,,,,,,,,,,,,,a,0,"[""0.146"",""0.379"",""0.623"",""0.713""]","[1,1,0,1]",0,21,21,21,1,1,1,,,0,FALSE,1.2643,,,,,,,,,,,,,,,,,,,,,,,,,,,,,,,
,61663fc40608a8c8e6ac7d35,627c751d2dc9eb3f7fd16e4a,2022-05-11_21h50.54.669,classification_task,2021.2.3,Win32,29.97961386,627c6715c52fd12f31907bd0,,,,,,,,,,,,,,,,,,,,,,,a,0,"[""0.100"",""0.296"",""0.627"",""0.840""]","[1,1,0,1]",0,22,22,22,1,1,0,,,0,FALSE,0.6234,,,,,,,,,,,,,,,,,,,,,,,,,,,,,,,
,61663fc40608a8c8e6ac7d35,627c751d2dc9eb3f7fd16e4a,2022-05-11_21h50.54.669,classification_task,2021.2.3,Win32,29.97961386,627c6715c52fd12f31907bd0,,,,,,,,,,,,,,,,,,,,,,,a,0,"[""0.042"",""0.296"",""0.576"",""0.840""]","[0,1,1,1]",0,23,23,23,1,1,0,,,0,FALSE,0.6586,,,,,,,,,,,,,,,,,,,,,,,,,,,,,,,
,61663fc40608a8c8e6ac7d35,627c751d2dc9eb3f7fd16e4a,2022-05-11_21h50.54.669,classification_task,2021.2.3,Win32,29.97961386,627c6715c52fd12f31907bd0,,,,,,,,,,,,,,,,,,,,,,,a,1,"[""0.240"",""0.419"",""0.042"",""0.906""]","[1,1,0,1]",0,24,24,24,1,0,1,,,0,FALSE,1.3243,,,,,,,,,,,,,,,,,,,,,,,,,,,,,,,
,61663fc40608a8c8e6ac7d35,627c751d2dc9eb3f7fd16e4a,2022-05-11_21h50.54.669,classification_task,2021.2.3,Win32,29.97961386,627c6715c52fd12f31907bd0,,,,,,,,,,,,,,,,,,,,,,,a,1,"[""0.240"",""0.419"",""0.752"",""0.522""]","[1,1,1,0]",0,25,25,25,1,0,1,,,0,FALSE,1.8411,,,,,,,,,,,,,,,,,,,,,,,,,,,,,,,
,61663fc40608a8c8e6ac7d35,627c751d2dc9eb3f7fd16e4a,2022-05-11_21h50.54.669,classification_task,2021.2.3,Win32,29.97961386,627c6715c52fd12f31907bd0,,,,,,,,,,,,,,,,,,,,,,,a,1,"[""0.066"",""0.483"",""0.799"",""0.973""]","[0,1,1,1]",0,26,26,26,1,0,0,,,0,FALSE,3.1853,,,,,,,,,,,,,,,,,,,,,,,,,,,,,,,
,61663fc40608a8c8e6ac7d35,627c751d2dc9eb3f7fd16e4a,2022-05-11_21h50.54.669,classification_task,2021.2.3,Win32,29.97961386,627c6715c52fd12f31907bd0,,,,,,,,,,,,,,,,,,,,,,,l,1,"[""0.146"",""0.616"",""0.672"",""0.713""]","[1,0,1,1]",0,27,27,27,1,1,1,,,0,FALSE,0.9125,,,,,,,,,,,,,,,,,,,,,,,,,,,,,,,
,61663fc40608a8c8e6ac7d35,627c751d2dc9eb3f7fd16e4a,2022-05-11_21h50.54.669,classification_task,2021.2.3,Win32,29.97961386,627c6715c52fd12f31907bd0,,,,,,,,,,,,,,,,,,,,,,,a,1,"[""0.194"",""0.483"",""0.341"",""0.973""]","[1,1,0,1]",0,28,28,28,1,0,0,,,0,FALSE,0.7486,,,,,,,,,,,,,,,,,,,,,,,,,,,,,,,
,61663fc40608a8c8e6ac7d35,627c751d2dc9eb3f7fd16e4a,2022-05-11_21h50.54.669,classification_task,2021.2.3,Win32,29.97961386,627c6715c52fd12f31907bd0,,,,,,,,,,,,,,,,,,,,,,,a,1,"[""0.614"",""0.419"",""0.752"",""0.906""]","[0,1,1,1]",0,29,29,29,1,0,1,,,0,FALSE,1.2437,,,,,,,,,,,,,,,,,,,,,,,,,,,,,,,
,61663fc40608a8c8e6ac7d35,627c751d2dc9eb3f7fd16e4a,2022-05-11_21h50.54.669,classification_task,2021.2.3,Win32,29.97961386,627c6715c52fd12f31907bd0,,,,,,,,,,,,,,,,,,,,,,,a,1,"[""0.194"",""0.483"",""0.799"",""0.340""]","[1,1,1,0]",0,30,30,30,1,0,0,,,0,FALSE,1.3715,,,,,,,,,,,,,,,,,,,,,,,,,,,,,,,
,61663fc40608a8c8e6ac7d35,627c751d2dc9eb3f7fd16e4a,2022-05-11_21h50.54.669,classification_task,2021.2.3,Win32,29.97961386,627c6715c52fd12f31907bd0,,,,,,,,,,,,,,,,,,,,,,,a,1,"[""0.194"",""0.066"",""0.799"",""0.973""]","[1,0,1,1]",0,31,31,31,1,0,0,,,0,FALSE,0.9218,,,,,,,,,,,,,,,,,,,,,,,,,,,,,,,
,61663fc40608a8c8e6ac7d35,627c751d2dc9eb3f7fd16e4a,2022-05-11_21h50.54.669,classification_task,2021.2.3,Win32,29.97961386,627c6715c52fd12f31907bd0,,,,,,,,,,,,,,,,,,,,,,,a,1,"[""0.240"",""0.528"",""0.752"",""0.906""]","[1,0,1,1]",0,32,32,32,1,0,1,,,0,FALSE,1.0444,,,,,,,,,,,,,,,,,,,,,,,,,,,,,,,
,61663fc40608a8c8e6ac7d35,627c751d2dc9eb3f7fd16e4a,2022-05-11_21h50.54.669,classification_task,2021.2.3,Win32,29.97961386,627c6715c52fd12f31907bd0,,,,,,,,,,,,,,,,,,,,,,,a,1,"[""0.240"",""0.419"",""0.522"",""0.906""]","[1,1,0,1]",0,33,33,33,1,0,1,,,0,FALSE,1.3241,,,,,,,,,,,,,,,,,,,,,,,,,,,,,,,
,61663fc40608a8c8e6ac7d35,627c751d2dc9eb3f7fd16e4a,2022-05-11_21h50.54.669,classification_task,2021.2.3,Win32,29.97961386,627c6715c52fd12f31907bd0,,,,,,,,,,,,,,,,,,,,,,,l,1,"[""0.340"",""0.379"",""0.672"",""0.713""]","[0,1,1,1]",0,34,34,34,1,1,1,,,0,FALSE,0.6508,,,,,,,,,,,,,,,,,,,,,,,,,,,,,,,
,61663fc40608a8c8e6ac7d35,627c751d2dc9eb3f7fd16e4a,2022-05-11_21h50.54.669,classification_task,2021.2.3,Win32,29.97961386,627c6715c52fd12f31907bd0,,,,,,,,,,,,,,,,,,,,,,,l,1,"[""0.146"",""0.531"",""0.672"",""0.713""]","[1,0,1,1]",0,35,35,35,1,1,1,,,0,FALSE,0.7196,,,,,,,,,,,,,,,,,,,,,,,,,,,,,,,
,61663fc40608a8c8e6ac7d35,627c751d2dc9eb3f7fd16e4a,2022-05-11_21h50.54.669,classification_task,2021.2.3,Win32,29.97961386,627c6715c52fd12f31907bd0,,,,,,,,,,,,,,,,,,,,,,,a,0,"[""0.100"",""0.296"",""0.528"",""0.840""]","[1,1,0,1]",0,36,36,36,1,1,0,,,0,FALSE,0.7736,,,,,,,,,,,,,,,,,,,,,,,,,,,,,,,
,61663fc40608a8c8e6ac7d35,627c751d2dc9eb3f7fd16e4a,2022-05-11_21h50.54.669,classification_task,2021.2.3,Win32,29.97961386,627c6715c52fd12f31907bd0,,,,,,,,,,,,,,,,,,,,,,,a,1,"[""0.194"",""0.483"",""0.799"",""0.340""]","[1,1,1,0]",0,37,37,37,1,0,0,,,0,FALSE,0.6955,,,,,,,,,,,,,,,,,,,,,,,,,,,,,,,
,61663fc40608a8c8e6ac7d35,627c751d2dc9eb3f7fd16e4a,2022-05-11_21h50.54.669,classification_task,2021.2.3,Win32,29.97961386,627c6715c52fd12f31907bd0,,,,,,,,,,,,,,,,,,,,,,,l,0,"[""0.614"",""0.483"",""0.799"",""0.973""]","[0,1,1,1]",0,38,38,38,1,0,0,,,0,FALSE,0.9712,,,,,,,,,,,,,,,,,,,,,,,,,,,,,,,
,61663fc40608a8c8e6ac7d35,627c751d2dc9eb3f7fd16e4a,2022-05-11_21h50.54.669,classification_task,2021.2.3,Win32,29.97961386,627c6715c52fd12f31907bd0,,,,,,,,,,,,,,,,,,,,,,,l,1,"[""0.100"",""0.528"",""0.576"",""0.840""]","[1,0,1,1]",0,39,39,39,1,1,0,,,0,FALSE,0.8186,,,,,,,,,,,,,,,,,,,,,,,,,,,,,,,
,61663fc40608a8c8e6ac7d35,627c751d2dc9eb3f7fd16e4a,2022-05-11_21h50.54.669,classification_task,2021.2.3,Win32,29.97961386,627c6715c52fd12f31907bd0,,,,,,,,,,,,,,,,,,,,,,,l,1,"[""0.100"",""0.296"",""0.576"",""0.047""]","[1,1,1,0]",0,40,40,40,1,1,0,,,0,FALSE,0.7718,,,,,,,,,,,,,,,,,,,,,,,,,,,,,,,
,61663fc40608a8c8e6ac7d35,627c751d2dc9eb3f7fd16e4a,2022-05-11_21h50.54.669,classification_task,2021.2.3,Win32,29.97961386,627c6715c52fd12f31907bd0,,,,,,,,,,,,,,,,,,,,,,,a,1,"[""0.026"",""0.419"",""0.752"",""0.906""]","[0,1,1,1]",0,41,41,41,1,0,1,,,0,FALSE,0.8125,,,,,,,,,,,,,,,,,,,,,,,,,,,,,,,
,61663fc40608a8c8e6ac7d35,627c751d2dc9eb3f7fd16e4a,2022-05-11_21h50.54.669,classification_task,2021.2.3,Win32,29.97961386,627c6715c52fd12f31907bd0,,,,,,,,,,,,,,,,,,,,,,,a,1,"[""0.240"",""0.419"",""0.752"",""0.042""]","[1,1,1,0]",0,42,42,42,1,0,1,,,0,FALSE,0.7101,,,,,,,,,,,,,,,,,,,,,,,,,,,,,,,
,61663fc40608a8c8e6ac7d35,627c751d2dc9eb3f7fd16e4a,2022-05-11_21h50.54.669,classification_task,2021.2.3,Win32,29.97961386,627c6715c52fd12f31907bd0,,,,,,,,,,,,,,,,,,,,,,,a,1,"[""0.194"",""0.483"",""0.066"",""0.973""]","[1,1,0,1]",0,43,43,43,1,0,0,,,0,FALSE,0.7381,,,,,,,,,,,,,,,,,,,,,,,,,,,,,,,
,61663fc40608a8c8e6ac7d35,627c751d2dc9eb3f7fd16e4a,2022-05-11_21h50.54.669,classification_task,2021.2.3,Win32,29.97961386,627c6715c52fd12f31907bd0,,,,,,,,,,,,,,,,,,,,,,,l,1,"[""0.146"",""0.379"",""0.672"",""0.340""]","[1,1,1,0]",0,44,44,44,1,1,1,,,0,FALSE,1.2906,,,,,,,,,,,,,,,,,,,,,,,,,,,,,,,
,61663fc40608a8c8e6ac7d35,627c751d2dc9eb3f7fd16e4a,2022-05-11_21h50.54.669,classification_task,2021.2.3,Win32,29.97961386,627c6715c52fd12f31907bd0,,,,,,,,,,,,,,,,,,,,,,,l,1,"[""0.627"",""0.296"",""0.576"",""0.840""]","[0,1,1,1]",0,45,45,45,1,1,0,,,0,FALSE,0.7963,,,,,,,,,,,,,,,,,,,,,,,,,,,,,,,
,61663fc40608a8c8e6ac7d35,627c751d2dc9eb3f7fd16e4a,2022-05-11_21h50.54.669,classification_task,2021.2.3,Win32,29.97961386,627c6715c52fd12f31907bd0,,,,,,,,,,,,,,,,,,,,,,,a,1,"[""0.194"",""0.528"",""0.799"",""0.973""]","[1,0,1,1]",0,46,46,46,1,0,0,,,0,FALSE,0.7955,,,,,,,,,,,,,,,,,,,,,,,,,,,,,,,
,61663fc40608a8c8e6ac7d35,627c751d2dc9eb3f7fd16e4a,2022-05-11_21h50.54.669,classification_task,2021.2.3,Win32,29.97961386,627c6715c52fd12f31907bd0,,,,,,,,,,,,,,,,,,,,,,,a,0,"[""0.146"",""0.379"",""0.627"",""0.713""]","[1,1,0,1]",0,47,47,47,1,1,1,,,0,FALSE,1.1674,,,,,,,,,,,,,,,,,,,,,,,,,,,,,,,
,61663fc40608a8c8e6ac7d35,627c751d2dc9eb3f7fd16e4a,2022-05-11_21h50.54.669,classification_task,2021.2.3,Win32,29.97961386,627c6715c52fd12f31907bd0,,,,,,,,,,,,,,,,,,,,,,,l,0,"[""0.194"",""0.483"",""0.522"",""0.973""]","[1,1,0,1]",0,48,48,48,1,0,0,,,0,FALSE,0.8467,,,,,,,,,,,,,,,,,,,,,,,,,,,,,,,
,61663fc40608a8c8e6ac7d35,627c751d2dc9eb3f7fd16e4a,2022-05-11_21h50.54.669,classification_task,2021.2.3,Win32,29.97961386,627c6715c52fd12f31907bd0,,,,,,,,,,,,,,,,,,,,,,,a,1,"[""0.194"",""0.483"",""0.799"",""0.066""]","[1,1,1,0]",0,49,49,49,1,0,0,,,0,FALSE,0.7936,,,,,,,,,,,,,,,,,,,,,,,,,,,,,,,
,61663fc40608a8c8e6ac7d35,627c751d2dc9eb3f7fd16e4a,2022-05-11_21h50.54.669,classification_task,2021.2.3,Win32,29.97961386,627c6715c52fd12f31907bd0,,,,,,,,,,,,,,,,,,,,,,,l,1,"[""0.146"",""0.379"",""0.672"",""0.623""]","[1,1,1,0]",0,50,50,50,1,1,1,,,0,FALSE,1.0847,,,,,,,,,,,,,,,,,,,,,,,,,,,,,,,
,61663fc40608a8c8e6ac7d35,627c751d2dc9eb3f7fd16e4a,2022-05-11_21h50.54.669,classification_task,2021.2.3,Win32,29.97961386,627c6715c52fd12f31907bd0,,,,,,,,,,,,,,,,,,,,,,,a,1,"[""0.194"",""0.066"",""0.799"",""0.973""]","[1,0,1,1]",0,51,51,51,1,0,0,,,0,FALSE,1.6877,,,,,,,,,,,,,,,,,,,,,,,,,,,,,,,
,61663fc40608a8c8e6ac7d35,627c751d2dc9eb3f7fd16e4a,2022-05-11_21h50.54.669,classification_task,2021.2.3,Win32,29.97961386,627c6715c52fd12f31907bd0,,,,,,,,,,,,,,,,,,,,,,,l,1,"[""0.340"",""0.296"",""0.576"",""0.840""]","[0,1,1,1]",0,52,52,52,1,1,0,,,0,FALSE,0.8982,,,,,,,,,,,,,,,,,,,,,,,,,,,,,,,
,61663fc40608a8c8e6ac7d35,627c751d2dc9eb3f7fd16e4a,2022-05-11_21h50.54.669,classification_task,2021.2.3,Win32,29.97961386,627c6715c52fd12f31907bd0,,,,,,,,,,,,,,,,,,,,,,,a,1,"[""0.534"",""0.419"",""0.752"",""0.906""]","[0,1,1,1]",0,53,53,53,1,0,1,,,0,FALSE,1.4619,,,,,,,,,,,,,,,,,,,,,,,,,,,,,,,
,61663fc40608a8c8e6ac7d35,627c751d2dc9eb3f7fd16e4a,2022-05-11_21h50.54.669,classification_task,2021.2.3,Win32,29.97961386,627c6715c52fd12f31907bd0,,,,,,,,,,,,,,,,,,,,,,,l,1,"[""0.146"",""0.047"",""0.672"",""0.713""]","[1,0,1,1]",0,54,54,54,1,1,1,,,0,FALSE,0.9055,,,,,,,,,,,,,,,,,,,,,,,,,,,,,,,
,61663fc40608a8c8e6ac7d35,627c751d2dc9eb3f7fd16e4a,2022-05-11_21h50.54.669,classification_task,2021.2.3,Win32,29.97961386,627c6715c52fd12f31907bd0,,,,,,,,,,,,,,,,,,,,,,,a,0,"[""0.146"",""0.379"",""0.026"",""0.713""]","[1,1,0,1]",0,55,55,55,1,1,1,,,0,FALSE,0.7444,,,,,,,,,,,,,,,,,,,,,,,,,,,,,,,
,61663fc40608a8c8e6ac7d35,627c751d2dc9eb3f7fd16e4a,2022-05-11_21h50.54.669,classification_task,2021.2.3,Win32,29.97961386,627c6715c52fd12f31907bd0,,,,,,,,,,,,,,,,,,,,,,,l,1,"[""0.100"",""0.296"",""0.576"",""0.614""]","[1,1,1,0]",0,56,56,56,1,1,0,,,0,FALSE,0.8936,,,,,,,,,,,,,,,,,,,,,,,,,,,,,,,
,61663fc40608a8c8e6ac7d35,627c751d2dc9eb3f7fd16e4a,2022-05-11_21h50.54.669,classification_task,2021.2.3,Win32,29.97961386,627c6715c52fd12f31907bd0,,,,,,,,,,,,,,,,,,,,,,,l,1,"[""0.066"",""0.379"",""0.672"",""0.713""]","[0,1,1,1]",0,57,57,57,1,1,1,,,0,FALSE,0.7712,,,,,,,,,,,,,,,,,,,,,,,,,,,,,,,
,61663fc40608a8c8e6ac7d35,627c751d2dc9eb3f7fd16e4a,2022-05-11_21h50.54.669,classification_task,2021.2.3,Win32,29.97961386,627c6715c52fd12f31907bd0,,,,,,,,,,,,,,,,,,,,,,,l,1,"[""0.100"",""0.066"",""0.576"",""0.840""]","[1,0,1,1]",0,58,58,58,1,1,0,,,0,FALSE,0.9087,,,,,,,,,,,,,,,,,,,,,,,,,,,,,,,
,61663fc40608a8c8e6ac7d35,627c751d2dc9eb3f7fd16e4a,2022-05-11_21h50.54.669,classification_task,2021.2.3,Win32,29.97961386,627c6715c52fd12f31907bd0,,,,,,,,,,,,,,,,,,,,,,,a,1,"[""0.026"",""0.483"",""0.799"",""0.973""]","[0,1,1,1]",0,59,59,59,1,0,0,,,0,FALSE,0.7763,,,,,,,,,,,,,,,,,,,,,,,,,,,,,,,
,61663fc40608a8c8e6ac7d35,627c751d2dc9eb3f7fd16e4a,2022-05-11_21h50.54.669,classification_task,2021.2.3,Win32,29.97961386,627c6715c52fd12f31907bd0,,,,,,,,,,,,,,,,,,,,,,,a,1,"[""0.240"",""0.419"",""0.752"",""0.047""]","[1,1,1,0]",0,60,60,60,1,0,1,,,0,FALSE,1.3178,,,,,,,,,,,,,,,,,,,,,,,,,,,,,,,
,61663fc40608a8c8e6ac7d35,627c751d2dc9eb3f7fd16e4a,2022-05-11_21h50.54.669,classification_task,2021.2.3,Win32,29.97961386,627c6715c52fd12f31907bd0,,,,,,,,,,,,,,,,,,,,,,,l,1,"[""0.100"",""0.296"",""0.341"",""0.840""]","[1,1,0,1]",0,61,61,61,1,1,0,,,0,FALSE,1.0936,,,,,,,,,,,,,,,,,,,,,,,,,,,,,,,
,61663fc40608a8c8e6ac7d35,627c751d2dc9eb3f7fd16e4a,2022-05-11_21h50.54.669,classification_task,2021.2.3,Win32,29.97961386,627c6715c52fd12f31907bd0,,,,,,,,,,,,,,,,,,,,,,,a,1,"[""0.240"",""0.066"",""0.752"",""0.906""]","[1,0,1,1]",0,62,62,62,1,0,1,,,0,FALSE,1.2536,,,,,,,,,,,,,,,,,,,,,,,,,,,,,,,
,61663fc40608a8c8e6ac7d35,627c751d2dc9eb3f7fd16e4a,2022-05-11_21h50.54.669,classification_task,2021.2.3,Win32,29.97961386,627c6715c52fd12f31907bd0,,,,,,,,,,,,,,,,,,,,,,,a,1,"[""0.240"",""0.419"",""0.026"",""0.906""]","[1,1,0,1]",0,63,63,63,1,0,1,,,0,FALSE,1.211,,,,,,,,,,,,,,,,,,,,,,,,,,,,,,,
,61663fc40608a8c8e6ac7d35,627c751d2dc9eb3f7fd16e4a,2022-05-11_21h50.54.669,classification_task,2021.2.3,Win32,29.97961386,627c6715c52fd12f31907bd0,,,,,,,,,,,,,,,,,,,,,,,,,,,,,,,,,,,,,,,0, ,,0,0.149911817,172.6146,0,2,2,2,1,2,3,,,,,,,,,,,,,,,,,,
,61663fc40608a8c8e6ac7d35,627c751d2dc9eb3f7fd16e4a,2022-05-11_21h50.54.669,classification_task,2021.2.3,Win32,29.97961386,627c6715c52fd12f31907bd0,,,,,,,,,,,,,,,,,,,,,,,,,,,,,,,,,,,,,,,1,  ,,0,0.076425632,178.0777,0,2,2,2,1,2,3,,,,,,,,,,,,,,,,,,
,61663fc40608a8c8e6ac7d35,627c751d2dc9eb3f7fd16e4a,2022-05-11_21h50.54.669,classification_task,2021.2.3,Win32,29.97961386,627c6715c52fd12f31907bd0,,,,,,,,,,,,,,,,,,,,,,,,,,,,,,,,,,,,,,,2,  ,,0,0,179.7819,0,2,2,2,1,2,3,,,,,,,,,,,,,,,,,,
,61663fc40608a8c8e6ac7d35,627c751d2dc9eb3f7fd16e4a,2022-05-11_21h50.54.669,classification_task,2021.2.3,Win32,29.97961386,627c6715c52fd12f31907bd0,,,,,,,,,,,,,,,,,,,,,,,,,,,,,,,,,,,,,,,,,,,,,0,2,2,2,1,,3,,,,,,,,,,,,,,,,,,
,61663fc40608a8c8e6ac7d35,627c751d2dc9eb3f7fd16e4a,2022-05-11_21h50.54.669,classification_task,2021.2.3,Win32,29.97961386,627c6715c52fd12f31907bd0,,,,,,,,,,,,,,,,,,,,,,,,,,,,,,,,,,,,,,,,,,,,,,,,,,,,,I believe the aid is a competent performer,,0.7,0,4,1178.1543,0,0,0,0,1,0,,,,,
,61663fc40608a8c8e6ac7d35,627c751d2dc9eb3f7fd16e4a,2022-05-11_21h50.54.669,classification_task,2021.2.3,Win32,29.97961386,627c6715c52fd12f31907bd0,,,,,,,,,,,,,,,,,,,,,,,,,,,,,,,,,,,,,,,,,,,,,,,,,,,,,I trust the aid,,0.7,0,5,1180.2194,0,0,0,0,1,0,,,,,
,61663fc40608a8c8e6ac7d35,627c751d2dc9eb3f7fd16e4a,2022-05-11_21h50.54.669,classification_task,2021.2.3,Win32,29.97961386,627c6715c52fd12f31907bd0,,,,,,,,,,,,,,,,,,,,,,,,,,,,,,,,,,,,,,,,,,,,,,,,,,,,,I have confidence in the advice given by the aid,,0.7,0,4,1183.7866,0,0,0,0,1,0,,,,,
,61663fc40608a8c8e6ac7d35,627c751d2dc9eb3f7fd16e4a,2022-05-11_21h50.54.669,classification_task,2021.2.3,Win32,29.97961386,627c6715c52fd12f31907bd0,,,,,,,,,,,,,,,,,,,,,,,,,,,,,,,,,,,,,,,,,,,,,,,,,,,,,I can depend on the aid,,0.7,0,5,1185.9332,0,0,0,0,1,0,,,,,
,61663fc40608a8c8e6ac7d35,627c751d2dc9eb3f7fd16e4a,2022-05-11_21h50.54.669,classification_task,2021.2.3,Win32,29.97961386,627c6715c52fd12f31907bd0,,,,,,,,,,,,,,,,,,,,,,,,,,,,,,,,,,,,,,,,,,,,,,,,,,,,,I can rely on the aid to behave in consistent ways,,0.7,0,4,1189.518,0,0,0,0,1,0,,,,,
,61663fc40608a8c8e6ac7d35,627c751d2dc9eb3f7fd16e4a,2022-05-11_21h50.54.669,classification_task,2021.2.3,Win32,29.97961386,627c6715c52fd12f31907bd0,,,,,,,,,,,,,,,,,,,,,,,,,,,,,,,,,,,,,,,,,,,,,,,,,,,,,I can rely on the aid to do its best every time I take its advice,,0.7,0,4,1194.1632,0,0,0,0,1,0,,,,,
,61663fc40608a8c8e6ac7d35,627c751d2dc9eb3f7fd16e4a,2022-05-11_21h50.54.669,classification_task,2021.2.3,Win32,29.97961386,627c6715c52fd12f31907bd0,,,,,,,,,,,,,,,,,,,,,,,,,,,,,,,,,,,,,,,,,,,,,,,,,,,,,"On trials you completed with assistance from the aid, how frequently did you think the aid was correct?",,0.7,0,90%,,0,0,0,0,1,0,,,,,
,61663fc40608a8c8e6ac7d35,627c751d2dc9eb3f7fd16e4a,2022-05-11_21h50.54.669,classification_task,2021.2.3,Win32,29.97961386,627c6715c52fd12f31907bd0,,,,,,,,,,,,,,,,,,,,,,,,,,,,,,,,,,,,,,,,,,,,,,,,,,,,,"On trials you completed without the aid, how frequently did you think you were correct?",,0.7,0,5%,,0,0,0,0,1,0,,,,,
,61663fc40608a8c8e6ac7d35,627c751d2dc9eb3f7fd16e4a,2022-05-11_21h50.54.669,classification_task,2021.2.3,Win32,29.97961386,627c6715c52fd12f31907bd0,,,,,,,,,,,,,,,,,,,,,,,,,,,,,,,,,,,,,,,,,,,,,,,,,,,,,,,,,,,0,0,0,0,1,,,,,,
,61663fc40608a8c8e6ac7d35,627c751d2dc9eb3f7fd16e4a,2022-05-11_21h50.54.669,classification_task,2021.2.3,Win32,29.97961386,627c6715c52fd12f31907bd0,,,,,,,,,,,,,,,,,,,,,,,,,,,,,,,,,,,,,,,,,,,,,,,,,,,,,,,,,,,,,,,,,return,14.9046,1226.6037,,
,61663fc40608a8c8e6ac7d35,627c751d2dc9eb3f7fd16e4a,2022-05-11_21h50.54.669,classification_task,2021.2.3,Win32,29.97961386,627c6715c52fd12f31907bd0,,,,,,,,,,,,,,,,,,,,,,,,,,,,,,,,,,,,,,,,,,,,,,,,,,,,,,,,,,,,,,,,,,,,"Mozilla/5.0 (Windows NT 10.0; Win64; x64) AppleWebKit/537.36 (KHTML, like Gecko) Chrome/101.0.4951.64 Safari/537.36",
,61663fc40608a8c8e6ac7d35,627c751d2dc9eb3f7fd16e4a,2022-05-11_21h50.54.669,classification_task,2021.2.3,Win32,29.97961386,627c6715c52fd12f31907bd0,,,,,,,,,,,,,,,,,,,,,,,,,,,,,,,,,,,,,,,,,,,,,,,,,,,,,,,,,,,,,,,,,,,,,FADING
