usingWebGL,participant,session,date,expName,psychopyVersion,OS,frameRate,study_id,signatures_friend,signatures_foe,band_ranges_top,band_ranges_bottom,formitemText,formtype,formundefined,formitemWidth,formindex,formresponse,formrt,key_resp_2.keys,key_resp_2.rt,tute_resp.keys,tute_resp.rt,tutorial.thisRepN,tutorial.thisTrialN,tutorial.thisN,tutorial.thisIndex,tutorial.ran,key_resp_4.keys,key_resp_4.rt,key_resp.keys,key_resp.corr,key_resp.rt,lines_presented,is_signal_presented,trials.thisRepN,trials.thisTrialN,trials.thisN,trials.thisIndex,trials.ran,vessel,active_band,lines,is_signal,supported_pos,catch_trial,debrief_formindex,debrief_formitemText,debrief_formtype,debrief_formitemWidth,debrief_formresponse,debrief_formrt,phases.thisRepN,phases.thisTrialN,phases.thisN,phases.thisIndex,phases.ran,phases.order,phase,key_resp_3.keys,trustitemText,trusttype,trustitemWidth,trustindex,trustresponse,trustrt,support_status.thisRepN,support_status.thisTrialN,support_status.thisN,support_status.thisIndex,support_status.ran,support_status.order,key_resp_5.keys,key_resp_5.rt,globalClockTime,userAgent,manualCondition
TRUE,61675e387230291cabc16e5c,627c6f89c4b340b9030cafe9,2022-05-11_19h41.19.187,classification_task,2021.2.3,Win32,60.0024001,627c6715c52fd12f31907bcf,,,,,,,,,,,,,,,,,,,,,,,,,,,,,,,,,,,,,,,,,,,,,,,,,,,,,,,,,,,,,,,,,,,,,
,61675e387230291cabc16e5c,627c6f89c4b340b9030cafe9,2022-05-11_19h41.19.187,classification_task,2021.2.3,Win32,60.0024001,627c6715c52fd12f31907bcf,"[[""0.301"",""0.431"",""0.867"",""0.923""],[""0.206"",""0.535"",""0.583"",""0.962""]]","[[""0.092"",""0.390"",""0.637"",""0.797""],[""0.153"",""0.251"",""0.472"",""0.755""]]","[1,10]","[100,1000]",Video game experience,,,0.7,0,,,,,,,,,,,,,,,,,,,,,,,,,,,,,,,,,,,,,,,,,,,,,,,,,,,,,,,,,,,,
,61675e387230291cabc16e5c,627c6f89c4b340b9030cafe9,2022-05-11_19h41.19.187,classification_task,2021.2.3,Win32,60.0024001,627c6715c52fd12f31907bcf,,,,,Approximately how many hours did you spend playing video games in the last week?,,,0.7,0,19,,,,,,,,,,,,,,,,,,,,,,,,,,,,,,,,,,,,,,,,,,,,,,,,,,,,,,,,,,,
,61675e387230291cabc16e5c,627c6f89c4b340b9030cafe9,2022-05-11_19h41.19.187,classification_task,2021.2.3,Win32,60.0024001,627c6715c52fd12f31907bcf,,,,,"Which game did you play the most this year? (Enter ""None"" if you didn't play any)",,,0.7,0,fifa,,,,,,,,,,,,,,,,,,,,,,,,,,,,,,,,,,,,,,,,,,,,,,,,,,,,,,,,,,,
,61675e387230291cabc16e5c,627c6f89c4b340b9030cafe9,2022-05-11_19h41.19.187,classification_task,2021.2.3,Win32,60.0024001,627c6715c52fd12f31907bcf,,,,,Visual perception,,,0.7,0,,,,,,,,,,,,,,,,,,,,,,,,,,,,,,,,,,,,,,,,,,,,,,,,,,,,,,,,,,,,
,61675e387230291cabc16e5c,627c6f89c4b340b9030cafe9,2022-05-11_19h41.19.187,classification_task,2021.2.3,Win32,60.0024001,627c6715c52fd12f31907bcf,,,,,Do you have any form of color blindness?,,,0.7,0,No,26.6965,,,,,,,,,,,,,,,,,,,,,,,,,,,,,,,,,,,,,,,,,,,,,,,,,,,,,,,,,,
,61675e387230291cabc16e5c,627c6f89c4b340b9030cafe9,2022-05-11_19h41.19.187,classification_task,2021.2.3,Win32,60.0024001,627c6715c52fd12f31907bcf,,,,,Do you use software to change the colour temperature of your screen (e.g. f.lux)?,,,0.7,0,No,28.1542,,,,,,,,,,,,,,,,,,,,,,,,,,,,,,,,,,,,,,,,,,,,,,,,,,,,,,,,,,
,61675e387230291cabc16e5c,627c6f89c4b340b9030cafe9,2022-05-11_19h41.19.187,classification_task,2021.2.3,Win32,60.0024001,627c6715c52fd12f31907bcf,,,,,,,,,,,,space,44.5466,space,14.0848,0,0,0,0,1,,,,,,,,,,,,,,,,,,,,,,,,,,,,,,,,,,,,,,,,,,,,,,,,,
,61675e387230291cabc16e5c,627c6f89c4b340b9030cafe9,2022-05-11_19h41.19.187,classification_task,2021.2.3,Win32,60.0024001,627c6715c52fd12f31907bcf,,,,,,,,,,,,,,space,15.7499,1,0,1,0,1,,,,,,,,,,,,,,,,,,,,,,,,,,,,,,,,,,,,,,,,,,,,,,,,,
,61675e387230291cabc16e5c,627c6f89c4b340b9030cafe9,2022-05-11_19h41.19.187,classification_task,2021.2.3,Win32,60.0024001,627c6715c52fd12f31907bcf,,,,,,,,,,,,,,space,18.5483,2,0,2,0,1,,,,,,,,,,,,,,,,,,,,,,,,,,,,,,,,,,,,,,,,,,,,,,,,,
,61675e387230291cabc16e5c,627c6f89c4b340b9030cafe9,2022-05-11_19h41.19.187,classification_task,2021.2.3,Win32,60.0024001,627c6715c52fd12f31907bcf,,,,,,,,,,,,,,space,20.4457,3,0,3,0,1,,,,,,,,,,,,,,,,,,,,,,,,,,,,,,,,,,,,,,,,,,,,,,,,,
,61675e387230291cabc16e5c,627c6f89c4b340b9030cafe9,2022-05-11_19h41.19.187,classification_task,2021.2.3,Win32,60.0024001,627c6715c52fd12f31907bcf,,,,,,,,,,,,,,space,25.9211,4,0,4,0,1,,,,,,,,,,,,,,,,,,,,,,,,,,,,,,,,,,,,,,,,,,,,,,,,,
,61675e387230291cabc16e5c,627c6f89c4b340b9030cafe9,2022-05-11_19h41.19.187,classification_task,2021.2.3,Win32,60.0024001,627c6715c52fd12f31907bcf,,,,,,,,,,,,,,,,,,,,,space,36.4116,l,1,5.4494,"[""0.092"",""0.684"",""0.637"",""0.797""]","[1,0,1,1]",0,0,0,0,1,1,0,,,1,FALSE,,,,,,,,,,,,,,,,,,,,,,,,,,,,,,,
,61675e387230291cabc16e5c,627c6f89c4b340b9030cafe9,2022-05-11_19h41.19.187,classification_task,2021.2.3,Win32,60.0024001,627c6715c52fd12f31907bcf,,,,,,,,,,,,,,,,,,,,,,,l,0,8.3453,"[""0.702"",""0.535"",""0.583"",""0.962""]","[0,1,1,1]",0,1,1,1,1,0,1,,,1,FALSE,,,,,,,,,,,,,,,,,,,,,,,,,,,,,,,
,61675e387230291cabc16e5c,627c6f89c4b340b9030cafe9,2022-05-11_19h41.19.187,classification_task,2021.2.3,Win32,60.0024001,627c6715c52fd12f31907bcf,,,,,,,,,,,,,,,,,,,,,,,l,1,5.4659,"[""0.092"",""0.390"",""0.055"",""0.797""]","[1,1,0,1]",0,2,2,2,1,1,0,,,1,FALSE,,,,,,,,,,,,,,,,,,,,,,,,,,,,,,,
,61675e387230291cabc16e5c,627c6f89c4b340b9030cafe9,2022-05-11_19h41.19.187,classification_task,2021.2.3,Win32,60.0024001,627c6715c52fd12f31907bcf,,,,,,,,,,,,,,,,,,,,,,,l,1,8.445,"[""0.153"",""0.251"",""0.705"",""0.755""]","[1,1,0,1]",0,3,3,3,1,1,1,,,1,FALSE,,,,,,,,,,,,,,,,,,,,,,,,,,,,,,,
,61675e387230291cabc16e5c,627c6f89c4b340b9030cafe9,2022-05-11_19h41.19.187,classification_task,2021.2.3,Win32,60.0024001,627c6715c52fd12f31907bcf,,,,,,,,,,,,,,,,,,,,,,,a,1,5.5559,"[""0.301"",""0.431"",""0.867"",""0.700""]","[1,1,1,0]",0,4,4,4,1,0,0,,,1,FALSE,,,,,,,,,,,,,,,,,,,,,,,,,,,,,,,
,61675e387230291cabc16e5c,627c6f89c4b340b9030cafe9,2022-05-11_19h41.19.187,classification_task,2021.2.3,Win32,60.0024001,627c6715c52fd12f31907bcf,,,,,,,,,,,,,,,,,,,,,,,,0,,"[""0.206"",""0.055"",""0.583"",""0.962""]","[1,0,1,1]",0,5,5,5,1,0,1,,,1,FALSE,,,,,,,,,,,,,,,,,,,,,,,,,,,,,,,
,61675e387230291cabc16e5c,627c6f89c4b340b9030cafe9,2022-05-11_19h41.19.187,classification_task,2021.2.3,Win32,60.0024001,627c6715c52fd12f31907bcf,,,,,,,,,,,,,,,,,,,,,,,a,1,6.2992,"[""0.206"",""0.535"",""0.042"",""0.962""]","[1,1,0,1]",0,6,6,6,1,0,1,,,1,FALSE,,,,,,,,,,,,,,,,,,,,,,,,,,,,,,,
,61675e387230291cabc16e5c,627c6f89c4b340b9030cafe9,2022-05-11_19h41.19.187,classification_task,2021.2.3,Win32,60.0024001,627c6715c52fd12f31907bcf,,,,,,,,,,,,,,,,,,,,,,,a,1,5.0737,"[""0.206"",""0.535"",""0.583"",""0.042""]","[1,1,1,0]",0,7,7,7,1,0,1,,,1,FALSE,,,,,,,,,,,,,,,,,,,,,,,,,,,,,,,
,61675e387230291cabc16e5c,627c6f89c4b340b9030cafe9,2022-05-11_19h41.19.187,classification_task,2021.2.3,Win32,60.0024001,627c6715c52fd12f31907bcf,,,,,,,,,,,,,,,,,,,,,,,l,1,7.5891,"[""0.153"",""0.251"",""0.472"",""0.351""]","[1,1,1,0]",0,8,8,8,1,1,1,,,1,FALSE,,,,,,,,,,,,,,,,,,,,,,,,,,,,,,,
,61675e387230291cabc16e5c,627c6f89c4b340b9030cafe9,2022-05-11_19h41.19.187,classification_task,2021.2.3,Win32,60.0024001,627c6715c52fd12f31907bcf,,,,,,,,,,,,,,,,,,,,,,,l,1,6.224,"[""0.684"",""0.251"",""0.472"",""0.755""]","[0,1,1,1]",0,9,9,9,1,1,1,,,1,FALSE,,,,,,,,,,,,,,,,,,,,,,,,,,,,,,,
,61675e387230291cabc16e5c,627c6f89c4b340b9030cafe9,2022-05-11_19h41.19.187,classification_task,2021.2.3,Win32,60.0024001,627c6715c52fd12f31907bcf,,,,,,,,,,,,,,,,,,,,,,,a,1,4.3356,"[""0.301"",""0.431"",""0.705"",""0.923""]","[1,1,0,1]",0,10,10,10,1,0,0,,,1,FALSE,,,,,,,,,,,,,,,,,,,,,,,,,,,,,,,
,61675e387230291cabc16e5c,627c6f89c4b340b9030cafe9,2022-05-11_19h41.19.187,classification_task,2021.2.3,Win32,60.0024001,627c6715c52fd12f31907bcf,,,,,,,,,,,,,,,,,,,,,,,a,0,4.2834,"[""0.684"",""0.390"",""0.637"",""0.797""]","[0,1,1,1]",0,11,11,11,1,1,0,,,1,FALSE,,,,,,,,,,,,,,,,,,,,,,,,,,,,,,,
,61675e387230291cabc16e5c,627c6f89c4b340b9030cafe9,2022-05-11_19h41.19.187,classification_task,2021.2.3,Win32,60.0024001,627c6715c52fd12f31907bcf,,,,,,,,,,,,,,,,,,,,,,,a,1,3.2407,"[""0.301"",""0.675"",""0.867"",""0.923""]","[1,0,1,1]",0,12,12,12,1,0,0,,,1,FALSE,,,,,,,,,,,,,,,,,,,,,,,,,,,,,,,
,61675e387230291cabc16e5c,627c6f89c4b340b9030cafe9,2022-05-11_19h41.19.187,classification_task,2021.2.3,Win32,60.0024001,627c6715c52fd12f31907bcf,,,,,,,,,,,,,,,,,,,,,,,l,1,7.4802,"[""0.153"",""0.702"",""0.472"",""0.755""]","[1,0,1,1]",0,13,13,13,1,1,1,,,1,FALSE,,,,,,,,,,,,,,,,,,,,,,,,,,,,,,,
,61675e387230291cabc16e5c,627c6f89c4b340b9030cafe9,2022-05-11_19h41.19.187,classification_task,2021.2.3,Win32,60.0024001,627c6715c52fd12f31907bcf,,,,,,,,,,,,,,,,,,,,,,,l,1,8.9186,"[""0.092"",""0.390"",""0.637"",""0.344""]","[1,1,1,0]",0,14,14,14,1,1,0,,,1,FALSE,,,,,,,,,,,,,,,,,,,,,,,,,,,,,,,
,61675e387230291cabc16e5c,627c6f89c4b340b9030cafe9,2022-05-11_19h41.19.187,classification_task,2021.2.3,Win32,60.0024001,627c6715c52fd12f31907bcf,,,,,,,,,,,,,,,,,,,,,,,a,1,5.1939,"[""0.702"",""0.431"",""0.867"",""0.923""]","[0,1,1,1]",0,15,15,15,1,0,0,,,1,FALSE,,,,,,,,,,,,,,,,,,,,,,,,,,,,,,,
,61675e387230291cabc16e5c,627c6f89c4b340b9030cafe9,2022-05-11_19h41.19.187,classification_task,2021.2.3,Win32,60.0024001,627c6715c52fd12f31907bcf,,,,,,,,,,,,,,,,,,,,,,,l,1,5.1097,"[""0.092"",""0.390"",""0.637"",""0.684""]","[1,1,1,0]",0,16,16,16,1,1,0,,,1,FALSE,,,,,,,,,,,,,,,,,,,,,,,,,,,,,,,
,61675e387230291cabc16e5c,627c6f89c4b340b9030cafe9,2022-05-11_19h41.19.187,classification_task,2021.2.3,Win32,60.0024001,627c6715c52fd12f31907bcf,,,,,,,,,,,,,,,,,,,,,,,a,1,4.1566,"[""0.301"",""0.431"",""0.705"",""0.923""]","[1,1,0,1]",0,17,17,17,1,0,0,,,1,FALSE,,,,,,,,,,,,,,,,,,,,,,,,,,,,,,,
,61675e387230291cabc16e5c,627c6f89c4b340b9030cafe9,2022-05-11_19h41.19.187,classification_task,2021.2.3,Win32,60.0024001,627c6715c52fd12f31907bcf,,,,,,,,,,,,,,,,,,,,,,,l,1,5.3552,"[""0.092"",""0.390"",""0.351"",""0.797""]","[1,1,0,1]",0,18,18,18,1,1,0,,,1,FALSE,,,,,,,,,,,,,,,,,,,,,,,,,,,,,,,
,61675e387230291cabc16e5c,627c6f89c4b340b9030cafe9,2022-05-11_19h41.19.187,classification_task,2021.2.3,Win32,60.0024001,627c6715c52fd12f31907bcf,,,,,,,,,,,,,,,,,,,,,,,l,1,4.2149,"[""0.092"",""0.673"",""0.637"",""0.797""]","[1,0,1,1]",0,19,19,19,1,1,0,,,1,FALSE,,,,,,,,,,,,,,,,,,,,,,,,,,,,,,,
,61675e387230291cabc16e5c,627c6f89c4b340b9030cafe9,2022-05-11_19h41.19.187,classification_task,2021.2.3,Win32,60.0024001,627c6715c52fd12f31907bcf,,,,,,,,,,,,,,,,,,,,,,,a,1,5.7504,"[""0.206"",""0.535"",""0.675"",""0.962""]","[1,1,0,1]",0,20,20,20,1,0,1,,,1,FALSE,,,,,,,,,,,,,,,,,,,,,,,,,,,,,,,
,61675e387230291cabc16e5c,627c6f89c4b340b9030cafe9,2022-05-11_19h41.19.187,classification_task,2021.2.3,Win32,60.0024001,627c6715c52fd12f31907bcf,,,,,,,,,,,,,,,,,,,,,,,a,1,9.1619,"[""0.301"",""0.351"",""0.867"",""0.923""]","[1,0,1,1]",0,21,21,21,1,0,0,,,1,FALSE,,,,,,,,,,,,,,,,,,,,,,,,,,,,,,,
,61675e387230291cabc16e5c,627c6f89c4b340b9030cafe9,2022-05-11_19h41.19.187,classification_task,2021.2.3,Win32,60.0024001,627c6715c52fd12f31907bcf,,,,,,,,,,,,,,,,,,,,,,,a,1,3.3598,"[""0.351"",""0.535"",""0.583"",""0.962""]","[0,1,1,1]",0,22,22,22,1,0,1,,,1,FALSE,,,,,,,,,,,,,,,,,,,,,,,,,,,,,,,
,61675e387230291cabc16e5c,627c6f89c4b340b9030cafe9,2022-05-11_19h41.19.187,classification_task,2021.2.3,Win32,60.0024001,627c6715c52fd12f31907bcf,,,,,,,,,,,,,,,,,,,,,,,a,1,3.4608,"[""0.700"",""0.431"",""0.867"",""0.923""]","[0,1,1,1]",0,23,23,23,1,0,0,,,1,FALSE,,,,,,,,,,,,,,,,,,,,,,,,,,,,,,,
,61675e387230291cabc16e5c,627c6f89c4b340b9030cafe9,2022-05-11_19h41.19.187,classification_task,2021.2.3,Win32,60.0024001,627c6715c52fd12f31907bcf,,,,,,,,,,,,,,,,,,,,,,,l,1,3.1711,"[""0.153"",""0.251"",""0.472"",""0.684""]","[1,1,1,0]",0,24,24,24,1,1,1,,,1,FALSE,,,,,,,,,,,,,,,,,,,,,,,,,,,,,,,
,61675e387230291cabc16e5c,627c6f89c4b340b9030cafe9,2022-05-11_19h41.19.187,classification_task,2021.2.3,Win32,60.0024001,627c6715c52fd12f31907bcf,,,,,,,,,,,,,,,,,,,,,,,a,1,2.6353,"[""0.206"",""0.684"",""0.583"",""0.962""]","[1,0,1,1]",0,25,25,25,1,0,1,,,1,FALSE,,,,,,,,,,,,,,,,,,,,,,,,,,,,,,,
,61675e387230291cabc16e5c,627c6f89c4b340b9030cafe9,2022-05-11_19h41.19.187,classification_task,2021.2.3,Win32,60.0024001,627c6715c52fd12f31907bcf,,,,,,,,,,,,,,,,,,,,,,,l,0,4.5079,"[""0.206"",""0.535"",""0.583"",""0.344""]","[1,1,1,0]",0,26,26,26,1,0,1,,,1,FALSE,,,,,,,,,,,,,,,,,,,,,,,,,,,,,,,
,61675e387230291cabc16e5c,627c6f89c4b340b9030cafe9,2022-05-11_19h41.19.187,classification_task,2021.2.3,Win32,60.0024001,627c6715c52fd12f31907bcf,,,,,,,,,,,,,,,,,,,,,,,a,0,7.2307,"[""0.153"",""0.675"",""0.472"",""0.755""]","[1,0,1,1]",0,27,27,27,1,1,1,,,1,FALSE,,,,,,,,,,,,,,,,,,,,,,,,,,,,,,,
,61675e387230291cabc16e5c,627c6f89c4b340b9030cafe9,2022-05-11_19h41.19.187,classification_task,2021.2.3,Win32,60.0024001,627c6715c52fd12f31907bcf,,,,,,,,,,,,,,,,,,,,,,,a,0,3.3853,"[""0.337"",""0.390"",""0.637"",""0.797""]","[0,1,1,1]",0,28,28,28,1,1,0,,,1,FALSE,,,,,,,,,,,,,,,,,,,,,,,,,,,,,,,
,61675e387230291cabc16e5c,627c6f89c4b340b9030cafe9,2022-05-11_19h41.19.187,classification_task,2021.2.3,Win32,60.0024001,627c6715c52fd12f31907bcf,,,,,,,,,,,,,,,,,,,,,,,l,1,4.0405,"[""0.153"",""0.251"",""0.684"",""0.755""]","[1,1,0,1]",0,29,29,29,1,1,1,,,1,FALSE,,,,,,,,,,,,,,,,,,,,,,,,,,,,,,,
,61675e387230291cabc16e5c,627c6f89c4b340b9030cafe9,2022-05-11_19h41.19.187,classification_task,2021.2.3,Win32,60.0024001,627c6715c52fd12f31907bcf,,,,,,,,,,,,,,,,,,,,,,,l,1,2.2745,"[""0.675"",""0.251"",""0.472"",""0.755""]","[0,1,1,1]",0,30,30,30,1,1,1,,,1,FALSE,,,,,,,,,,,,,,,,,,,,,,,,,,,,,,,
,61675e387230291cabc16e5c,627c6f89c4b340b9030cafe9,2022-05-11_19h41.19.187,classification_task,2021.2.3,Win32,60.0024001,627c6715c52fd12f31907bcf,,,,,,,,,,,,,,,,,,,,,,,l,0,3.9286,"[""0.301"",""0.431"",""0.867"",""0.684""]","[1,1,1,0]",0,31,31,31,1,0,0,,,1,FALSE,,,,,,,,,,,,,,,,,,,,,,,,,,,,,,,
,61675e387230291cabc16e5c,627c6f89c4b340b9030cafe9,2022-05-11_19h41.19.187,classification_task,2021.2.3,Win32,60.0024001,627c6715c52fd12f31907bcf,,,,,,,,,,,,,,,,,,,,,,,a,0,6.693,"[""0.153"",""0.687"",""0.472"",""0.755""]","[1,0,1,1]",0,32,32,32,1,1,1,,,1,FALSE,,,,,,,,,,,,,,,,,,,,,,,,,,,,,,,
,61675e387230291cabc16e5c,627c6f89c4b340b9030cafe9,2022-05-11_19h41.19.187,classification_task,2021.2.3,Win32,60.0024001,627c6715c52fd12f31907bcf,,,,,,,,,,,,,,,,,,,,,,,l,0,4.7199,"[""0.344"",""0.535"",""0.583"",""0.962""]","[0,1,1,1]",0,33,33,33,1,0,1,,,1,FALSE,,,,,,,,,,,,,,,,,,,,,,,,,,,,,,,
,61675e387230291cabc16e5c,627c6f89c4b340b9030cafe9,2022-05-11_19h41.19.187,classification_task,2021.2.3,Win32,60.0024001,627c6715c52fd12f31907bcf,,,,,,,,,,,,,,,,,,,,,,,l,0,3.1687,"[""0.206"",""0.535"",""0.583"",""0.684""]","[1,1,1,0]",0,34,34,34,1,0,1,,,1,FALSE,,,,,,,,,,,,,,,,,,,,,,,,,,,,,,,
,61675e387230291cabc16e5c,627c6f89c4b340b9030cafe9,2022-05-11_19h41.19.187,classification_task,2021.2.3,Win32,60.0024001,627c6715c52fd12f31907bcf,,,,,,,,,,,,,,,,,,,,,,,l,0,5.3188,"[""0.301"",""0.431"",""0.867"",""0.351""]","[1,1,1,0]",0,35,35,35,1,0,0,,,1,FALSE,,,,,,,,,,,,,,,,,,,,,,,,,,,,,,,
,61675e387230291cabc16e5c,627c6f89c4b340b9030cafe9,2022-05-11_19h41.19.187,classification_task,2021.2.3,Win32,60.0024001,627c6715c52fd12f31907bcf,,,,,,,,,,,,,,,,,,,,,,,a,0,1.0239,"[""0.092"",""0.675"",""0.637"",""0.797""]","[1,0,1,1]",0,36,36,36,1,1,0,,,1,FALSE,,,,,,,,,,,,,,,,,,,,,,,,,,,,,,,
,61675e387230291cabc16e5c,627c6f89c4b340b9030cafe9,2022-05-11_19h41.19.187,classification_task,2021.2.3,Win32,60.0024001,627c6715c52fd12f31907bcf,,,,,,,,,,,,,,,,,,,,,,,a,0,2.7999,"[""0.351"",""0.390"",""0.637"",""0.797""]","[0,1,1,1]",0,37,37,37,1,1,0,,,1,FALSE,,,,,,,,,,,,,,,,,,,,,,,,,,,,,,,
,61675e387230291cabc16e5c,627c6f89c4b340b9030cafe9,2022-05-11_19h41.19.187,classification_task,2021.2.3,Win32,60.0024001,627c6715c52fd12f31907bcf,,,,,,,,,,,,,,,,,,,,,,,l,0,1.7686,"[""0.684"",""0.431"",""0.867"",""0.923""]","[0,1,1,1]",0,38,38,38,1,0,0,,,1,FALSE,,,,,,,,,,,,,,,,,,,,,,,,,,,,,,,
,61675e387230291cabc16e5c,627c6f89c4b340b9030cafe9,2022-05-11_19h41.19.187,classification_task,2021.2.3,Win32,60.0024001,627c6715c52fd12f31907bcf,,,,,,,,,,,,,,,,,,,,,,,l,1,5.0033,"[""0.092"",""0.390"",""0.637"",""0.684""]","[1,1,1,0]",0,39,39,39,1,1,0,,,1,FALSE,,,,,,,,,,,,,,,,,,,,,,,,,,,,,,,
,61675e387230291cabc16e5c,627c6f89c4b340b9030cafe9,2022-05-11_19h41.19.187,classification_task,2021.2.3,Win32,60.0024001,627c6715c52fd12f31907bcf,,,,,,,,,,,,,,,,,,,,,,,l,0,1.2661,"[""0.206"",""0.535"",""0.044"",""0.962""]","[1,1,0,1]",0,40,40,40,1,0,1,,,1,FALSE,,,,,,,,,,,,,,,,,,,,,,,,,,,,,,,
,61675e387230291cabc16e5c,627c6f89c4b340b9030cafe9,2022-05-11_19h41.19.187,classification_task,2021.2.3,Win32,60.0024001,627c6715c52fd12f31907bcf,,,,,,,,,,,,,,,,,,,,,,,a,0,3.4204,"[""0.153"",""0.251"",""0.055"",""0.755""]","[1,1,0,1]",0,41,41,41,1,1,1,,,1,FALSE,,,,,,,,,,,,,,,,,,,,,,,,,,,,,,,
,61675e387230291cabc16e5c,627c6f89c4b340b9030cafe9,2022-05-11_19h41.19.187,classification_task,2021.2.3,Win32,60.0024001,627c6715c52fd12f31907bcf,,,,,,,,,,,,,,,,,,,,,,,l,0,2.144,"[""0.301"",""0.431"",""0.351"",""0.923""]","[1,1,0,1]",0,42,42,42,1,0,0,,,1,FALSE,,,,,,,,,,,,,,,,,,,,,,,,,,,,,,,
,61675e387230291cabc16e5c,627c6f89c4b340b9030cafe9,2022-05-11_19h41.19.187,classification_task,2021.2.3,Win32,60.0024001,627c6715c52fd12f31907bcf,,,,,,,,,,,,,,,,,,,,,,,l,1,1.5734,"[""0.702"",""0.251"",""0.472"",""0.755""]","[0,1,1,1]",0,43,43,43,1,1,1,,,1,FALSE,,,,,,,,,,,,,,,,,,,,,,,,,,,,,,,
,61675e387230291cabc16e5c,627c6f89c4b340b9030cafe9,2022-05-11_19h41.19.187,classification_task,2021.2.3,Win32,60.0024001,627c6715c52fd12f31907bcf,,,,,,,,,,,,,,,,,,,,,,,a,0,1.6023,"[""0.153"",""0.251"",""0.472"",""0.337""]","[1,1,1,0]",0,44,44,44,1,1,1,,,1,FALSE,,,,,,,,,,,,,,,,,,,,,,,,,,,,,,,
,61675e387230291cabc16e5c,627c6f89c4b340b9030cafe9,2022-05-11_19h41.19.187,classification_task,2021.2.3,Win32,60.0024001,627c6715c52fd12f31907bcf,,,,,,,,,,,,,,,,,,,,,,,l,0,3.2433,"[""0.206"",""0.344"",""0.583"",""0.962""]","[1,0,1,1]",0,45,45,45,1,0,1,,,1,FALSE,,,,,,,,,,,,,,,,,,,,,,,,,,,,,,,
,61675e387230291cabc16e5c,627c6f89c4b340b9030cafe9,2022-05-11_19h41.19.187,classification_task,2021.2.3,Win32,60.0024001,627c6715c52fd12f31907bcf,,,,,,,,,,,,,,,,,,,,,,,a,1,1.3991,"[""0.301"",""0.042"",""0.867"",""0.923""]","[1,0,1,1]",0,46,46,46,1,0,0,,,1,FALSE,,,,,,,,,,,,,,,,,,,,,,,,,,,,,,,
,61675e387230291cabc16e5c,627c6f89c4b340b9030cafe9,2022-05-11_19h41.19.187,classification_task,2021.2.3,Win32,60.0024001,627c6715c52fd12f31907bcf,,,,,,,,,,,,,,,,,,,,,,,a,0,3.4954,"[""0.092"",""0.390"",""0.042"",""0.797""]","[1,1,0,1]",0,47,47,47,1,1,0,,,1,FALSE,,,,,,,,,,,,,,,,,,,,,,,,,,,,,,,
,61675e387230291cabc16e5c,627c6f89c4b340b9030cafe9,2022-05-11_19h41.19.187,classification_task,2021.2.3,Win32,60.0024001,627c6715c52fd12f31907bcf,,,,,,,,,,,,,,,,,,,,,,,a,1,2.2773,"[""0.206"",""0.535"",""0.042"",""0.962""]","[1,1,0,1]",0,48,48,48,1,0,1,,,1,FALSE,,,,,,,,,,,,,,,,,,,,,,,,,,,,,,,
,61675e387230291cabc16e5c,627c6f89c4b340b9030cafe9,2022-05-11_19h41.19.187,classification_task,2021.2.3,Win32,60.0024001,627c6715c52fd12f31907bcf,,,,,,,,,,,,,,,,,,,,,,,l,1,1.6972,"[""0.675"",""0.251"",""0.472"",""0.755""]","[0,1,1,1]",0,49,49,49,1,1,1,,,1,FALSE,,,,,,,,,,,,,,,,,,,,,,,,,,,,,,,
,61675e387230291cabc16e5c,627c6f89c4b340b9030cafe9,2022-05-11_19h41.19.187,classification_task,2021.2.3,Win32,60.0024001,627c6715c52fd12f31907bcf,,,,,,,,,,,,,,,,,,,,,,,a,0,1.7314,"[""0.153"",""0.251"",""0.351"",""0.755""]","[1,1,0,1]",0,50,50,50,1,1,1,,,1,FALSE,,,,,,,,,,,,,,,,,,,,,,,,,,,,,,,
,61675e387230291cabc16e5c,627c6f89c4b340b9030cafe9,2022-05-11_19h41.19.187,classification_task,2021.2.3,Win32,60.0024001,627c6715c52fd12f31907bcf,,,,,,,,,,,,,,,,,,,,,,,l,1,2.4874,"[""0.675"",""0.390"",""0.637"",""0.797""]","[0,1,1,1]",0,51,51,51,1,1,0,,,1,FALSE,,,,,,,,,,,,,,,,,,,,,,,,,,,,,,,
,61675e387230291cabc16e5c,627c6f89c4b340b9030cafe9,2022-05-11_19h41.19.187,classification_task,2021.2.3,Win32,60.0024001,627c6715c52fd12f31907bcf,,,,,,,,,,,,,,,,,,,,,,,a,0,3.6343,"[""0.153"",""0.687"",""0.472"",""0.755""]","[1,0,1,1]",0,52,52,52,1,1,1,,,1,FALSE,,,,,,,,,,,,,,,,,,,,,,,,,,,,,,,
,61675e387230291cabc16e5c,627c6f89c4b340b9030cafe9,2022-05-11_19h41.19.187,classification_task,2021.2.3,Win32,60.0024001,627c6715c52fd12f31907bcf,,,,,,,,,,,,,,,,,,,,,,,a,1,2.7934,"[""0.301"",""0.684"",""0.867"",""0.923""]","[1,0,1,1]",0,53,53,53,1,0,0,,,1,FALSE,,,,,,,,,,,,,,,,,,,,,,,,,,,,,,,
,61675e387230291cabc16e5c,627c6f89c4b340b9030cafe9,2022-05-11_19h41.19.187,classification_task,2021.2.3,Win32,60.0024001,627c6715c52fd12f31907bcf,,,,,,,,,,,,,,,,,,,,,,,a,0,2.6586,"[""0.092"",""0.390"",""0.687"",""0.797""]","[1,1,0,1]",0,54,54,54,1,1,0,,,1,FALSE,,,,,,,,,,,,,,,,,,,,,,,,,,,,,,,
,61675e387230291cabc16e5c,627c6f89c4b340b9030cafe9,2022-05-11_19h41.19.187,classification_task,2021.2.3,Win32,60.0024001,627c6715c52fd12f31907bcf,,,,,,,,,,,,,,,,,,,,,,,a,1,2.105,"[""0.206"",""0.673"",""0.583"",""0.962""]","[1,0,1,1]",0,55,55,55,1,0,1,,,1,FALSE,,,,,,,,,,,,,,,,,,,,,,,,,,,,,,,
,61675e387230291cabc16e5c,627c6f89c4b340b9030cafe9,2022-05-11_19h41.19.187,classification_task,2021.2.3,Win32,60.0024001,627c6715c52fd12f31907bcf,,,,,,,,,,,,,,,,,,,,,,,l,1,1.6647,"[""0.153"",""0.251"",""0.472"",""0.344""]","[1,1,1,0]",0,56,56,56,1,1,1,,,1,FALSE,,,,,,,,,,,,,,,,,,,,,,,,,,,,,,,
,61675e387230291cabc16e5c,627c6f89c4b340b9030cafe9,2022-05-11_19h41.19.187,classification_task,2021.2.3,Win32,60.0024001,627c6715c52fd12f31907bcf,,,,,,,,,,,,,,,,,,,,,,,l,1,2.2028,"[""0.092"",""0.390"",""0.637"",""0.044""]","[1,1,1,0]",0,57,57,57,1,1,0,,,1,FALSE,,,,,,,,,,,,,,,,,,,,,,,,,,,,,,,
,61675e387230291cabc16e5c,627c6f89c4b340b9030cafe9,2022-05-11_19h41.19.187,classification_task,2021.2.3,Win32,60.0024001,627c6715c52fd12f31907bcf,,,,,,,,,,,,,,,,,,,,,,,a,1,1.3977,"[""0.684"",""0.535"",""0.583"",""0.962""]","[0,1,1,1]",0,58,58,58,1,0,1,,,1,FALSE,,,,,,,,,,,,,,,,,,,,,,,,,,,,,,,
,61675e387230291cabc16e5c,627c6f89c4b340b9030cafe9,2022-05-11_19h41.19.187,classification_task,2021.2.3,Win32,60.0024001,627c6715c52fd12f31907bcf,,,,,,,,,,,,,,,,,,,,,,,a,1,1.5667,"[""0.301"",""0.431"",""0.867"",""0.684""]","[1,1,1,0]",0,59,59,59,1,0,0,,,1,FALSE,,,,,,,,,,,,,,,,,,,,,,,,,,,,,,,
,61675e387230291cabc16e5c,627c6f89c4b340b9030cafe9,2022-05-11_19h41.19.187,classification_task,2021.2.3,Win32,60.0024001,627c6715c52fd12f31907bcf,,,,,,,,,,,,,,,,,,,,,,,l,0,1.2333,"[""0.206"",""0.535"",""0.583"",""0.337""]","[1,1,1,0]",0,60,60,60,1,0,1,,,1,FALSE,,,,,,,,,,,,,,,,,,,,,,,,,,,,,,,
,61675e387230291cabc16e5c,627c6f89c4b340b9030cafe9,2022-05-11_19h41.19.187,classification_task,2021.2.3,Win32,60.0024001,627c6715c52fd12f31907bcf,,,,,,,,,,,,,,,,,,,,,,,a,1,1.5072,"[""0.301"",""0.431"",""0.351"",""0.923""]","[1,1,0,1]",0,61,61,61,1,0,0,,,1,FALSE,,,,,,,,,,,,,,,,,,,,,,,,,,,,,,,
,61675e387230291cabc16e5c,627c6f89c4b340b9030cafe9,2022-05-11_19h41.19.187,classification_task,2021.2.3,Win32,60.0024001,627c6715c52fd12f31907bcf,,,,,,,,,,,,,,,,,,,,,,,a,1,1.7147,"[""0.687"",""0.431"",""0.867"",""0.923""]","[0,1,1,1]",0,62,62,62,1,0,0,,,1,FALSE,,,,,,,,,,,,,,,,,,,,,,,,,,,,,,,
,61675e387230291cabc16e5c,627c6f89c4b340b9030cafe9,2022-05-11_19h41.19.187,classification_task,2021.2.3,Win32,60.0024001,627c6715c52fd12f31907bcf,,,,,,,,,,,,,,,,,,,,,,,a,0,1.8444,"[""0.092"",""0.684"",""0.637"",""0.797""]","[1,0,1,1]",0,63,63,63,1,1,0,,,1,FALSE,,,,,,,,,,,,,,,,,,,,,,,,,,,,,,,
,61675e387230291cabc16e5c,627c6f89c4b340b9030cafe9,2022-05-11_19h41.19.187,classification_task,2021.2.3,Win32,60.0024001,627c6715c52fd12f31907bcf,,,,,,,,,,,,,,,,,,,,,,,,,,,,,,,,,,,,,,,0, ,,0,0.556382275,618.2426,0,0,0,0,1,2,1,,,,,,,,,,,,,,,,,,
,61675e387230291cabc16e5c,627c6f89c4b340b9030cafe9,2022-05-11_19h41.19.187,classification_task,2021.2.3,Win32,60.0024001,627c6715c52fd12f31907bcf,,,,,,,,,,,,,,,,,,,,,,,,,,,,,,,,,,,,,,,1,  ,,0,10,626.2189,0,0,0,0,1,2,1,,,,,,,,,,,,,,,,,,
,61675e387230291cabc16e5c,627c6f89c4b340b9030cafe9,2022-05-11_19h41.19.187,classification_task,2021.2.3,Win32,60.0024001,627c6715c52fd12f31907bcf,,,,,,,,,,,,,,,,,,,,,,,,,,,,,,,,,,,,,,,2,  ,,0,10,637.026,0,0,0,0,1,2,1,,,,,,,,,,,,,,,,,,
,61675e387230291cabc16e5c,627c6f89c4b340b9030cafe9,2022-05-11_19h41.19.187,classification_task,2021.2.3,Win32,60.0024001,627c6715c52fd12f31907bcf,,,,,,,,,,,,,,,,,,,,,,,,,,,,,,,,,,,,,,,,,,,,,0,0,0,0,1,,1,,,,,,,,,,,,,,,,,,
,61675e387230291cabc16e5c,627c6f89c4b340b9030cafe9,2022-05-11_19h41.19.187,classification_task,2021.2.3,Win32,60.0024001,627c6715c52fd12f31907bcf,,,,,,,,,,,,,,,,,,,,,space,24.2052,l,1,6.6903,"[""0.092"",""0.390"",""0.705"",""0.797""]","[1,1,0,1]",0,0,0,0,1,1,0,,,1,FALSE,,,,,,,,,,,,,,,,,,,,,,,,,,,,,,,
,61675e387230291cabc16e5c,627c6f89c4b340b9030cafe9,2022-05-11_19h41.19.187,classification_task,2021.2.3,Win32,60.0024001,627c6715c52fd12f31907bcf,,,,,,,,,,,,,,,,,,,,,,,l,1,4.1692,"[""0.153"",""0.673"",""0.472"",""0.755""]","[1,0,1,1]",0,1,1,1,1,1,1,,,1,FALSE,,,,,,,,,,,,,,,,,,,,,,,,,,,,,,,
,61675e387230291cabc16e5c,627c6f89c4b340b9030cafe9,2022-05-11_19h41.19.187,classification_task,2021.2.3,Win32,60.0024001,627c6715c52fd12f31907bcf,,,,,,,,,,,,,,,,,,,,,,,l,0,3.2866,"[""0.206"",""0.535"",""0.583"",""0.687""]","[1,1,1,0]",0,2,2,2,1,0,1,,,1,FALSE,,,,,,,,,,,,,,,,,,,,,,,,,,,,,,,
,61675e387230291cabc16e5c,627c6f89c4b340b9030cafe9,2022-05-11_19h41.19.187,classification_task,2021.2.3,Win32,60.0024001,627c6715c52fd12f31907bcf,,,,,,,,,,,,,,,,,,,,,,,a,1,2.5177,"[""0.301"",""0.431"",""0.705"",""0.923""]","[1,1,0,1]",0,3,3,3,1,0,0,,,1,FALSE,,,,,,,,,,,,,,,,,,,,,,,,,,,,,,,
,61675e387230291cabc16e5c,627c6f89c4b340b9030cafe9,2022-05-11_19h41.19.187,classification_task,2021.2.3,Win32,60.0024001,627c6715c52fd12f31907bcf,,,,,,,,,,,,,,,,,,,,,,,l,1,1.1818,"[""0.092"",""0.390"",""0.637"",""0.344""]","[1,1,1,0]",0,4,4,4,1,1,0,,,1,FALSE,,,,,,,,,,,,,,,,,,,,,,,,,,,,,,,
,61675e387230291cabc16e5c,627c6f89c4b340b9030cafe9,2022-05-11_19h41.19.187,classification_task,2021.2.3,Win32,60.0024001,627c6715c52fd12f31907bcf,,,,,,,,,,,,,,,,,,,,,,,l,0,2.995,"[""0.206"",""0.535"",""0.055"",""0.962""]","[1,1,0,1]",0,5,5,5,1,0,1,,,1,FALSE,,,,,,,,,,,,,,,,,,,,,,,,,,,,,,,
,61675e387230291cabc16e5c,627c6f89c4b340b9030cafe9,2022-05-11_19h41.19.187,classification_task,2021.2.3,Win32,60.0024001,627c6715c52fd12f31907bcf,,,,,,,,,,,,,,,,,,,,,,,a,1,1.3829,"[""0.684"",""0.431"",""0.867"",""0.923""]","[0,1,1,1]",0,6,6,6,1,0,0,,,1,FALSE,,,,,,,,,,,,,,,,,,,,,,,,,,,,,,,
,61675e387230291cabc16e5c,627c6f89c4b340b9030cafe9,2022-05-11_19h41.19.187,classification_task,2021.2.3,Win32,60.0024001,627c6715c52fd12f31907bcf,,,,,,,,,,,,,,,,,,,,,,,l,1,2.3596,"[""0.153"",""0.251"",""0.472"",""0.673""]","[1,1,1,0]",0,7,7,7,1,1,1,,,1,FALSE,,,,,,,,,,,,,,,,,,,,,,,,,,,,,,,
,61675e387230291cabc16e5c,627c6f89c4b340b9030cafe9,2022-05-11_19h41.19.187,classification_task,2021.2.3,Win32,60.0024001,627c6715c52fd12f31907bcf,,,,,,,,,,,,,,,,,,,,,,,a,1,2.5004,"[""0.301"",""0.431"",""0.867"",""0.351""]","[1,1,1,0]",0,8,8,8,1,0,0,,,1,FALSE,,,,,,,,,,,,,,,,,,,,,,,,,,,,,,,
,61675e387230291cabc16e5c,627c6f89c4b340b9030cafe9,2022-05-11_19h41.19.187,classification_task,2021.2.3,Win32,60.0024001,627c6715c52fd12f31907bcf,,,,,,,,,,,,,,,,,,,,,,,a,0,1.7486,"[""0.153"",""0.251"",""0.351"",""0.755""]","[1,1,0,1]",0,9,9,9,1,1,1,,,1,FALSE,,,,,,,,,,,,,,,,,,,,,,,,,,,,,,,
,61675e387230291cabc16e5c,627c6f89c4b340b9030cafe9,2022-05-11_19h41.19.187,classification_task,2021.2.3,Win32,60.0024001,627c6715c52fd12f31907bcf,,,,,,,,,,,,,,,,,,,,,,,l,1,1.4037,"[""0.042"",""0.390"",""0.637"",""0.797""]","[0,1,1,1]",0,10,10,10,1,1,0,,,1,FALSE,,,,,,,,,,,,,,,,,,,,,,,,,,,,,,,
,61675e387230291cabc16e5c,627c6f89c4b340b9030cafe9,2022-05-11_19h41.19.187,classification_task,2021.2.3,Win32,60.0024001,627c6715c52fd12f31907bcf,,,,,,,,,,,,,,,,,,,,,,,a,1,1.9831,"[""0.206"",""0.344"",""0.583"",""0.962""]","[1,0,1,1]",0,11,11,11,1,0,1,,,1,FALSE,,,,,,,,,,,,,,,,,,,,,,,,,,,,,,,
,61675e387230291cabc16e5c,627c6f89c4b340b9030cafe9,2022-05-11_19h41.19.187,classification_task,2021.2.3,Win32,60.0024001,627c6715c52fd12f31907bcf,,,,,,,,,,,,,,,,,,,,,,,l,0,1.7859,"[""0.351"",""0.535"",""0.583"",""0.962""]","[0,1,1,1]",0,12,12,12,1,0,1,,,1,FALSE,,,,,,,,,,,,,,,,,,,,,,,,,,,,,,,
,61675e387230291cabc16e5c,627c6f89c4b340b9030cafe9,2022-05-11_19h41.19.187,classification_task,2021.2.3,Win32,60.0024001,627c6715c52fd12f31907bcf,,,,,,,,,,,,,,,,,,,,,,,l,1,2.1169,"[""0.092"",""0.344"",""0.637"",""0.797""]","[1,0,1,1]",0,13,13,13,1,1,0,,,1,FALSE,,,,,,,,,,,,,,,,,,,,,,,,,,,,,,,
,61675e387230291cabc16e5c,627c6f89c4b340b9030cafe9,2022-05-11_19h41.19.187,classification_task,2021.2.3,Win32,60.0024001,627c6715c52fd12f31907bcf,,,,,,,,,,,,,,,,,,,,,,,a,1,2.9199,"[""0.301"",""0.337"",""0.867"",""0.923""]","[1,0,1,1]",0,14,14,14,1,0,0,,,1,FALSE,,,,,,,,,,,,,,,,,,,,,,,,,,,,,,,
,61675e387230291cabc16e5c,627c6f89c4b340b9030cafe9,2022-05-11_19h41.19.187,classification_task,2021.2.3,Win32,60.0024001,627c6715c52fd12f31907bcf,,,,,,,,,,,,,,,,,,,,,,,a,0,1.7804,"[""0.337"",""0.251"",""0.472"",""0.755""]","[0,1,1,1]",0,15,15,15,1,1,1,,,1,FALSE,,,,,,,,,,,,,,,,,,,,,,,,,,,,,,,
,61675e387230291cabc16e5c,627c6f89c4b340b9030cafe9,2022-05-11_19h41.19.187,classification_task,2021.2.3,Win32,60.0024001,627c6715c52fd12f31907bcf,,,,,,,,,,,,,,,,,,,,,,,l,1,2.1797,"[""0.153"",""0.251"",""0.472"",""0.351""]","[1,1,1,0]",0,16,16,16,1,1,1,,,1,FALSE,,,,,,,,,,,,,,,,,,,,,,,,,,,,,,,
,61675e387230291cabc16e5c,627c6f89c4b340b9030cafe9,2022-05-11_19h41.19.187,classification_task,2021.2.3,Win32,60.0024001,627c6715c52fd12f31907bcf,,,,,,,,,,,,,,,,,,,,,,,l,1,1.4415,"[""0.055"",""0.390"",""0.637"",""0.797""]","[0,1,1,1]",0,17,17,17,1,1,0,,,1,FALSE,,,,,,,,,,,,,,,,,,,,,,,,,,,,,,,
,61675e387230291cabc16e5c,627c6f89c4b340b9030cafe9,2022-05-11_19h41.19.187,classification_task,2021.2.3,Win32,60.0024001,627c6715c52fd12f31907bcf,,,,,,,,,,,,,,,,,,,,,,,l,0,2.3725,"[""0.206"",""0.684"",""0.583"",""0.962""]","[1,0,1,1]",0,18,18,18,1,0,1,,,1,FALSE,,,,,,,,,,,,,,,,,,,,,,,,,,,,,,,
,61675e387230291cabc16e5c,627c6f89c4b340b9030cafe9,2022-05-11_19h41.19.187,classification_task,2021.2.3,Win32,60.0024001,627c6715c52fd12f31907bcf,,,,,,,,,,,,,,,,,,,,,,,a,1,1.7985,"[""0.337"",""0.535"",""0.583"",""0.962""]","[0,1,1,1]",0,19,19,19,1,0,1,,,1,FALSE,,,,,,,,,,,,,,,,,,,,,,,,,,,,,,,
,61675e387230291cabc16e5c,627c6f89c4b340b9030cafe9,2022-05-11_19h41.19.187,classification_task,2021.2.3,Win32,60.0024001,627c6715c52fd12f31907bcf,,,,,,,,,,,,,,,,,,,,,,,a,1,3.1602,"[""0.675"",""0.431"",""0.867"",""0.923""]","[0,1,1,1]",0,20,20,20,1,0,0,,,1,FALSE,,,,,,,,,,,,,,,,,,,,,,,,,,,,,,,
,61675e387230291cabc16e5c,627c6f89c4b340b9030cafe9,2022-05-11_19h41.19.187,classification_task,2021.2.3,Win32,60.0024001,627c6715c52fd12f31907bcf,,,,,,,,,,,,,,,,,,,,,,,a,1,1.5328,"[""0.301"",""0.673"",""0.867"",""0.923""]","[1,0,1,1]",0,21,21,21,1,0,0,,,1,FALSE,,,,,,,,,,,,,,,,,,,,,,,,,,,,,,,
,61675e387230291cabc16e5c,627c6f89c4b340b9030cafe9,2022-05-11_19h41.19.187,classification_task,2021.2.3,Win32,60.0024001,627c6715c52fd12f31907bcf,,,,,,,,,,,,,,,,,,,,,,,a,1,3.4413,"[""0.301"",""0.431"",""0.867"",""0.351""]","[1,1,1,0]",0,22,22,22,1,0,0,,,1,FALSE,,,,,,,,,,,,,,,,,,,,,,,,,,,,,,,
,61675e387230291cabc16e5c,627c6f89c4b340b9030cafe9,2022-05-11_19h41.19.187,classification_task,2021.2.3,Win32,60.0024001,627c6715c52fd12f31907bcf,,,,,,,,,,,,,,,,,,,,,,,l,1,1.9599,"[""0.092"",""0.351"",""0.637"",""0.797""]","[1,0,1,1]",0,23,23,23,1,1,0,,,1,FALSE,,,,,,,,,,,,,,,,,,,,,,,,,,,,,,,
,61675e387230291cabc16e5c,627c6f89c4b340b9030cafe9,2022-05-11_19h41.19.187,classification_task,2021.2.3,Win32,60.0024001,627c6715c52fd12f31907bcf,,,,,,,,,,,,,,,,,,,,,,,l,0,2.6556,"[""0.206"",""0.535"",""0.684"",""0.962""]","[1,1,0,1]",0,24,24,24,1,0,1,,,1,FALSE,,,,,,,,,,,,,,,,,,,,,,,,,,,,,,,
,61675e387230291cabc16e5c,627c6f89c4b340b9030cafe9,2022-05-11_19h41.19.187,classification_task,2021.2.3,Win32,60.0024001,627c6715c52fd12f31907bcf,,,,,,,,,,,,,,,,,,,,,,,l,1,2.213,"[""0.092"",""0.390"",""0.637"",""0.344""]","[1,1,1,0]",0,25,25,25,1,1,0,,,1,FALSE,,,,,,,,,,,,,,,,,,,,,,,,,,,,,,,
,61675e387230291cabc16e5c,627c6f89c4b340b9030cafe9,2022-05-11_19h41.19.187,classification_task,2021.2.3,Win32,60.0024001,627c6715c52fd12f31907bcf,,,,,,,,,,,,,,,,,,,,,,,a,0,2.0936,"[""0.153"",""0.705"",""0.472"",""0.755""]","[1,0,1,1]",0,26,26,26,1,1,1,,,1,FALSE,,,,,,,,,,,,,,,,,,,,,,,,,,,,,,,
,61675e387230291cabc16e5c,627c6f89c4b340b9030cafe9,2022-05-11_19h41.19.187,classification_task,2021.2.3,Win32,60.0024001,627c6715c52fd12f31907bcf,,,,,,,,,,,,,,,,,,,,,,,l,1,1.6916,"[""0.684"",""0.251"",""0.472"",""0.755""]","[0,1,1,1]",0,27,27,27,1,1,1,,,1,FALSE,,,,,,,,,,,,,,,,,,,,,,,,,,,,,,,
,61675e387230291cabc16e5c,627c6f89c4b340b9030cafe9,2022-05-11_19h41.19.187,classification_task,2021.2.3,Win32,60.0024001,627c6715c52fd12f31907bcf,,,,,,,,,,,,,,,,,,,,,,,l,1,1.4102,"[""0.092"",""0.390"",""0.673"",""0.797""]","[1,1,0,1]",0,28,28,28,1,1,0,,,1,FALSE,,,,,,,,,,,,,,,,,,,,,,,,,,,,,,,
,61675e387230291cabc16e5c,627c6f89c4b340b9030cafe9,2022-05-11_19h41.19.187,classification_task,2021.2.3,Win32,60.0024001,627c6715c52fd12f31907bcf,,,,,,,,,,,,,,,,,,,,,,,a,1,1.594,"[""0.301"",""0.431"",""0.351"",""0.923""]","[1,1,0,1]",0,29,29,29,1,0,0,,,1,FALSE,,,,,,,,,,,,,,,,,,,,,,,,,,,,,,,
,61675e387230291cabc16e5c,627c6f89c4b340b9030cafe9,2022-05-11_19h41.19.187,classification_task,2021.2.3,Win32,60.0024001,627c6715c52fd12f31907bcf,,,,,,,,,,,,,,,,,,,,,,,l,1,1.4872,"[""0.153"",""0.251"",""0.702"",""0.755""]","[1,1,0,1]",0,30,30,30,1,1,1,,,1,FALSE,,,,,,,,,,,,,,,,,,,,,,,,,,,,,,,
,61675e387230291cabc16e5c,627c6f89c4b340b9030cafe9,2022-05-11_19h41.19.187,classification_task,2021.2.3,Win32,60.0024001,627c6715c52fd12f31907bcf,,,,,,,,,,,,,,,,,,,,,,,l,0,1.4438,"[""0.206"",""0.535"",""0.583"",""0.687""]","[1,1,1,0]",0,31,31,31,1,0,1,,,1,FALSE,,,,,,,,,,,,,,,,,,,,,,,,,,,,,,,
,61675e387230291cabc16e5c,627c6f89c4b340b9030cafe9,2022-05-11_19h41.19.187,classification_task,2021.2.3,Win32,60.0024001,627c6715c52fd12f31907bcf,,,,,,,,,,,,,,,,,,,,,,,l,1,1.26,"[""0.153"",""0.251"",""0.687"",""0.755""]","[1,1,0,1]",0,32,32,32,1,1,1,,,1,FALSE,,,,,,,,,,,,,,,,,,,,,,,,,,,,,,,
,61675e387230291cabc16e5c,627c6f89c4b340b9030cafe9,2022-05-11_19h41.19.187,classification_task,2021.2.3,Win32,60.0024001,627c6715c52fd12f31907bcf,,,,,,,,,,,,,,,,,,,,,,,l,1,1.4194,"[""0.687"",""0.251"",""0.472"",""0.755""]","[0,1,1,1]",0,33,33,33,1,1,1,,,1,FALSE,,,,,,,,,,,,,,,,,,,,,,,,,,,,,,,
,61675e387230291cabc16e5c,627c6f89c4b340b9030cafe9,2022-05-11_19h41.19.187,classification_task,2021.2.3,Win32,60.0024001,627c6715c52fd12f31907bcf,,,,,,,,,,,,,,,,,,,,,,,l,1,1.5271,"[""0.092"",""0.337"",""0.637"",""0.797""]","[1,0,1,1]",0,34,34,34,1,1,0,,,1,FALSE,,,,,,,,,,,,,,,,,,,,,,,,,,,,,,,
,61675e387230291cabc16e5c,627c6f89c4b340b9030cafe9,2022-05-11_19h41.19.187,classification_task,2021.2.3,Win32,60.0024001,627c6715c52fd12f31907bcf,,,,,,,,,,,,,,,,,,,,,,,l,0,1.6399,"[""0.206"",""0.687"",""0.583"",""0.962""]","[1,0,1,1]",0,35,35,35,1,0,1,,,1,FALSE,,,,,,,,,,,,,,,,,,,,,,,,,,,,,,,
,61675e387230291cabc16e5c,627c6f89c4b340b9030cafe9,2022-05-11_19h41.19.187,classification_task,2021.2.3,Win32,60.0024001,627c6715c52fd12f31907bcf,,,,,,,,,,,,,,,,,,,,,,,l,1,1.5487,"[""0.092"",""0.390"",""0.637"",""0.675""]","[1,1,1,0]",0,36,36,36,1,1,0,,,1,FALSE,,,,,,,,,,,,,,,,,,,,,,,,,,,,,,,
,61675e387230291cabc16e5c,627c6f89c4b340b9030cafe9,2022-05-11_19h41.19.187,classification_task,2021.2.3,Win32,60.0024001,627c6715c52fd12f31907bcf,,,,,,,,,,,,,,,,,,,,,,,a,0,1.4563,"[""0.153"",""0.042"",""0.472"",""0.755""]","[1,0,1,1]",0,37,37,37,1,1,1,,,1,FALSE,,,,,,,,,,,,,,,,,,,,,,,,,,,,,,,
,61675e387230291cabc16e5c,627c6f89c4b340b9030cafe9,2022-05-11_19h41.19.187,classification_task,2021.2.3,Win32,60.0024001,627c6715c52fd12f31907bcf,,,,,,,,,,,,,,,,,,,,,,,l,0,2.7618,"[""0.206"",""0.535"",""0.044"",""0.962""]","[1,1,0,1]",0,38,38,38,1,0,1,,,1,FALSE,,,,,,,,,,,,,,,,,,,,,,,,,,,,,,,
,61675e387230291cabc16e5c,627c6f89c4b340b9030cafe9,2022-05-11_19h41.19.187,classification_task,2021.2.3,Win32,60.0024001,627c6715c52fd12f31907bcf,,,,,,,,,,,,,,,,,,,,,,,a,0,2.0081,"[""0.337"",""0.390"",""0.637"",""0.797""]","[0,1,1,1]",0,39,39,39,1,1,0,,,1,FALSE,,,,,,,,,,,,,,,,,,,,,,,,,,,,,,,
,61675e387230291cabc16e5c,627c6f89c4b340b9030cafe9,2022-05-11_19h41.19.187,classification_task,2021.2.3,Win32,60.0024001,627c6715c52fd12f31907bcf,,,,,,,,,,,,,,,,,,,,,,,a,1,1.509,"[""0.301"",""0.351"",""0.867"",""0.923""]","[1,0,1,1]",0,40,40,40,1,0,0,,,1,FALSE,,,,,,,,,,,,,,,,,,,,,,,,,,,,,,,
,61675e387230291cabc16e5c,627c6f89c4b340b9030cafe9,2022-05-11_19h41.19.187,classification_task,2021.2.3,Win32,60.0024001,627c6715c52fd12f31907bcf,,,,,,,,,,,,,,,,,,,,,,,l,1,2.3116,"[""0.153"",""0.251"",""0.472"",""0.344""]","[1,1,1,0]",0,41,41,41,1,1,1,,,1,FALSE,,,,,,,,,,,,,,,,,,,,,,,,,,,,,,,
,61675e387230291cabc16e5c,627c6f89c4b340b9030cafe9,2022-05-11_19h41.19.187,classification_task,2021.2.3,Win32,60.0024001,627c6715c52fd12f31907bcf,,,,,,,,,,,,,,,,,,,,,,,a,1,2.1478,"[""0.351"",""0.535"",""0.583"",""0.962""]","[0,1,1,1]",0,42,42,42,1,0,1,,,1,FALSE,,,,,,,,,,,,,,,,,,,,,,,,,,,,,,,
,61675e387230291cabc16e5c,627c6f89c4b340b9030cafe9,2022-05-11_19h41.19.187,classification_task,2021.2.3,Win32,60.0024001,627c6715c52fd12f31907bcf,,,,,,,,,,,,,,,,,,,,,,,l,0,2.0923,"[""0.206"",""0.535"",""0.583"",""0.055""]","[1,1,1,0]",0,43,43,43,1,0,1,,,1,FALSE,,,,,,,,,,,,,,,,,,,,,,,,,,,,,,,
,61675e387230291cabc16e5c,627c6f89c4b340b9030cafe9,2022-05-11_19h41.19.187,classification_task,2021.2.3,Win32,60.0024001,627c6715c52fd12f31907bcf,,,,,,,,,,,,,,,,,,,,,,,l,1,1.5145,"[""0.092"",""0.390"",""0.705"",""0.797""]","[1,1,0,1]",0,44,44,44,1,1,0,,,1,FALSE,,,,,,,,,,,,,,,,,,,,,,,,,,,,,,,
,61675e387230291cabc16e5c,627c6f89c4b340b9030cafe9,2022-05-11_19h41.19.187,classification_task,2021.2.3,Win32,60.0024001,627c6715c52fd12f31907bcf,,,,,,,,,,,,,,,,,,,,,,,l,0,2.0077,"[""0.301"",""0.431"",""0.867"",""0.044""]","[1,1,1,0]",0,45,45,45,1,0,0,,,1,FALSE,,,,,,,,,,,,,,,,,,,,,,,,,,,,,,,
,61675e387230291cabc16e5c,627c6f89c4b340b9030cafe9,2022-05-11_19h41.19.187,classification_task,2021.2.3,Win32,60.0024001,627c6715c52fd12f31907bcf,,,,,,,,,,,,,,,,,,,,,,,a,1,0.9588,"[""0.301"",""0.431"",""0.351"",""0.923""]","[1,1,0,1]",0,46,46,46,1,0,0,,,1,FALSE,,,,,,,,,,,,,,,,,,,,,,,,,,,,,,,
,61675e387230291cabc16e5c,627c6f89c4b340b9030cafe9,2022-05-11_19h41.19.187,classification_task,2021.2.3,Win32,60.0024001,627c6715c52fd12f31907bcf,,,,,,,,,,,,,,,,,,,,,,,a,1,0.6765,"[""0.673"",""0.431"",""0.867"",""0.923""]","[0,1,1,1]",0,47,47,47,1,0,0,,,1,FALSE,,,,,,,,,,,,,,,,,,,,,,,,,,,,,,,
,61675e387230291cabc16e5c,627c6f89c4b340b9030cafe9,2022-05-11_19h41.19.187,classification_task,2021.2.3,Win32,60.0024001,627c6715c52fd12f31907bcf,,,,,,,,,,,,,,,,,,,,,,,a,1,1.2472,"[""0.044"",""0.535"",""0.583"",""0.962""]","[0,1,1,1]",0,48,48,48,1,0,1,,,1,FALSE,,,,,,,,,,,,,,,,,,,,,,,,,,,,,,,
,61675e387230291cabc16e5c,627c6f89c4b340b9030cafe9,2022-05-11_19h41.19.187,classification_task,2021.2.3,Win32,60.0024001,627c6715c52fd12f31907bcf,,,,,,,,,,,,,,,,,,,,,,,a,1,1.283,"[""0.344"",""0.431"",""0.867"",""0.923""]","[0,1,1,1]",0,49,49,49,1,0,0,,,1,FALSE,,,,,,,,,,,,,,,,,,,,,,,,,,,,,,,
,61675e387230291cabc16e5c,627c6f89c4b340b9030cafe9,2022-05-11_19h41.19.187,classification_task,2021.2.3,Win32,60.0024001,627c6715c52fd12f31907bcf,,,,,,,,,,,,,,,,,,,,,,,l,1,1.0352,"[""0.092"",""0.390"",""0.637"",""0.675""]","[1,1,1,0]",0,50,50,50,1,1,0,,,1,FALSE,,,,,,,,,,,,,,,,,,,,,,,,,,,,,,,
,61675e387230291cabc16e5c,627c6f89c4b340b9030cafe9,2022-05-11_19h41.19.187,classification_task,2021.2.3,Win32,60.0024001,627c6715c52fd12f31907bcf,,,,,,,,,,,,,,,,,,,,,,,l,0,1.9896,"[""0.206"",""0.535"",""0.675"",""0.962""]","[1,1,0,1]",0,51,51,51,1,0,1,,,1,FALSE,,,,,,,,,,,,,,,,,,,,,,,,,,,,,,,
,61675e387230291cabc16e5c,627c6f89c4b340b9030cafe9,2022-05-11_19h41.19.187,classification_task,2021.2.3,Win32,60.0024001,627c6715c52fd12f31907bcf,,,,,,,,,,,,,,,,,,,,,,,a,1,1.1294,"[""0.301"",""0.675"",""0.867"",""0.923""]","[1,0,1,1]",0,52,52,52,1,0,0,,,1,FALSE,,,,,,,,,,,,,,,,,,,,,,,,,,,,,,,
,61675e387230291cabc16e5c,627c6f89c4b340b9030cafe9,2022-05-11_19h41.19.187,classification_task,2021.2.3,Win32,60.0024001,627c6715c52fd12f31907bcf,,,,,,,,,,,,,,,,,,,,,,,a,0,1.0205,"[""0.705"",""0.390"",""0.637"",""0.797""]","[0,1,1,1]",0,53,53,53,1,1,0,,,1,FALSE,,,,,,,,,,,,,,,,,,,,,,,,,,,,,,,
,61675e387230291cabc16e5c,627c6f89c4b340b9030cafe9,2022-05-11_19h41.19.187,classification_task,2021.2.3,Win32,60.0024001,627c6715c52fd12f31907bcf,,,,,,,,,,,,,,,,,,,,,,,a,1,1.112,"[""0.301"",""0.431"",""0.867"",""0.700""]","[1,1,1,0]",0,54,54,54,1,0,0,,,1,FALSE,,,,,,,,,,,,,,,,,,,,,,,,,,,,,,,
,61675e387230291cabc16e5c,627c6f89c4b340b9030cafe9,2022-05-11_19h41.19.187,classification_task,2021.2.3,Win32,60.0024001,627c6715c52fd12f31907bcf,,,,,,,,,,,,,,,,,,,,,,,l,0,1.9348,"[""0.301"",""0.431"",""0.042"",""0.923""]","[1,1,0,1]",0,55,55,55,1,0,0,,,1,FALSE,,,,,,,,,,,,,,,,,,,,,,,,,,,,,,,
,61675e387230291cabc16e5c,627c6f89c4b340b9030cafe9,2022-05-11_19h41.19.187,classification_task,2021.2.3,Win32,60.0024001,627c6715c52fd12f31907bcf,,,,,,,,,,,,,,,,,,,,,,,l,1,1.8916,"[""0.153"",""0.251"",""0.675"",""0.755""]","[1,1,0,1]",0,56,56,56,1,1,1,,,1,FALSE,,,,,,,,,,,,,,,,,,,,,,,,,,,,,,,
,61675e387230291cabc16e5c,627c6f89c4b340b9030cafe9,2022-05-11_19h41.19.187,classification_task,2021.2.3,Win32,60.0024001,627c6715c52fd12f31907bcf,,,,,,,,,,,,,,,,,,,,,,,l,1,1.2679,"[""0.092"",""0.055"",""0.637"",""0.797""]","[1,0,1,1]",0,57,57,57,1,1,0,,,1,FALSE,,,,,,,,,,,,,,,,,,,,,,,,,,,,,,,
,61675e387230291cabc16e5c,627c6f89c4b340b9030cafe9,2022-05-11_19h41.19.187,classification_task,2021.2.3,Win32,60.0024001,627c6715c52fd12f31907bcf,,,,,,,,,,,,,,,,,,,,,,,l,0,2.1482,"[""0.206"",""0.700"",""0.583"",""0.962""]","[1,0,1,1]",0,58,58,58,1,0,1,,,1,FALSE,,,,,,,,,,,,,,,,,,,,,,,,,,,,,,,
,61675e387230291cabc16e5c,627c6f89c4b340b9030cafe9,2022-05-11_19h41.19.187,classification_task,2021.2.3,Win32,60.0024001,627c6715c52fd12f31907bcf,,,,,,,,,,,,,,,,,,,,,,,l,1,1.8666,"[""0.675"",""0.251"",""0.472"",""0.755""]","[0,1,1,1]",0,59,59,59,1,1,1,,,1,FALSE,,,,,,,,,,,,,,,,,,,,,,,,,,,,,,,
,61675e387230291cabc16e5c,627c6f89c4b340b9030cafe9,2022-05-11_19h41.19.187,classification_task,2021.2.3,Win32,60.0024001,627c6715c52fd12f31907bcf,,,,,,,,,,,,,,,,,,,,,,,a,1,1.5574,"[""0.206"",""0.535"",""0.583"",""0.337""]","[1,1,1,0]",0,60,60,60,1,0,1,,,1,FALSE,,,,,,,,,,,,,,,,,,,,,,,,,,,,,,,
,61675e387230291cabc16e5c,627c6f89c4b340b9030cafe9,2022-05-11_19h41.19.187,classification_task,2021.2.3,Win32,60.0024001,627c6715c52fd12f31907bcf,,,,,,,,,,,,,,,,,,,,,,,l,1,1.4931,"[""0.092"",""0.390"",""0.705"",""0.797""]","[1,1,0,1]",0,61,61,61,1,1,0,,,1,FALSE,,,,,,,,,,,,,,,,,,,,,,,,,,,,,,,
,61675e387230291cabc16e5c,627c6f89c4b340b9030cafe9,2022-05-11_19h41.19.187,classification_task,2021.2.3,Win32,60.0024001,627c6715c52fd12f31907bcf,,,,,,,,,,,,,,,,,,,,,,,a,0,1.5014,"[""0.153"",""0.044"",""0.472"",""0.755""]","[1,0,1,1]",0,62,62,62,1,1,1,,,1,FALSE,,,,,,,,,,,,,,,,,,,,,,,,,,,,,,,
,61675e387230291cabc16e5c,627c6f89c4b340b9030cafe9,2022-05-11_19h41.19.187,classification_task,2021.2.3,Win32,60.0024001,627c6715c52fd12f31907bcf,,,,,,,,,,,,,,,,,,,,,,,l,1,1.3184,"[""0.153"",""0.251"",""0.472"",""0.351""]","[1,1,1,0]",0,63,63,63,1,1,1,,,1,FALSE,,,,,,,,,,,,,,,,,,,,,,,,,,,,,,,
,61675e387230291cabc16e5c,627c6f89c4b340b9030cafe9,2022-05-11_19h41.19.187,classification_task,2021.2.3,Win32,60.0024001,627c6715c52fd12f31907bcf,,,,,,,,,,,,,,,,,,,,,,,,,,,,,,,,,,,,,,,0, ,,0,4.689980159,262.0937,0,1,1,1,1,2,2,,,,,,,,,,,,,,,,,,
,61675e387230291cabc16e5c,627c6f89c4b340b9030cafe9,2022-05-11_19h41.19.187,classification_task,2021.2.3,Win32,60.0024001,627c6715c52fd12f31907bcf,,,,,,,,,,,,,,,,,,,,,,,,,,,,,,,,,,,,,,,1,  ,,0,10,255.6507,0,1,1,1,1,2,2,,,,,,,,,,,,,,,,,,
,61675e387230291cabc16e5c,627c6f89c4b340b9030cafe9,2022-05-11_19h41.19.187,classification_task,2021.2.3,Win32,60.0024001,627c6715c52fd12f31907bcf,,,,,,,,,,,,,,,,,,,,,,,,,,,,,,,,,,,,,,,2,  ,,0,7.445712081,250.2045,0,1,1,1,1,2,2,,,,,,,,,,,,,,,,,,
,61675e387230291cabc16e5c,627c6f89c4b340b9030cafe9,2022-05-11_19h41.19.187,classification_task,2021.2.3,Win32,60.0024001,627c6715c52fd12f31907bcf,,,,,,,,,,,,,,,,,,,,,,,,,,,,,,,,,,,,,,,,,,,,,0,1,1,1,1,,2,,,,,,,,,,,,,,,,,,
,61675e387230291cabc16e5c,627c6f89c4b340b9030cafe9,2022-05-11_19h41.19.187,classification_task,2021.2.3,Win32,60.0024001,627c6715c52fd12f31907bcf,,,,,,,,,,,,,,,,,,,,,space,21.0286,a,1,3.3988,"[""0.301"",""0.431"",""0.684"",""0.923""]","[1,1,0,1]",0,0,0,0,1,0,0,,,1,FALSE,,,,,,,,,,,,,,,,,,,,,,,,,,,,,,,
,61675e387230291cabc16e5c,627c6f89c4b340b9030cafe9,2022-05-11_19h41.19.187,classification_task,2021.2.3,Win32,60.0024001,627c6715c52fd12f31907bcf,,,,,,,,,,,,,,,,,,,,,,,a,1,1.713,"[""0.301"",""0.431"",""0.867"",""0.344""]","[1,1,1,0]",0,1,1,1,1,0,0,,,1,FALSE,,,,,,,,,,,,,,,,,,,,,,,,,,,,,,,
,61675e387230291cabc16e5c,627c6f89c4b340b9030cafe9,2022-05-11_19h41.19.187,classification_task,2021.2.3,Win32,60.0024001,627c6715c52fd12f31907bcf,,,,,,,,,,,,,,,,,,,,,,,l,1,2.3056,"[""0.153"",""0.251"",""0.700"",""0.755""]","[1,1,0,1]",0,2,2,2,1,1,1,,,1,FALSE,,,,,,,,,,,,,,,,,,,,,,,,,,,,,,,
,61675e387230291cabc16e5c,627c6f89c4b340b9030cafe9,2022-05-11_19h41.19.187,classification_task,2021.2.3,Win32,60.0024001,627c6715c52fd12f31907bcf,,,,,,,,,,,,,,,,,,,,,,,a,1,1.2424,"[""0.344"",""0.535"",""0.583"",""0.962""]","[0,1,1,1]",0,3,3,3,1,0,1,,,1,FALSE,,,,,,,,,,,,,,,,,,,,,,,,,,,,,,,
,61675e387230291cabc16e5c,627c6f89c4b340b9030cafe9,2022-05-11_19h41.19.187,classification_task,2021.2.3,Win32,60.0024001,627c6715c52fd12f31907bcf,,,,,,,,,,,,,,,,,,,,,,,l,0,1.3728,"[""0.206"",""0.535"",""0.042"",""0.962""]","[1,1,0,1]",0,4,4,4,1,0,1,,,1,FALSE,,,,,,,,,,,,,,,,,,,,,,,,,,,,,,,
,61675e387230291cabc16e5c,627c6f89c4b340b9030cafe9,2022-05-11_19h41.19.187,classification_task,2021.2.3,Win32,60.0024001,627c6715c52fd12f31907bcf,,,,,,,,,,,,,,,,,,,,,,,a,1,0.8379,"[""0.675"",""0.431"",""0.867"",""0.923""]","[0,1,1,1]",0,5,5,5,1,0,0,,,1,FALSE,,,,,,,,,,,,,,,,,,,,,,,,,,,,,,,
,61675e387230291cabc16e5c,627c6f89c4b340b9030cafe9,2022-05-11_19h41.19.187,classification_task,2021.2.3,Win32,60.0024001,627c6715c52fd12f31907bcf,,,,,,,,,,,,,,,,,,,,,,,a,1,0.9406,"[""0.301"",""0.673"",""0.867"",""0.923""]","[1,0,1,1]",0,6,6,6,1,0,0,,,1,FALSE,,,,,,,,,,,,,,,,,,,,,,,,,,,,,,,
,61675e387230291cabc16e5c,627c6f89c4b340b9030cafe9,2022-05-11_19h41.19.187,classification_task,2021.2.3,Win32,60.0024001,627c6715c52fd12f31907bcf,,,,,,,,,,,,,,,,,,,,,,,a,0,2.5184,"[""0.092"",""0.687"",""0.637"",""0.797""]","[1,0,1,1]",0,7,7,7,1,1,0,,,1,FALSE,,,,,,,,,,,,,,,,,,,,,,,,,,,,,,,
,61675e387230291cabc16e5c,627c6f89c4b340b9030cafe9,2022-05-11_19h41.19.187,classification_task,2021.2.3,Win32,60.0024001,627c6715c52fd12f31907bcf,,,,,,,,,,,,,,,,,,,,,,,l,1,0.89,"[""0.153"",""0.044"",""0.472"",""0.755""]","[1,0,1,1]",0,8,8,8,1,1,1,,,1,FALSE,,,,,,,,,,,,,,,,,,,,,,,,,,,,,,,
,61675e387230291cabc16e5c,627c6f89c4b340b9030cafe9,2022-05-11_19h41.19.187,classification_task,2021.2.3,Win32,60.0024001,627c6715c52fd12f31907bcf,,,,,,,,,,,,,,,,,,,,,,,l,1,1.382,"[""0.092"",""0.390"",""0.675"",""0.797""]","[1,1,0,1]",0,9,9,9,1,1,0,,,1,FALSE,,,,,,,,,,,,,,,,,,,,,,,,,,,,,,,
,61675e387230291cabc16e5c,627c6f89c4b340b9030cafe9,2022-05-11_19h41.19.187,classification_task,2021.2.3,Win32,60.0024001,627c6715c52fd12f31907bcf,,,,,,,,,,,,,,,,,,,,,,,l,1,0.869,"[""0.092"",""0.390"",""0.637"",""0.351""]","[1,1,1,0]",0,10,10,10,1,1,0,,,1,FALSE,,,,,,,,,,,,,,,,,,,,,,,,,,,,,,,
,61675e387230291cabc16e5c,627c6f89c4b340b9030cafe9,2022-05-11_19h41.19.187,classification_task,2021.2.3,Win32,60.0024001,627c6715c52fd12f31907bcf,,,,,,,,,,,,,,,,,,,,,,,l,1,0.7225,"[""0.153"",""0.251"",""0.472"",""0.044""]","[1,1,1,0]",0,11,11,11,1,1,1,,,1,FALSE,,,,,,,,,,,,,,,,,,,,,,,,,,,,,,,
,61675e387230291cabc16e5c,627c6f89c4b340b9030cafe9,2022-05-11_19h41.19.187,classification_task,2021.2.3,Win32,60.0024001,627c6715c52fd12f31907bcf,,,,,,,,,,,,,,,,,,,,,,,a,0,0.9478,"[""0.337"",""0.390"",""0.637"",""0.797""]","[0,1,1,1]",0,12,12,12,1,1,0,,,1,FALSE,,,,,,,,,,,,,,,,,,,,,,,,,,,,,,,
,61675e387230291cabc16e5c,627c6f89c4b340b9030cafe9,2022-05-11_19h41.19.187,classification_task,2021.2.3,Win32,60.0024001,627c6715c52fd12f31907bcf,,,,,,,,,,,,,,,,,,,,,,,l,1,2.491,"[""0.705"",""0.251"",""0.472"",""0.755""]","[0,1,1,1]",0,13,13,13,1,1,1,,,1,FALSE,,,,,,,,,,,,,,,,,,,,,,,,,,,,,,,
,61675e387230291cabc16e5c,627c6f89c4b340b9030cafe9,2022-05-11_19h41.19.187,classification_task,2021.2.3,Win32,60.0024001,627c6715c52fd12f31907bcf,,,,,,,,,,,,,,,,,,,,,,,l,0,0.7448,"[""0.206"",""0.535"",""0.583"",""0.351""]","[1,1,1,0]",0,14,14,14,1,0,1,,,1,FALSE,,,,,,,,,,,,,,,,,,,,,,,,,,,,,,,
,61675e387230291cabc16e5c,627c6f89c4b340b9030cafe9,2022-05-11_19h41.19.187,classification_task,2021.2.3,Win32,60.0024001,627c6715c52fd12f31907bcf,,,,,,,,,,,,,,,,,,,,,,,a,1,1.5946,"[""0.206"",""0.702"",""0.583"",""0.962""]","[1,0,1,1]",0,15,15,15,1,0,1,,,1,FALSE,,,,,,,,,,,,,,,,,,,,,,,,,,,,,,,
,61675e387230291cabc16e5c,627c6f89c4b340b9030cafe9,2022-05-11_19h41.19.187,classification_task,2021.2.3,Win32,60.0024001,627c6715c52fd12f31907bcf,,,,,,,,,,,,,,,,,,,,,,,l,1,1.5492,"[""0.092"",""0.351"",""0.637"",""0.797""]","[1,0,1,1]",0,16,16,16,1,1,0,,,1,FALSE,,,,,,,,,,,,,,,,,,,,,,,,,,,,,,,
,61675e387230291cabc16e5c,627c6f89c4b340b9030cafe9,2022-05-11_19h41.19.187,classification_task,2021.2.3,Win32,60.0024001,627c6715c52fd12f31907bcf,,,,,,,,,,,,,,,,,,,,,,,a,1,2.481,"[""0.206"",""0.535"",""0.044"",""0.962""]","[1,1,0,1]",0,17,17,17,1,0,1,,,1,FALSE,,,,,,,,,,,,,,,,,,,,,,,,,,,,,,,
,61675e387230291cabc16e5c,627c6f89c4b340b9030cafe9,2022-05-11_19h41.19.187,classification_task,2021.2.3,Win32,60.0024001,627c6715c52fd12f31907bcf,,,,,,,,,,,,,,,,,,,,,,,l,0,1.2453,"[""0.206"",""0.535"",""0.583"",""0.700""]","[1,1,1,0]",0,18,18,18,1,0,1,,,1,FALSE,,,,,,,,,,,,,,,,,,,,,,,,,,,,,,,
,61675e387230291cabc16e5c,627c6f89c4b340b9030cafe9,2022-05-11_19h41.19.187,classification_task,2021.2.3,Win32,60.0024001,627c6715c52fd12f31907bcf,,,,,,,,,,,,,,,,,,,,,,,a,1,0.9065,"[""0.301"",""0.431"",""0.867"",""0.705""]","[1,1,1,0]",0,19,19,19,1,0,0,,,1,FALSE,,,,,,,,,,,,,,,,,,,,,,,,,,,,,,,
,61675e387230291cabc16e5c,627c6f89c4b340b9030cafe9,2022-05-11_19h41.19.187,classification_task,2021.2.3,Win32,60.0024001,627c6715c52fd12f31907bcf,,,,,,,,,,,,,,,,,,,,,,,a,1,0.9282,"[""0.351"",""0.535"",""0.583"",""0.962""]","[0,1,1,1]",0,20,20,20,1,0,1,,,1,FALSE,,,,,,,,,,,,,,,,,,,,,,,,,,,,,,,
,61675e387230291cabc16e5c,627c6f89c4b340b9030cafe9,2022-05-11_19h41.19.187,classification_task,2021.2.3,Win32,60.0024001,627c6715c52fd12f31907bcf,,,,,,,,,,,,,,,,,,,,,,,l,1,0.7273,"[""0.092"",""0.390"",""0.637"",""0.351""]","[1,1,1,0]",0,21,21,21,1,1,0,,,1,FALSE,,,,,,,,,,,,,,,,,,,,,,,,,,,,,,,
,61675e387230291cabc16e5c,627c6f89c4b340b9030cafe9,2022-05-11_19h41.19.187,classification_task,2021.2.3,Win32,60.0024001,627c6715c52fd12f31907bcf,,,,,,,,,,,,,,,,,,,,,,,a,1,1.4497,"[""0.206"",""0.700"",""0.583"",""0.962""]","[1,0,1,1]",0,22,22,22,1,0,1,,,1,FALSE,,,,,,,,,,,,,,,,,,,,,,,,,,,,,,,
,61675e387230291cabc16e5c,627c6f89c4b340b9030cafe9,2022-05-11_19h41.19.187,classification_task,2021.2.3,Win32,60.0024001,627c6715c52fd12f31907bcf,,,,,,,,,,,,,,,,,,,,,,,a,0,2.82,"[""0.153"",""0.251"",""0.042"",""0.755""]","[1,1,0,1]",0,23,23,23,1,1,1,,,1,FALSE,,,,,,,,,,,,,,,,,,,,,,,,,,,,,,,
,61675e387230291cabc16e5c,627c6f89c4b340b9030cafe9,2022-05-11_19h41.19.187,classification_task,2021.2.3,Win32,60.0024001,627c6715c52fd12f31907bcf,,,,,,,,,,,,,,,,,,,,,,,l,1,1.7936,"[""0.153"",""0.684"",""0.472"",""0.755""]","[1,0,1,1]",0,24,24,24,1,1,1,,,1,FALSE,,,,,,,,,,,,,,,,,,,,,,,,,,,,,,,
,61675e387230291cabc16e5c,627c6f89c4b340b9030cafe9,2022-05-11_19h41.19.187,classification_task,2021.2.3,Win32,60.0024001,627c6715c52fd12f31907bcf,,,,,,,,,,,,,,,,,,,,,,,l,1,0.6472,"[""0.153"",""0.251"",""0.472"",""0.055""]","[1,1,1,0]",0,25,25,25,1,1,1,,,1,FALSE,,,,,,,,,,,,,,,,,,,,,,,,,,,,,,,
,61675e387230291cabc16e5c,627c6f89c4b340b9030cafe9,2022-05-11_19h41.19.187,classification_task,2021.2.3,Win32,60.0024001,627c6715c52fd12f31907bcf,,,,,,,,,,,,,,,,,,,,,,,a,0,0.738,"[""0.684"",""0.390"",""0.637"",""0.797""]","[0,1,1,1]",0,26,26,26,1,1,0,,,1,FALSE,,,,,,,,,,,,,,,,,,,,,,,,,,,,,,,
,61675e387230291cabc16e5c,627c6f89c4b340b9030cafe9,2022-05-11_19h41.19.187,classification_task,2021.2.3,Win32,60.0024001,627c6715c52fd12f31907bcf,,,,,,,,,,,,,,,,,,,,,,,a,0,1.4372,"[""0.675"",""0.251"",""0.472"",""0.755""]","[0,1,1,1]",0,27,27,27,1,1,1,,,1,FALSE,,,,,,,,,,,,,,,,,,,,,,,,,,,,,,,
,61675e387230291cabc16e5c,627c6f89c4b340b9030cafe9,2022-05-11_19h41.19.187,classification_task,2021.2.3,Win32,60.0024001,627c6715c52fd12f31907bcf,,,,,,,,,,,,,,,,,,,,,,,a,1,1.7058,"[""0.337"",""0.431"",""0.867"",""0.923""]","[0,1,1,1]",0,28,28,28,1,0,0,,,1,FALSE,,,,,,,,,,,,,,,,,,,,,,,,,,,,,,,
,61675e387230291cabc16e5c,627c6f89c4b340b9030cafe9,2022-05-11_19h41.19.187,classification_task,2021.2.3,Win32,60.0024001,627c6715c52fd12f31907bcf,,,,,,,,,,,,,,,,,,,,,,,a,1,0.7158,"[""0.301"",""0.431"",""0.687"",""0.923""]","[1,1,0,1]",0,29,29,29,1,0,0,,,1,FALSE,,,,,,,,,,,,,,,,,,,,,,,,,,,,,,,
,61675e387230291cabc16e5c,627c6f89c4b340b9030cafe9,2022-05-11_19h41.19.187,classification_task,2021.2.3,Win32,60.0024001,627c6715c52fd12f31907bcf,,,,,,,,,,,,,,,,,,,,,,,l,1,2.1969,"[""0.092"",""0.390"",""0.351"",""0.797""]","[1,1,0,1]",0,30,30,30,1,1,0,,,1,FALSE,,,,,,,,,,,,,,,,,,,,,,,,,,,,,,,
,61675e387230291cabc16e5c,627c6f89c4b340b9030cafe9,2022-05-11_19h41.19.187,classification_task,2021.2.3,Win32,60.0024001,627c6715c52fd12f31907bcf,,,,,,,,,,,,,,,,,,,,,,,a,1,0.9167,"[""0.301"",""0.700"",""0.867"",""0.923""]","[1,0,1,1]",0,31,31,31,1,0,0,,,1,FALSE,,,,,,,,,,,,,,,,,,,,,,,,,,,,,,,
,61675e387230291cabc16e5c,627c6f89c4b340b9030cafe9,2022-05-11_19h41.19.187,classification_task,2021.2.3,Win32,60.0024001,627c6715c52fd12f31907bcf,,,,,,,,,,,,,,,,,,,,,,,l,0,1.617,"[""0.301"",""0.431"",""0.044"",""0.923""]","[1,1,0,1]",0,32,32,32,1,0,0,,,1,FALSE,,,,,,,,,,,,,,,,,,,,,,,,,,,,,,,
,61675e387230291cabc16e5c,627c6f89c4b340b9030cafe9,2022-05-11_19h41.19.187,classification_task,2021.2.3,Win32,60.0024001,627c6715c52fd12f31907bcf,,,,,,,,,,,,,,,,,,,,,,,l,1,1.4168,"[""0.153"",""0.344"",""0.472"",""0.755""]","[1,0,1,1]",0,33,33,33,1,1,1,,,1,FALSE,,,,,,,,,,,,,,,,,,,,,,,,,,,,,,,
,61675e387230291cabc16e5c,627c6f89c4b340b9030cafe9,2022-05-11_19h41.19.187,classification_task,2021.2.3,Win32,60.0024001,627c6715c52fd12f31907bcf,,,,,,,,,,,,,,,,,,,,,,,l,0,1.1251,"[""0.206"",""0.535"",""0.583"",""0.044""]","[1,1,1,0]",0,34,34,34,1,0,1,,,1,FALSE,,,,,,,,,,,,,,,,,,,,,,,,,,,,,,,
,61675e387230291cabc16e5c,627c6f89c4b340b9030cafe9,2022-05-11_19h41.19.187,classification_task,2021.2.3,Win32,60.0024001,627c6715c52fd12f31907bcf,,,,,,,,,,,,,,,,,,,,,,,a,1,0.7168,"[""0.675"",""0.431"",""0.867"",""0.923""]","[0,1,1,1]",0,35,35,35,1,0,0,,,1,FALSE,,,,,,,,,,,,,,,,,,,,,,,,,,,,,,,
,61675e387230291cabc16e5c,627c6f89c4b340b9030cafe9,2022-05-11_19h41.19.187,classification_task,2021.2.3,Win32,60.0024001,627c6715c52fd12f31907bcf,,,,,,,,,,,,,,,,,,,,,,,a,0,2.0559,"[""0.092"",""0.390"",""0.044"",""0.797""]","[1,1,0,1]",0,36,36,36,1,1,0,,,1,FALSE,,,,,,,,,,,,,,,,,,,,,,,,,,,,,,,
,61675e387230291cabc16e5c,627c6f89c4b340b9030cafe9,2022-05-11_19h41.19.187,classification_task,2021.2.3,Win32,60.0024001,627c6715c52fd12f31907bcf,,,,,,,,,,,,,,,,,,,,,,,a,0,0.8982,"[""0.700"",""0.390"",""0.637"",""0.797""]","[0,1,1,1]",0,37,37,37,1,1,0,,,1,FALSE,,,,,,,,,,,,,,,,,,,,,,,,,,,,,,,
,61675e387230291cabc16e5c,627c6f89c4b340b9030cafe9,2022-05-11_19h41.19.187,classification_task,2021.2.3,Win32,60.0024001,627c6715c52fd12f31907bcf,,,,,,,,,,,,,,,,,,,,,,,l,0,1.3082,"[""0.206"",""0.042"",""0.583"",""0.962""]","[1,0,1,1]",0,38,38,38,1,0,1,,,1,FALSE,,,,,,,,,,,,,,,,,,,,,,,,,,,,,,,
,61675e387230291cabc16e5c,627c6f89c4b340b9030cafe9,2022-05-11_19h41.19.187,classification_task,2021.2.3,Win32,60.0024001,627c6715c52fd12f31907bcf,,,,,,,,,,,,,,,,,,,,,,,l,0,1.8616,"[""0.042"",""0.535"",""0.583"",""0.962""]","[0,1,1,1]",0,39,39,39,1,0,1,,,1,FALSE,,,,,,,,,,,,,,,,,,,,,,,,,,,,,,,
,61675e387230291cabc16e5c,627c6f89c4b340b9030cafe9,2022-05-11_19h41.19.187,classification_task,2021.2.3,Win32,60.0024001,627c6715c52fd12f31907bcf,,,,,,,,,,,,,,,,,,,,,,,a,0,0.9568,"[""0.337"",""0.251"",""0.472"",""0.755""]","[0,1,1,1]",0,40,40,40,1,1,1,,,1,FALSE,,,,,,,,,,,,,,,,,,,,,,,,,,,,,,,
,61675e387230291cabc16e5c,627c6f89c4b340b9030cafe9,2022-05-11_19h41.19.187,classification_task,2021.2.3,Win32,60.0024001,627c6715c52fd12f31907bcf,,,,,,,,,,,,,,,,,,,,,,,l,1,1.9933,"[""0.092"",""0.687"",""0.637"",""0.797""]","[1,0,1,1]",0,41,41,41,1,1,0,,,1,FALSE,,,,,,,,,,,,,,,,,,,,,,,,,,,,,,,
,61675e387230291cabc16e5c,627c6f89c4b340b9030cafe9,2022-05-11_19h41.19.187,classification_task,2021.2.3,Win32,60.0024001,627c6715c52fd12f31907bcf,,,,,,,,,,,,,,,,,,,,,,,a,1,1.6965,"[""0.206"",""0.535"",""0.351"",""0.962""]","[1,1,0,1]",0,42,42,42,1,0,1,,,1,FALSE,,,,,,,,,,,,,,,,,,,,,,,,,,,,,,,
,61675e387230291cabc16e5c,627c6f89c4b340b9030cafe9,2022-05-11_19h41.19.187,classification_task,2021.2.3,Win32,60.0024001,627c6715c52fd12f31907bcf,,,,,,,,,,,,,,,,,,,,,,,l,1,1.6082,"[""0.153"",""0.251"",""0.055"",""0.755""]","[1,1,0,1]",0,43,43,43,1,1,1,,,1,FALSE,,,,,,,,,,,,,,,,,,,,,,,,,,,,,,,
,61675e387230291cabc16e5c,627c6f89c4b340b9030cafe9,2022-05-11_19h41.19.187,classification_task,2021.2.3,Win32,60.0024001,627c6715c52fd12f31907bcf,,,,,,,,,,,,,,,,,,,,,,,a,1,1.3318,"[""0.301"",""0.344"",""0.867"",""0.923""]","[1,0,1,1]",0,44,44,44,1,0,0,,,1,FALSE,,,,,,,,,,,,,,,,,,,,,,,,,,,,,,,
,61675e387230291cabc16e5c,627c6f89c4b340b9030cafe9,2022-05-11_19h41.19.187,classification_task,2021.2.3,Win32,60.0024001,627c6715c52fd12f31907bcf,,,,,,,,,,,,,,,,,,,,,,,l,0,1.6584,"[""0.301"",""0.431"",""0.867"",""0.042""]","[1,1,1,0]",0,45,45,45,1,0,0,,,1,FALSE,,,,,,,,,,,,,,,,,,,,,,,,,,,,,,,
,61675e387230291cabc16e5c,627c6f89c4b340b9030cafe9,2022-05-11_19h41.19.187,classification_task,2021.2.3,Win32,60.0024001,627c6715c52fd12f31907bcf,,,,,,,,,,,,,,,,,,,,,,,l,1,0.7885,"[""0.092"",""0.390"",""0.637"",""0.687""]","[1,1,1,0]",0,46,46,46,1,1,0,,,1,FALSE,,,,,,,,,,,,,,,,,,,,,,,,,,,,,,,
,61675e387230291cabc16e5c,627c6f89c4b340b9030cafe9,2022-05-11_19h41.19.187,classification_task,2021.2.3,Win32,60.0024001,627c6715c52fd12f31907bcf,,,,,,,,,,,,,,,,,,,,,,,l,1,0.9692,"[""0.153"",""0.251"",""0.472"",""0.351""]","[1,1,1,0]",0,47,47,47,1,1,1,,,1,FALSE,,,,,,,,,,,,,,,,,,,,,,,,,,,,,,,
,61675e387230291cabc16e5c,627c6f89c4b340b9030cafe9,2022-05-11_19h41.19.187,classification_task,2021.2.3,Win32,60.0024001,627c6715c52fd12f31907bcf,,,,,,,,,,,,,,,,,,,,,,,a,1,2.1296,"[""0.206"",""0.055"",""0.583"",""0.962""]","[1,0,1,1]",0,48,48,48,1,0,1,,,1,FALSE,,,,,,,,,,,,,,,,,,,,,,,,,,,,,,,
,61675e387230291cabc16e5c,627c6f89c4b340b9030cafe9,2022-05-11_19h41.19.187,classification_task,2021.2.3,Win32,60.0024001,627c6715c52fd12f31907bcf,,,,,,,,,,,,,,,,,,,,,,,l,1,0.7819,"[""0.092"",""0.390"",""0.637"",""0.055""]","[1,1,1,0]",0,49,49,49,1,1,0,,,1,FALSE,,,,,,,,,,,,,,,,,,,,,,,,,,,,,,,
,61675e387230291cabc16e5c,627c6f89c4b340b9030cafe9,2022-05-11_19h41.19.187,classification_task,2021.2.3,Win32,60.0024001,627c6715c52fd12f31907bcf,,,,,,,,,,,,,,,,,,,,,,,l,0,2.2049,"[""0.206"",""0.535"",""0.583"",""0.344""]","[1,1,1,0]",0,50,50,50,1,0,1,,,1,FALSE,,,,,,,,,,,,,,,,,,,,,,,,,,,,,,,
,61675e387230291cabc16e5c,627c6f89c4b340b9030cafe9,2022-05-11_19h41.19.187,classification_task,2021.2.3,Win32,60.0024001,627c6715c52fd12f31907bcf,,,,,,,,,,,,,,,,,,,,,,,l,1,1.4846,"[""0.092"",""0.042"",""0.637"",""0.797""]","[1,0,1,1]",0,51,51,51,1,1,0,,,1,FALSE,,,,,,,,,,,,,,,,,,,,,,,,,,,,,,,
,61675e387230291cabc16e5c,627c6f89c4b340b9030cafe9,2022-05-11_19h41.19.187,classification_task,2021.2.3,Win32,60.0024001,627c6715c52fd12f31907bcf,,,,,,,,,,,,,,,,,,,,,,,a,1,0.6887,"[""0.684"",""0.431"",""0.867"",""0.923""]","[0,1,1,1]",0,52,52,52,1,0,0,,,1,FALSE,,,,,,,,,,,,,,,,,,,,,,,,,,,,,,,
,61675e387230291cabc16e5c,627c6f89c4b340b9030cafe9,2022-05-11_19h41.19.187,classification_task,2021.2.3,Win32,60.0024001,627c6715c52fd12f31907bcf,,,,,,,,,,,,,,,,,,,,,,,a,1,0.7415,"[""0.301"",""0.431"",""0.684"",""0.923""]","[1,1,0,1]",0,53,53,53,1,0,0,,,1,FALSE,,,,,,,,,,,,,,,,,,,,,,,,,,,,,,,
,61675e387230291cabc16e5c,627c6f89c4b340b9030cafe9,2022-05-11_19h41.19.187,classification_task,2021.2.3,Win32,60.0024001,627c6715c52fd12f31907bcf,,,,,,,,,,,,,,,,,,,,,,,l,1,1.6069,"[""0.153"",""0.251"",""0.472"",""0.702""]","[1,1,1,0]",0,54,54,54,1,1,1,,,1,FALSE,,,,,,,,,,,,,,,,,,,,,,,,,,,,,,,
,61675e387230291cabc16e5c,627c6f89c4b340b9030cafe9,2022-05-11_19h41.19.187,classification_task,2021.2.3,Win32,60.0024001,627c6715c52fd12f31907bcf,,,,,,,,,,,,,,,,,,,,,,,a,0,0.7361,"[""0.351"",""0.390"",""0.637"",""0.797""]","[0,1,1,1]",0,55,55,55,1,1,0,,,1,FALSE,,,,,,,,,,,,,,,,,,,,,,,,,,,,,,,
,61675e387230291cabc16e5c,627c6f89c4b340b9030cafe9,2022-05-11_19h41.19.187,classification_task,2021.2.3,Win32,60.0024001,627c6715c52fd12f31907bcf,,,,,,,,,,,,,,,,,,,,,,,a,1,1.2197,"[""0.351"",""0.535"",""0.583"",""0.962""]","[0,1,1,1]",0,56,56,56,1,0,1,,,1,FALSE,,,,,,,,,,,,,,,,,,,,,,,,,,,,,,,
,61675e387230291cabc16e5c,627c6f89c4b340b9030cafe9,2022-05-11_19h41.19.187,classification_task,2021.2.3,Win32,60.0024001,627c6715c52fd12f31907bcf,,,,,,,,,,,,,,,,,,,,,,,a,1,1.352,"[""0.301"",""0.431"",""0.867"",""0.337""]","[1,1,1,0]",0,57,57,57,1,0,0,,,1,FALSE,,,,,,,,,,,,,,,,,,,,,,,,,,,,,,,
,61675e387230291cabc16e5c,627c6f89c4b340b9030cafe9,2022-05-11_19h41.19.187,classification_task,2021.2.3,Win32,60.0024001,627c6715c52fd12f31907bcf,,,,,,,,,,,,,,,,,,,,,,,l,1,1.5458,"[""0.153"",""0.344"",""0.472"",""0.755""]","[1,0,1,1]",0,58,58,58,1,1,1,,,1,FALSE,,,,,,,,,,,,,,,,,,,,,,,,,,,,,,,
,61675e387230291cabc16e5c,627c6f89c4b340b9030cafe9,2022-05-11_19h41.19.187,classification_task,2021.2.3,Win32,60.0024001,627c6715c52fd12f31907bcf,,,,,,,,,,,,,,,,,,,,,,,a,1,3.0342,"[""0.301"",""0.044"",""0.867"",""0.923""]","[1,0,1,1]",0,59,59,59,1,0,0,,,1,FALSE,,,,,,,,,,,,,,,,,,,,,,,,,,,,,,,
,61675e387230291cabc16e5c,627c6f89c4b340b9030cafe9,2022-05-11_19h41.19.187,classification_task,2021.2.3,Win32,60.0024001,627c6715c52fd12f31907bcf,,,,,,,,,,,,,,,,,,,,,,,l,1,2.1033,"[""0.673"",""0.251"",""0.472"",""0.755""]","[0,1,1,1]",0,60,60,60,1,1,1,,,1,FALSE,,,,,,,,,,,,,,,,,,,,,,,,,,,,,,,
,61675e387230291cabc16e5c,627c6f89c4b340b9030cafe9,2022-05-11_19h41.19.187,classification_task,2021.2.3,Win32,60.0024001,627c6715c52fd12f31907bcf,,,,,,,,,,,,,,,,,,,,,,,l,1,1.7498,"[""0.092"",""0.390"",""0.042"",""0.797""]","[1,1,0,1]",0,61,61,61,1,1,0,,,1,FALSE,,,,,,,,,,,,,,,,,,,,,,,,,,,,,,,
,61675e387230291cabc16e5c,627c6f89c4b340b9030cafe9,2022-05-11_19h41.19.187,classification_task,2021.2.3,Win32,60.0024001,627c6715c52fd12f31907bcf,,,,,,,,,,,,,,,,,,,,,,,l,1,1.8099,"[""0.153"",""0.251"",""0.705"",""0.755""]","[1,1,0,1]",0,62,62,62,1,1,1,,,1,FALSE,,,,,,,,,,,,,,,,,,,,,,,,,,,,,,,
,61675e387230291cabc16e5c,627c6f89c4b340b9030cafe9,2022-05-11_19h41.19.187,classification_task,2021.2.3,Win32,60.0024001,627c6715c52fd12f31907bcf,,,,,,,,,,,,,,,,,,,,,,,a,1,2.3593,"[""0.206"",""0.535"",""0.344"",""0.962""]","[1,1,0,1]",0,63,63,63,1,0,1,,,1,FALSE,,,,,,,,,,,,,,,,,,,,,,,,,,,,,,,
,61675e387230291cabc16e5c,627c6f89c4b340b9030cafe9,2022-05-11_19h41.19.187,classification_task,2021.2.3,Win32,60.0024001,627c6715c52fd12f31907bcf,,,,,,,,,,,,,,,,,,,,,,,,,,,,,,,,,,,,,,,0, ,,0,2.382054674,208.5046,0,2,2,2,1,2,3,,,,,,,,,,,,,,,,,,
,61675e387230291cabc16e5c,627c6f89c4b340b9030cafe9,2022-05-11_19h41.19.187,classification_task,2021.2.3,Win32,60.0024001,627c6715c52fd12f31907bcf,,,,,,,,,,,,,,,,,,,,,,,,,,,,,,,,,,,,,,,1,  ,,0,10,199.6158,0,2,2,2,1,2,3,,,,,,,,,,,,,,,,,,
,61675e387230291cabc16e5c,627c6f89c4b340b9030cafe9,2022-05-11_19h41.19.187,classification_task,2021.2.3,Win32,60.0024001,627c6715c52fd12f31907bcf,,,,,,,,,,,,,,,,,,,,,,,,,,,,,,,,,,,,,,,2,  ,,0,10,201.5744,0,2,2,2,1,2,3,,,,,,,,,,,,,,,,,,
,61675e387230291cabc16e5c,627c6f89c4b340b9030cafe9,2022-05-11_19h41.19.187,classification_task,2021.2.3,Win32,60.0024001,627c6715c52fd12f31907bcf,,,,,,,,,,,,,,,,,,,,,,,,,,,,,,,,,,,,,,,,,,,,,0,2,2,2,1,,3,,,,,,,,,,,,,,,,,,
,61675e387230291cabc16e5c,627c6f89c4b340b9030cafe9,2022-05-11_19h41.19.187,classification_task,2021.2.3,Win32,60.0024001,627c6715c52fd12f31907bcf,,,,,,,,,,,,,,,,,,,,,,,,,,,,,,,,,,,,,,,,,,,,,,,,,,,,,I believe the aid is a competent performer,,0.7,0,2,1143.4996,0,0,0,0,1,0,,,,,
,61675e387230291cabc16e5c,627c6f89c4b340b9030cafe9,2022-05-11_19h41.19.187,classification_task,2021.2.3,Win32,60.0024001,627c6715c52fd12f31907bcf,,,,,,,,,,,,,,,,,,,,,,,,,,,,,,,,,,,,,,,,,,,,,,,,,,,,,I trust the aid,,0.7,0,2,1146.3692,0,0,0,0,1,0,,,,,
,61675e387230291cabc16e5c,627c6f89c4b340b9030cafe9,2022-05-11_19h41.19.187,classification_task,2021.2.3,Win32,60.0024001,627c6715c52fd12f31907bcf,,,,,,,,,,,,,,,,,,,,,,,,,,,,,,,,,,,,,,,,,,,,,,,,,,,,,I have confidence in the advice given by the aid,,0.7,0,2,1154.3732,0,0,0,0,1,0,,,,,
,61675e387230291cabc16e5c,627c6f89c4b340b9030cafe9,2022-05-11_19h41.19.187,classification_task,2021.2.3,Win32,60.0024001,627c6715c52fd12f31907bcf,,,,,,,,,,,,,,,,,,,,,,,,,,,,,,,,,,,,,,,,,,,,,,,,,,,,,I can depend on the aid,,0.7,0,2,1158.6209,0,0,0,0,1,0,,,,,
,61675e387230291cabc16e5c,627c6f89c4b340b9030cafe9,2022-05-11_19h41.19.187,classification_task,2021.2.3,Win32,60.0024001,627c6715c52fd12f31907bcf,,,,,,,,,,,,,,,,,,,,,,,,,,,,,,,,,,,,,,,,,,,,,,,,,,,,,I can rely on the aid to behave in consistent ways,,0.7,0,1,1166.0206,0,0,0,0,1,0,,,,,
,61675e387230291cabc16e5c,627c6f89c4b340b9030cafe9,2022-05-11_19h41.19.187,classification_task,2021.2.3,Win32,60.0024001,627c6715c52fd12f31907bcf,,,,,,,,,,,,,,,,,,,,,,,,,,,,,,,,,,,,,,,,,,,,,,,,,,,,,I can rely on the aid to do its best every time I take its advice,,0.7,0,3,1173.3424,0,0,0,0,1,0,,,,,
,61675e387230291cabc16e5c,627c6f89c4b340b9030cafe9,2022-05-11_19h41.19.187,classification_task,2021.2.3,Win32,60.0024001,627c6715c52fd12f31907bcf,,,,,,,,,,,,,,,,,,,,,,,,,,,,,,,,,,,,,,,,,,,,,,,,,,,,,"On trials you completed with assistance from the aid, how frequently did you think the aid was correct?",,0.7,0,60%,,0,0,0,0,1,0,,,,,
,61675e387230291cabc16e5c,627c6f89c4b340b9030cafe9,2022-05-11_19h41.19.187,classification_task,2021.2.3,Win32,60.0024001,627c6715c52fd12f31907bcf,,,,,,,,,,,,,,,,,,,,,,,,,,,,,,,,,,,,,,,,,,,,,,,,,,,,,"On trials you completed without the aid, how frequently did you think you were correct?",,0.7,0,40%,,0,0,0,0,1,0,,,,,
,61675e387230291cabc16e5c,627c6f89c4b340b9030cafe9,2022-05-11_19h41.19.187,classification_task,2021.2.3,Win32,60.0024001,627c6715c52fd12f31907bcf,,,,,,,,,,,,,,,,,,,,,,,,,,,,,,,,,,,,,,,,,,,,,,,,,,,,,,,,,,,0,0,0,0,1,,,,,,
,61675e387230291cabc16e5c,627c6f89c4b340b9030cafe9,2022-05-11_19h41.19.187,classification_task,2021.2.3,Win32,60.0024001,627c6715c52fd12f31907bcf,,,,,,,,,,,,,,,,,,,,,,,,,,,,,,,,,,,,,,,,,,,,,,,,,,,,,,,,,,,,,,,,,space,31.2182,1264.1753,,
,61675e387230291cabc16e5c,627c6f89c4b340b9030cafe9,2022-05-11_19h41.19.187,classification_task,2021.2.3,Win32,60.0024001,627c6715c52fd12f31907bcf,,,,,,,,,,,,,,,,,,,,,,,,,,,,,,,,,,,,,,,,,,,,,,,,,,,,,,,,,,,,,,,,,,,,"Mozilla/5.0 (Windows NT 10.0; Win64; x64) AppleWebKit/537.36 (KHTML, like Gecko) Chrome/99.0.4844.84 Safari/537.36 OPR/85.0.4341.75 (Edition utorrent)",
,61675e387230291cabc16e5c,627c6f89c4b340b9030cafe9,2022-05-11_19h41.19.187,classification_task,2021.2.3,Win32,60.0024001,627c6715c52fd12f31907bcf,,,,,,,,,,,,,,,,,,,,,,,,,,,,,,,,,,,,,,,,,,,,,,,,,,,,,,,,,,,,,,,,,,,,,LOWLIGHT
