usingWebGL,participant,session,date,expName,psychopyVersion,OS,frameRate,study_id,signatures_friend,signatures_foe,band_ranges_top,band_ranges_bottom,formitemText,formtype,formundefined,formitemWidth,formindex,formresponse,formrt,key_resp_2.keys,key_resp_2.rt,tute_resp.keys,tute_resp.rt,tutorial.thisRepN,tutorial.thisTrialN,tutorial.thisN,tutorial.thisIndex,tutorial.ran,key_resp_4.keys,key_resp_4.rt,key_resp.keys,key_resp.corr,key_resp.rt,lines_presented,is_signal_presented,trials.thisRepN,trials.thisTrialN,trials.thisN,trials.thisIndex,trials.ran,vessel,active_band,lines,is_signal,supported_pos,catch_trial,debrief_formindex,debrief_formitemText,debrief_formtype,debrief_formitemWidth,debrief_formresponse,debrief_formrt,phases.thisRepN,phases.thisTrialN,phases.thisN,phases.thisIndex,phases.ran,phases.order,phase,key_resp_3.keys,trustitemText,trusttype,trustitemWidth,trustindex,trustresponse,trustrt,support_status.thisRepN,support_status.thisTrialN,support_status.thisN,support_status.thisIndex,support_status.ran,support_status.order,key_resp_5.keys,key_resp_5.rt,globalClockTime,userAgent,manualCondition
TRUE,61688a0ab42065563b1214d6,627c76724b251e97ee0dd0b8,2022-05-12_04h53.21.096,classification_task,2021.2.3,Win32,58.86508123,627c6715c52fd12f31907bd0,,,,,,,,,,,,,,,,,,,,,,,,,,,,,,,,,,,,,,,,,,,,,,,,,,,,,,,,,,,,,,,,,,,,,
,61688a0ab42065563b1214d6,627c76724b251e97ee0dd0b8,2022-05-12_04h53.21.096,classification_task,2021.2.3,Win32,58.86508123,627c6715c52fd12f31907bd0,"[[""0.190"",""0.482"",""0.720"",""0.964""],[""0.318"",""0.447"",""0.876"",""0.911""]]","[[""0.081"",""0.253"",""0.524"",""0.766""],[""0.139"",""0.378"",""0.583"",""0.842""]]","[1,10]","[100,1000]",Video game experience,,,0.7,0,,,,,,,,,,,,,,,,,,,,,,,,,,,,,,,,,,,,,,,,,,,,,,,,,,,,,,,,,,,,
,61688a0ab42065563b1214d6,627c76724b251e97ee0dd0b8,2022-05-12_04h53.21.096,classification_task,2021.2.3,Win32,58.86508123,627c6715c52fd12f31907bd0,,,,,Approximately how many hours did you spend playing video games in the last week?,,,0.7,0,48,,,,,,,,,,,,,,,,,,,,,,,,,,,,,,,,,,,,,,,,,,,,,,,,,,,,,,,,,,,
,61688a0ab42065563b1214d6,627c76724b251e97ee0dd0b8,2022-05-12_04h53.21.096,classification_task,2021.2.3,Win32,58.86508123,627c6715c52fd12f31907bd0,,,,,"Which game did you play the most this year? (Enter ""None"" if you didn't play any)",,,0.7,0,Fifa,,,,,,,,,,,,,,,,,,,,,,,,,,,,,,,,,,,,,,,,,,,,,,,,,,,,,,,,,,,
,61688a0ab42065563b1214d6,627c76724b251e97ee0dd0b8,2022-05-12_04h53.21.096,classification_task,2021.2.3,Win32,58.86508123,627c6715c52fd12f31907bd0,,,,,Visual perception,,,0.7,0,,,,,,,,,,,,,,,,,,,,,,,,,,,,,,,,,,,,,,,,,,,,,,,,,,,,,,,,,,,,
,61688a0ab42065563b1214d6,627c76724b251e97ee0dd0b8,2022-05-12_04h53.21.096,classification_task,2021.2.3,Win32,58.86508123,627c6715c52fd12f31907bd0,,,,,Do you have any form of color blindness?,,,0.7,0,No,44.1413,,,,,,,,,,,,,,,,,,,,,,,,,,,,,,,,,,,,,,,,,,,,,,,,,,,,,,,,,,
,61688a0ab42065563b1214d6,627c76724b251e97ee0dd0b8,2022-05-12_04h53.21.096,classification_task,2021.2.3,Win32,58.86508123,627c6715c52fd12f31907bd0,,,,,Do you use software to change the colour temperature of your screen (e.g. f.lux)?,,,0.7,0,No,48.8153,,,,,,,,,,,,,,,,,,,,,,,,,,,,,,,,,,,,,,,,,,,,,,,,,,,,,,,,,,
,61688a0ab42065563b1214d6,627c76724b251e97ee0dd0b8,2022-05-12_04h53.21.096,classification_task,2021.2.3,Win32,58.86508123,627c6715c52fd12f31907bd0,,,,,,,,,,,,space,18.1951,space,9.2625,0,0,0,0,1,,,,,,,,,,,,,,,,,,,,,,,,,,,,,,,,,,,,,,,,,,,,,,,,,
,61688a0ab42065563b1214d6,627c76724b251e97ee0dd0b8,2022-05-12_04h53.21.096,classification_task,2021.2.3,Win32,58.86508123,627c6715c52fd12f31907bd0,,,,,,,,,,,,,,space,13.6457,1,0,1,0,1,,,,,,,,,,,,,,,,,,,,,,,,,,,,,,,,,,,,,,,,,,,,,,,,,
,61688a0ab42065563b1214d6,627c76724b251e97ee0dd0b8,2022-05-12_04h53.21.096,classification_task,2021.2.3,Win32,58.86508123,627c6715c52fd12f31907bd0,,,,,,,,,,,,,,space,18.0582,2,0,2,0,1,,,,,,,,,,,,,,,,,,,,,,,,,,,,,,,,,,,,,,,,,,,,,,,,,
,61688a0ab42065563b1214d6,627c76724b251e97ee0dd0b8,2022-05-12_04h53.21.096,classification_task,2021.2.3,Win32,58.86508123,627c6715c52fd12f31907bd0,,,,,,,,,,,,,,space,32.0349,3,0,3,0,1,,,,,,,,,,,,,,,,,,,,,,,,,,,,,,,,,,,,,,,,,,,,,,,,,
,61688a0ab42065563b1214d6,627c76724b251e97ee0dd0b8,2022-05-12_04h53.21.096,classification_task,2021.2.3,Win32,58.86508123,627c6715c52fd12f31907bd0,,,,,,,,,,,,,,space,12.2882,4,0,4,0,1,,,,,,,,,,,,,,,,,,,,,,,,,,,,,,,,,,,,,,,,,,,,,,,,,
,61688a0ab42065563b1214d6,627c76724b251e97ee0dd0b8,2022-05-12_04h53.21.096,classification_task,2021.2.3,Win32,58.86508123,627c6715c52fd12f31907bd0,,,,,,,,,,,,,,,,,,,,,space,9.9889,a,0,7.4994,"[""0.081"",""0.036"",""0.524"",""0.766""]","[1,0,1,1]",0,0,0,0,1,1,0,,,1,FALSE,,,,,,,,,,,,,,,,,,,,,,,,,,,,,,,
,61688a0ab42065563b1214d6,627c76724b251e97ee0dd0b8,2022-05-12_04h53.21.096,classification_task,2021.2.3,Win32,58.86508123,627c6715c52fd12f31907bd0,,,,,,,,,,,,,,,,,,,,,,,a,1,2.8902,"[""0.318"",""0.806"",""0.876"",""0.911""]","[1,0,1,1]",0,1,1,1,1,0,1,,,1,FALSE,,,,,,,,,,,,,,,,,,,,,,,,,,,,,,,
,61688a0ab42065563b1214d6,627c76724b251e97ee0dd0b8,2022-05-12_04h53.21.096,classification_task,2021.2.3,Win32,58.86508123,627c6715c52fd12f31907bd0,,,,,,,,,,,,,,,,,,,,,,,l,1,4.5153,"[""0.139"",""0.378"",""0.636"",""0.842""]","[1,1,0,1]",0,2,2,2,1,1,1,,,1,FALSE,,,,,,,,,,,,,,,,,,,,,,,,,,,,,,,
,61688a0ab42065563b1214d6,627c76724b251e97ee0dd0b8,2022-05-12_04h53.21.096,classification_task,2021.2.3,Win32,58.86508123,627c6715c52fd12f31907bd0,,,,,,,,,,,,,,,,,,,,,,,a,1,3,"[""0.318"",""0.447"",""0.660"",""0.911""]","[1,1,0,1]",0,3,3,3,1,0,1,,,1,FALSE,,,,,,,,,,,,,,,,,,,,,,,,,,,,,,,
,61688a0ab42065563b1214d6,627c76724b251e97ee0dd0b8,2022-05-12_04h53.21.096,classification_task,2021.2.3,Win32,58.86508123,627c6715c52fd12f31907bd0,,,,,,,,,,,,,,,,,,,,,,,l,1,1.6863,"[""0.139"",""0.632"",""0.583"",""0.842""]","[1,0,1,1]",0,4,4,4,1,1,1,,,1,FALSE,,,,,,,,,,,,,,,,,,,,,,,,,,,,,,,
,61688a0ab42065563b1214d6,627c76724b251e97ee0dd0b8,2022-05-12_04h53.21.096,classification_task,2021.2.3,Win32,58.86508123,627c6715c52fd12f31907bd0,,,,,,,,,,,,,,,,,,,,,,,a,0,2.5267,"[""0.081"",""0.253"",""0.524"",""0.685""]","[1,1,1,0]",0,5,5,5,1,1,0,,,1,FALSE,,,,,,,,,,,,,,,,,,,,,,,,,,,,,,,
,61688a0ab42065563b1214d6,627c76724b251e97ee0dd0b8,2022-05-12_04h53.21.096,classification_task,2021.2.3,Win32,58.86508123,627c6715c52fd12f31907bd0,,,,,,,,,,,,,,,,,,,,,,,l,0,2.8191,"[""0.032"",""0.447"",""0.876"",""0.911""]","[0,1,1,1]",0,6,6,6,1,0,1,,,1,FALSE,,,,,,,,,,,,,,,,,,,,,,,,,,,,,,,
,61688a0ab42065563b1214d6,627c76724b251e97ee0dd0b8,2022-05-12_04h53.21.096,classification_task,2021.2.3,Win32,58.86508123,627c6715c52fd12f31907bd0,,,,,,,,,,,,,,,,,,,,,,,a,0,1.0208,"[""0.660"",""0.253"",""0.524"",""0.766""]","[0,1,1,1]",0,7,7,7,1,1,0,,,1,FALSE,,,,,,,,,,,,,,,,,,,,,,,,,,,,,,,
,61688a0ab42065563b1214d6,627c76724b251e97ee0dd0b8,2022-05-12_04h53.21.096,classification_task,2021.2.3,Win32,58.86508123,627c6715c52fd12f31907bd0,,,,,,,,,,,,,,,,,,,,,,,l,0,5.1436,"[""0.318"",""0.447"",""0.876"",""0.636""]","[1,1,1,0]",0,8,8,8,1,0,1,,,1,FALSE,,,,,,,,,,,,,,,,,,,,,,,,,,,,,,,
,61688a0ab42065563b1214d6,627c76724b251e97ee0dd0b8,2022-05-12_04h53.21.096,classification_task,2021.2.3,Win32,58.86508123,627c6715c52fd12f31907bd0,,,,,,,,,,,,,,,,,,,,,,,a,1,1.1927,"[""0.190"",""0.482"",""0.720"",""0.635""]","[1,1,1,0]",0,9,9,9,1,0,0,,,1,FALSE,,,,,,,,,,,,,,,,,,,,,,,,,,,,,,,
,61688a0ab42065563b1214d6,627c76724b251e97ee0dd0b8,2022-05-12_04h53.21.096,classification_task,2021.2.3,Win32,58.86508123,627c6715c52fd12f31907bd0,,,,,,,,,,,,,,,,,,,,,,,a,0,1.5544,"[""0.139"",""0.378"",""0.583"",""0.804""]","[1,1,1,0]",0,10,10,10,1,1,1,,,1,FALSE,,,,,,,,,,,,,,,,,,,,,,,,,,,,,,,
,61688a0ab42065563b1214d6,627c76724b251e97ee0dd0b8,2022-05-12_04h53.21.096,classification_task,2021.2.3,Win32,58.86508123,627c6715c52fd12f31907bd0,,,,,,,,,,,,,,,,,,,,,,,a,0,6.7263,"[""0.026"",""0.378"",""0.583"",""0.842""]","[0,1,1,1]",0,11,11,11,1,1,1,,,1,FALSE,,,,,,,,,,,,,,,,,,,,,,,,,,,,,,,
,61688a0ab42065563b1214d6,627c76724b251e97ee0dd0b8,2022-05-12_04h53.21.096,classification_task,2021.2.3,Win32,58.86508123,627c6715c52fd12f31907bd0,,,,,,,,,,,,,,,,,,,,,,,l,0,1.2795,"[""0.190"",""0.482"",""0.640"",""0.964""]","[1,1,0,1]",0,12,12,12,1,0,0,,,1,FALSE,,,,,,,,,,,,,,,,,,,,,,,,,,,,,,,
,61688a0ab42065563b1214d6,627c76724b251e97ee0dd0b8,2022-05-12_04h53.21.096,classification_task,2021.2.3,Win32,58.86508123,627c6715c52fd12f31907bd0,,,,,,,,,,,,,,,,,,,,,,,l,0,0.6507,"[""0.190"",""0.806"",""0.720"",""0.964""]","[1,0,1,1]",0,13,13,13,1,0,0,,,1,FALSE,,,,,,,,,,,,,,,,,,,,,,,,,,,,,,,
,61688a0ab42065563b1214d6,627c76724b251e97ee0dd0b8,2022-05-12_04h53.21.096,classification_task,2021.2.3,Win32,58.86508123,627c6715c52fd12f31907bd0,,,,,,,,,,,,,,,,,,,,,,,l,0,1.1322,"[""0.685"",""0.482"",""0.720"",""0.964""]","[0,1,1,1]",0,14,14,14,1,0,0,,,1,FALSE,,,,,,,,,,,,,,,,,,,,,,,,,,,,,,,
,61688a0ab42065563b1214d6,627c76724b251e97ee0dd0b8,2022-05-12_04h53.21.096,classification_task,2021.2.3,Win32,58.86508123,627c6715c52fd12f31907bd0,,,,,,,,,,,,,,,,,,,,,,,a,0,0.5376,"[""0.081"",""0.253"",""0.632"",""0.766""]","[1,1,0,1]",0,15,15,15,1,1,0,,,1,FALSE,,,,,,,,,,,,,,,,,,,,,,,,,,,,,,,
,61688a0ab42065563b1214d6,627c76724b251e97ee0dd0b8,2022-05-12_04h53.21.096,classification_task,2021.2.3,Win32,58.86508123,627c6715c52fd12f31907bd0,,,,,,,,,,,,,,,,,,,,,,,l,0,1.1925,"[""0.318"",""0.804"",""0.876"",""0.911""]","[1,0,1,1]",0,16,16,16,1,0,1,,,1,FALSE,,,,,,,,,,,,,,,,,,,,,,,,,,,,,,,
,61688a0ab42065563b1214d6,627c76724b251e97ee0dd0b8,2022-05-12_04h53.21.096,classification_task,2021.2.3,Win32,58.86508123,627c6715c52fd12f31907bd0,,,,,,,,,,,,,,,,,,,,,,,l,0,0.8938,"[""0.190"",""0.482"",""0.635"",""0.964""]","[1,1,0,1]",0,17,17,17,1,0,0,,,1,FALSE,,,,,,,,,,,,,,,,,,,,,,,,,,,,,,,
,61688a0ab42065563b1214d6,627c76724b251e97ee0dd0b8,2022-05-12_04h53.21.096,classification_task,2021.2.3,Win32,58.86508123,627c6715c52fd12f31907bd0,,,,,,,,,,,,,,,,,,,,,,,l,0,1.1986,"[""0.632"",""0.482"",""0.720"",""0.964""]","[0,1,1,1]",0,18,18,18,1,0,0,,,1,FALSE,,,,,,,,,,,,,,,,,,,,,,,,,,,,,,,
,61688a0ab42065563b1214d6,627c76724b251e97ee0dd0b8,2022-05-12_04h53.21.096,classification_task,2021.2.3,Win32,58.86508123,627c6715c52fd12f31907bd0,,,,,,,,,,,,,,,,,,,,,,,a,0,2.514,"[""0.081"",""0.253"",""0.632"",""0.766""]","[1,1,0,1]",0,19,19,19,1,1,0,,,1,FALSE,,,,,,,,,,,,,,,,,,,,,,,,,,,,,,,
,61688a0ab42065563b1214d6,627c76724b251e97ee0dd0b8,2022-05-12_04h53.21.096,classification_task,2021.2.3,Win32,58.86508123,627c6715c52fd12f31907bd0,,,,,,,,,,,,,,,,,,,,,,,a,1,0.6356,"[""0.026"",""0.447"",""0.876"",""0.911""]","[0,1,1,1]",0,20,20,20,1,0,1,,,1,FALSE,,,,,,,,,,,,,,,,,,,,,,,,,,,,,,,
,61688a0ab42065563b1214d6,627c76724b251e97ee0dd0b8,2022-05-12_04h53.21.096,classification_task,2021.2.3,Win32,58.86508123,627c6715c52fd12f31907bd0,,,,,,,,,,,,,,,,,,,,,,,a,0,3.5284,"[""0.139"",""0.378"",""0.632"",""0.842""]","[1,1,0,1]",0,21,21,21,1,1,1,,,1,FALSE,,,,,,,,,,,,,,,,,,,,,,,,,,,,,,,
,61688a0ab42065563b1214d6,627c76724b251e97ee0dd0b8,2022-05-12_04h53.21.096,classification_task,2021.2.3,Win32,58.86508123,627c6715c52fd12f31907bd0,,,,,,,,,,,,,,,,,,,,,,,,0,,"[""0.190"",""0.031"",""0.720"",""0.964""]","[1,0,1,1]",0,22,22,22,1,0,0,,,1,FALSE,,,,,,,,,,,,,,,,,,,,,,,,,,,,,,,
,61688a0ab42065563b1214d6,627c76724b251e97ee0dd0b8,2022-05-12_04h53.21.096,classification_task,2021.2.3,Win32,58.86508123,627c6715c52fd12f31907bd0,,,,,,,,,,,,,,,,,,,,,,,l,1,1.1763,"[""0.139"",""0.806"",""0.583"",""0.842""]","[1,0,1,1]",0,23,23,23,1,1,1,,,1,FALSE,,,,,,,,,,,,,,,,,,,,,,,,,,,,,,,
,61688a0ab42065563b1214d6,627c76724b251e97ee0dd0b8,2022-05-12_04h53.21.096,classification_task,2021.2.3,Win32,58.86508123,627c6715c52fd12f31907bd0,,,,,,,,,,,,,,,,,,,,,,,a,0,5.1464,"[""0.640"",""0.378"",""0.583"",""0.842""]","[0,1,1,1]",0,24,24,24,1,1,1,,,1,FALSE,,,,,,,,,,,,,,,,,,,,,,,,,,,,,,,
,61688a0ab42065563b1214d6,627c76724b251e97ee0dd0b8,2022-05-12_04h53.21.096,classification_task,2021.2.3,Win32,58.86508123,627c6715c52fd12f31907bd0,,,,,,,,,,,,,,,,,,,,,,,l,1,2.1533,"[""0.026"",""0.253"",""0.524"",""0.766""]","[0,1,1,1]",0,25,25,25,1,1,0,,,1,FALSE,,,,,,,,,,,,,,,,,,,,,,,,,,,,,,,
,61688a0ab42065563b1214d6,627c76724b251e97ee0dd0b8,2022-05-12_04h53.21.096,classification_task,2021.2.3,Win32,58.86508123,627c6715c52fd12f31907bd0,,,,,,,,,,,,,,,,,,,,,,,l,1,2.414,"[""0.081"",""0.685"",""0.524"",""0.766""]","[1,0,1,1]",0,26,26,26,1,1,0,,,1,FALSE,,,,,,,,,,,,,,,,,,,,,,,,,,,,,,,
,61688a0ab42065563b1214d6,627c76724b251e97ee0dd0b8,2022-05-12_04h53.21.096,classification_task,2021.2.3,Win32,58.86508123,627c6715c52fd12f31907bd0,,,,,,,,,,,,,,,,,,,,,,,l,0,1.9466,"[""0.190"",""0.482"",""0.720"",""0.685""]","[1,1,1,0]",0,27,27,27,1,0,0,,,1,FALSE,,,,,,,,,,,,,,,,,,,,,,,,,,,,,,,
,61688a0ab42065563b1214d6,627c76724b251e97ee0dd0b8,2022-05-12_04h53.21.096,classification_task,2021.2.3,Win32,58.86508123,627c6715c52fd12f31907bd0,,,,,,,,,,,,,,,,,,,,,,,l,1,1.6815,"[""0.081"",""0.253"",""0.524"",""0.804""]","[1,1,1,0]",0,28,28,28,1,1,0,,,1,FALSE,,,,,,,,,,,,,,,,,,,,,,,,,,,,,,,
,61688a0ab42065563b1214d6,627c76724b251e97ee0dd0b8,2022-05-12_04h53.21.096,classification_task,2021.2.3,Win32,58.86508123,627c6715c52fd12f31907bd0,,,,,,,,,,,,,,,,,,,,,,,a,0,5.3412,"[""0.139"",""0.378"",""0.583"",""0.032""]","[1,1,1,0]",0,29,29,29,1,1,1,,,1,FALSE,,,,,,,,,,,,,,,,,,,,,,,,,,,,,,,
,61688a0ab42065563b1214d6,627c76724b251e97ee0dd0b8,2022-05-12_04h53.21.096,classification_task,2021.2.3,Win32,58.86508123,627c6715c52fd12f31907bd0,,,,,,,,,,,,,,,,,,,,,,,l,0,1.135,"[""0.318"",""0.447"",""0.876"",""0.804""]","[1,1,1,0]",0,30,30,30,1,0,1,,,1,FALSE,,,,,,,,,,,,,,,,,,,,,,,,,,,,,,,
,61688a0ab42065563b1214d6,627c76724b251e97ee0dd0b8,2022-05-12_04h53.21.096,classification_task,2021.2.3,Win32,58.86508123,627c6715c52fd12f31907bd0,,,,,,,,,,,,,,,,,,,,,,,a,1,1.0679,"[""0.318"",""0.447"",""0.032"",""0.911""]","[1,1,0,1]",0,31,31,31,1,0,1,,,1,FALSE,,,,,,,,,,,,,,,,,,,,,,,,,,,,,,,
,61688a0ab42065563b1214d6,627c76724b251e97ee0dd0b8,2022-05-12_04h53.21.096,classification_task,2021.2.3,Win32,58.86508123,627c6715c52fd12f31907bd0,,,,,,,,,,,,,,,,,,,,,,,l,0,0.9697,"[""0.635"",""0.482"",""0.720"",""0.964""]","[0,1,1,1]",0,32,32,32,1,0,0,,,1,FALSE,,,,,,,,,,,,,,,,,,,,,,,,,,,,,,,
,61688a0ab42065563b1214d6,627c76724b251e97ee0dd0b8,2022-05-12_04h53.21.096,classification_task,2021.2.3,Win32,58.86508123,627c6715c52fd12f31907bd0,,,,,,,,,,,,,,,,,,,,,,,a,1,3.7824,"[""0.190"",""0.032"",""0.720"",""0.964""]","[1,0,1,1]",0,33,33,33,1,0,0,,,1,FALSE,,,,,,,,,,,,,,,,,,,,,,,,,,,,,,,
,61688a0ab42065563b1214d6,627c76724b251e97ee0dd0b8,2022-05-12_04h53.21.096,classification_task,2021.2.3,Win32,58.86508123,627c6715c52fd12f31907bd0,,,,,,,,,,,,,,,,,,,,,,,a,1,4.4798,"[""0.190"",""0.482"",""0.640"",""0.964""]","[1,1,0,1]",0,34,34,34,1,0,0,,,1,FALSE,,,,,,,,,,,,,,,,,,,,,,,,,,,,,,,
,61688a0ab42065563b1214d6,627c76724b251e97ee0dd0b8,2022-05-12_04h53.21.096,classification_task,2021.2.3,Win32,58.86508123,627c6715c52fd12f31907bd0,,,,,,,,,,,,,,,,,,,,,,,a,0,1.9167,"[""0.139"",""0.378"",""0.636"",""0.842""]","[1,1,0,1]",0,35,35,35,1,1,1,,,1,FALSE,,,,,,,,,,,,,,,,,,,,,,,,,,,,,,,
,61688a0ab42065563b1214d6,627c76724b251e97ee0dd0b8,2022-05-12_04h53.21.096,classification_task,2021.2.3,Win32,58.86508123,627c6715c52fd12f31907bd0,,,,,,,,,,,,,,,,,,,,,,,l,0,2.4196,"[""0.318"",""0.447"",""0.876"",""0.030""]","[1,1,1,0]",0,36,36,36,1,0,1,,,1,FALSE,,,,,,,,,,,,,,,,,,,,,,,,,,,,,,,
,61688a0ab42065563b1214d6,627c76724b251e97ee0dd0b8,2022-05-12_04h53.21.096,classification_task,2021.2.3,Win32,58.86508123,627c6715c52fd12f31907bd0,,,,,,,,,,,,,,,,,,,,,,,a,0,0.7946,"[""0.139"",""0.378"",""0.583"",""0.635""]","[1,1,1,0]",0,37,37,37,1,1,1,,,1,FALSE,,,,,,,,,,,,,,,,,,,,,,,,,,,,,,,
,61688a0ab42065563b1214d6,627c76724b251e97ee0dd0b8,2022-05-12_04h53.21.096,classification_task,2021.2.3,Win32,58.86508123,627c6715c52fd12f31907bd0,,,,,,,,,,,,,,,,,,,,,,,l,1,1.0493,"[""0.081"",""0.253"",""0.685"",""0.766""]","[1,1,0,1]",0,38,38,38,1,1,0,,,1,FALSE,,,,,,,,,,,,,,,,,,,,,,,,,,,,,,,
,61688a0ab42065563b1214d6,627c76724b251e97ee0dd0b8,2022-05-12_04h53.21.096,classification_task,2021.2.3,Win32,58.86508123,627c6715c52fd12f31907bd0,,,,,,,,,,,,,,,,,,,,,,,l,1,0.7837,"[""0.081"",""0.635"",""0.524"",""0.766""]","[1,0,1,1]",0,39,39,39,1,1,0,,,1,FALSE,,,,,,,,,,,,,,,,,,,,,,,,,,,,,,,
,61688a0ab42065563b1214d6,627c76724b251e97ee0dd0b8,2022-05-12_04h53.21.096,classification_task,2021.2.3,Win32,58.86508123,627c6715c52fd12f31907bd0,,,,,,,,,,,,,,,,,,,,,,,a,1,3.065,"[""0.190"",""0.482"",""0.720"",""0.026""]","[1,1,1,0]",0,40,40,40,1,0,0,,,1,FALSE,,,,,,,,,,,,,,,,,,,,,,,,,,,,,,,
,61688a0ab42065563b1214d6,627c76724b251e97ee0dd0b8,2022-05-12_04h53.21.096,classification_task,2021.2.3,Win32,58.86508123,627c6715c52fd12f31907bd0,,,,,,,,,,,,,,,,,,,,,,,l,1,4.5954,"[""0.139"",""0.031"",""0.583"",""0.842""]","[1,0,1,1]",0,41,41,41,1,1,1,,,1,FALSE,,,,,,,,,,,,,,,,,,,,,,,,,,,,,,,
,61688a0ab42065563b1214d6,627c76724b251e97ee0dd0b8,2022-05-12_04h53.21.096,classification_task,2021.2.3,Win32,58.86508123,627c6715c52fd12f31907bd0,,,,,,,,,,,,,,,,,,,,,,,l,1,1.4017,"[""0.081"",""0.253"",""0.524"",""0.660""]","[1,1,1,0]",0,42,42,42,1,1,0,,,1,FALSE,,,,,,,,,,,,,,,,,,,,,,,,,,,,,,,
,61688a0ab42065563b1214d6,627c76724b251e97ee0dd0b8,2022-05-12_04h53.21.096,classification_task,2021.2.3,Win32,58.86508123,627c6715c52fd12f31907bd0,,,,,,,,,,,,,,,,,,,,,,,a,1,1.1061,"[""0.318"",""0.447"",""0.635"",""0.911""]","[1,1,0,1]",0,43,43,43,1,0,1,,,1,FALSE,,,,,,,,,,,,,,,,,,,,,,,,,,,,,,,
,61688a0ab42065563b1214d6,627c76724b251e97ee0dd0b8,2022-05-12_04h53.21.096,classification_task,2021.2.3,Win32,58.86508123,627c6715c52fd12f31907bd0,,,,,,,,,,,,,,,,,,,,,,,l,0,1.1409,"[""0.318"",""0.685"",""0.876"",""0.911""]","[1,0,1,1]",0,44,44,44,1,0,1,,,1,FALSE,,,,,,,,,,,,,,,,,,,,,,,,,,,,,,,
,61688a0ab42065563b1214d6,627c76724b251e97ee0dd0b8,2022-05-12_04h53.21.096,classification_task,2021.2.3,Win32,58.86508123,627c6715c52fd12f31907bd0,,,,,,,,,,,,,,,,,,,,,,,l,1,2.4293,"[""0.032"",""0.378"",""0.583"",""0.842""]","[0,1,1,1]",0,45,45,45,1,1,1,,,1,FALSE,,,,,,,,,,,,,,,,,,,,,,,,,,,,,,,
,61688a0ab42065563b1214d6,627c76724b251e97ee0dd0b8,2022-05-12_04h53.21.096,classification_task,2021.2.3,Win32,58.86508123,627c6715c52fd12f31907bd0,,,,,,,,,,,,,,,,,,,,,,,l,0,2.328,"[""0.804"",""0.447"",""0.876"",""0.911""]","[0,1,1,1]",0,46,46,46,1,0,1,,,1,FALSE,,,,,,,,,,,,,,,,,,,,,,,,,,,,,,,
,61688a0ab42065563b1214d6,627c76724b251e97ee0dd0b8,2022-05-12_04h53.21.096,classification_task,2021.2.3,Win32,58.86508123,627c6715c52fd12f31907bd0,,,,,,,,,,,,,,,,,,,,,,,l,1,1.5479,"[""0.685"",""0.253"",""0.524"",""0.766""]","[0,1,1,1]",0,47,47,47,1,1,0,,,1,FALSE,,,,,,,,,,,,,,,,,,,,,,,,,,,,,,,
,61688a0ab42065563b1214d6,627c76724b251e97ee0dd0b8,2022-05-12_04h53.21.096,classification_task,2021.2.3,Win32,58.86508123,627c6715c52fd12f31907bd0,,,,,,,,,,,,,,,,,,,,,,,a,1,1.1792,"[""0.318"",""0.032"",""0.876"",""0.911""]","[1,0,1,1]",0,48,48,48,1,0,1,,,1,FALSE,,,,,,,,,,,,,,,,,,,,,,,,,,,,,,,
,61688a0ab42065563b1214d6,627c76724b251e97ee0dd0b8,2022-05-12_04h53.21.096,classification_task,2021.2.3,Win32,58.86508123,627c6715c52fd12f31907bd0,,,,,,,,,,,,,,,,,,,,,,,l,0,1.8156,"[""0.190"",""0.635"",""0.720"",""0.964""]","[1,0,1,1]",0,49,49,49,1,0,0,,,1,FALSE,,,,,,,,,,,,,,,,,,,,,,,,,,,,,,,
,61688a0ab42065563b1214d6,627c76724b251e97ee0dd0b8,2022-05-12_04h53.21.096,classification_task,2021.2.3,Win32,58.86508123,627c6715c52fd12f31907bd0,,,,,,,,,,,,,,,,,,,,,,,a,0,1.2518,"[""0.139"",""0.378"",""0.583"",""0.031""]","[1,1,1,0]",0,50,50,50,1,1,1,,,1,FALSE,,,,,,,,,,,,,,,,,,,,,,,,,,,,,,,
,61688a0ab42065563b1214d6,627c76724b251e97ee0dd0b8,2022-05-12_04h53.21.096,classification_task,2021.2.3,Win32,58.86508123,627c6715c52fd12f31907bd0,,,,,,,,,,,,,,,,,,,,,,,l,1,2.2553,"[""0.660"",""0.378"",""0.583"",""0.842""]","[0,1,1,1]",0,51,51,51,1,1,1,,,1,FALSE,,,,,,,,,,,,,,,,,,,,,,,,,,,,,,,
,61688a0ab42065563b1214d6,627c76724b251e97ee0dd0b8,2022-05-12_04h53.21.096,classification_task,2021.2.3,Win32,58.86508123,627c6715c52fd12f31907bd0,,,,,,,,,,,,,,,,,,,,,,,l,0,1.0157,"[""0.318"",""0.447"",""0.876"",""0.030""]","[1,1,1,0]",0,52,52,52,1,0,1,,,1,FALSE,,,,,,,,,,,,,,,,,,,,,,,,,,,,,,,
,61688a0ab42065563b1214d6,627c76724b251e97ee0dd0b8,2022-05-12_04h53.21.096,classification_task,2021.2.3,Win32,58.86508123,627c6715c52fd12f31907bd0,,,,,,,,,,,,,,,,,,,,,,,l,1,0.9337,"[""0.139"",""0.661"",""0.583"",""0.842""]","[1,0,1,1]",0,53,53,53,1,1,1,,,1,FALSE,,,,,,,,,,,,,,,,,,,,,,,,,,,,,,,
,61688a0ab42065563b1214d6,627c76724b251e97ee0dd0b8,2022-05-12_04h53.21.096,classification_task,2021.2.3,Win32,58.86508123,627c6715c52fd12f31907bd0,,,,,,,,,,,,,,,,,,,,,,,a,0,1.9029,"[""0.081"",""0.253"",""0.036"",""0.766""]","[1,1,0,1]",0,54,54,54,1,1,0,,,1,FALSE,,,,,,,,,,,,,,,,,,,,,,,,,,,,,,,
,61688a0ab42065563b1214d6,627c76724b251e97ee0dd0b8,2022-05-12_04h53.21.096,classification_task,2021.2.3,Win32,58.86508123,627c6715c52fd12f31907bd0,,,,,,,,,,,,,,,,,,,,,,,l,1,0.9677,"[""0.139"",""0.378"",""0.806"",""0.842""]","[1,1,0,1]",0,55,55,55,1,1,1,,,1,FALSE,,,,,,,,,,,,,,,,,,,,,,,,,,,,,,,
,61688a0ab42065563b1214d6,627c76724b251e97ee0dd0b8,2022-05-12_04h53.21.096,classification_task,2021.2.3,Win32,58.86508123,627c6715c52fd12f31907bd0,,,,,,,,,,,,,,,,,,,,,,,l,1,1.0536,"[""0.661"",""0.253"",""0.524"",""0.766""]","[0,1,1,1]",0,56,56,56,1,1,0,,,1,FALSE,,,,,,,,,,,,,,,,,,,,,,,,,,,,,,,
,61688a0ab42065563b1214d6,627c76724b251e97ee0dd0b8,2022-05-12_04h53.21.096,classification_task,2021.2.3,Win32,58.86508123,627c6715c52fd12f31907bd0,,,,,,,,,,,,,,,,,,,,,,,l,0,1.9137,"[""0.318"",""0.447"",""0.804"",""0.911""]","[1,1,0,1]",0,57,57,57,1,0,1,,,1,FALSE,,,,,,,,,,,,,,,,,,,,,,,,,,,,,,,
,61688a0ab42065563b1214d6,627c76724b251e97ee0dd0b8,2022-05-12_04h53.21.096,classification_task,2021.2.3,Win32,58.86508123,627c6715c52fd12f31907bd0,,,,,,,,,,,,,,,,,,,,,,,a,0,0.9154,"[""0.081"",""0.253"",""0.524"",""0.030""]","[1,1,1,0]",0,58,58,58,1,1,0,,,1,FALSE,,,,,,,,,,,,,,,,,,,,,,,,,,,,,,,
,61688a0ab42065563b1214d6,627c76724b251e97ee0dd0b8,2022-05-12_04h53.21.096,classification_task,2021.2.3,Win32,58.86508123,627c6715c52fd12f31907bd0,,,,,,,,,,,,,,,,,,,,,,,l,0,0.867,"[""0.632"",""0.447"",""0.876"",""0.911""]","[0,1,1,1]",0,59,59,59,1,0,1,,,1,FALSE,,,,,,,,,,,,,,,,,,,,,,,,,,,,,,,
,61688a0ab42065563b1214d6,627c76724b251e97ee0dd0b8,2022-05-12_04h53.21.096,classification_task,2021.2.3,Win32,58.86508123,627c6715c52fd12f31907bd0,,,,,,,,,,,,,,,,,,,,,,,l,0,1.4339,"[""0.190"",""0.482"",""0.804"",""0.964""]","[1,1,0,1]",0,60,60,60,1,0,0,,,1,FALSE,,,,,,,,,,,,,,,,,,,,,,,,,,,,,,,
,61688a0ab42065563b1214d6,627c76724b251e97ee0dd0b8,2022-05-12_04h53.21.096,classification_task,2021.2.3,Win32,58.86508123,627c6715c52fd12f31907bd0,,,,,,,,,,,,,,,,,,,,,,,a,0,0.6355,"[""0.081"",""0.636"",""0.524"",""0.766""]","[1,0,1,1]",0,61,61,61,1,1,0,,,1,FALSE,,,,,,,,,,,,,,,,,,,,,,,,,,,,,,,
,61688a0ab42065563b1214d6,627c76724b251e97ee0dd0b8,2022-05-12_04h53.21.096,classification_task,2021.2.3,Win32,58.86508123,627c6715c52fd12f31907bd0,,,,,,,,,,,,,,,,,,,,,,,l,0,1.0339,"[""0.635"",""0.482"",""0.720"",""0.964""]","[0,1,1,1]",0,62,62,62,1,0,0,,,1,FALSE,,,,,,,,,,,,,,,,,,,,,,,,,,,,,,,
,61688a0ab42065563b1214d6,627c76724b251e97ee0dd0b8,2022-05-12_04h53.21.096,classification_task,2021.2.3,Win32,58.86508123,627c6715c52fd12f31907bd0,,,,,,,,,,,,,,,,,,,,,,,a,1,1.1839,"[""0.190"",""0.482"",""0.720"",""0.685""]","[1,1,1,0]",0,63,63,63,1,0,0,,,1,FALSE,,,,,,,,,,,,,,,,,,,,,,,,,,,,,,,
,61688a0ab42065563b1214d6,627c76724b251e97ee0dd0b8,2022-05-12_04h53.21.096,classification_task,2021.2.3,Win32,58.86508123,627c6715c52fd12f31907bd0,,,,,,,,,,,,,,,,,,,,,,,,,,,,,,,,,,,,,,,0, ,,0,10,409.2116,0,0,0,0,1,2,1,,,,,,,,,,,,,,,,,,
,61688a0ab42065563b1214d6,627c76724b251e97ee0dd0b8,2022-05-12_04h53.21.096,classification_task,2021.2.3,Win32,58.86508123,627c6715c52fd12f31907bd0,,,,,,,,,,,,,,,,,,,,,,,,,,,,,,,,,,,,,,,1,  ,,0,10,403.7554,0,0,0,0,1,2,1,,,,,,,,,,,,,,,,,,
,61688a0ab42065563b1214d6,627c76724b251e97ee0dd0b8,2022-05-12_04h53.21.096,classification_task,2021.2.3,Win32,58.86508123,627c6715c52fd12f31907bd0,,,,,,,,,,,,,,,,,,,,,,,,,,,,,,,,,,,,,,,2,  ,,0,7.755731922,424.2963,0,0,0,0,1,2,1,,,,,,,,,,,,,,,,,,
,61688a0ab42065563b1214d6,627c76724b251e97ee0dd0b8,2022-05-12_04h53.21.096,classification_task,2021.2.3,Win32,58.86508123,627c6715c52fd12f31907bd0,,,,,,,,,,,,,,,,,,,,,,,,,,,,,,,,,,,,,,,,,,,,,0,0,0,0,1,,1,,,,,,,,,,,,,,,,,,
,61688a0ab42065563b1214d6,627c76724b251e97ee0dd0b8,2022-05-12_04h53.21.096,classification_task,2021.2.3,Win32,58.86508123,627c6715c52fd12f31907bd0,,,,,,,,,,,,,,,,,,,,,space,14.2542,l,1,5.8199,"[""0.036"",""0.378"",""0.583"",""0.842""]","[0,1,1,1]",0,0,0,0,1,1,1,,,1,FALSE,,,,,,,,,,,,,,,,,,,,,,,,,,,,,,,
,61688a0ab42065563b1214d6,627c76724b251e97ee0dd0b8,2022-05-12_04h53.21.096,classification_task,2021.2.3,Win32,58.86508123,627c6715c52fd12f31907bd0,,,,,,,,,,,,,,,,,,,,,,,a,0,1.3589,"[""0.081"",""0.253"",""0.036"",""0.766""]","[1,1,0,1]",0,1,1,1,1,1,0,,,1,FALSE,,,,,,,,,,,,,,,,,,,,,,,,,,,,,,,
,61688a0ab42065563b1214d6,627c76724b251e97ee0dd0b8,2022-05-12_04h53.21.096,classification_task,2021.2.3,Win32,58.86508123,627c6715c52fd12f31907bd0,,,,,,,,,,,,,,,,,,,,,,,l,0,4.8049,"[""0.318"",""0.635"",""0.876"",""0.911""]","[1,0,1,1]",0,2,2,2,1,0,1,,,1,FALSE,,,,,,,,,,,,,,,,,,,,,,,,,,,,,,,
,61688a0ab42065563b1214d6,627c76724b251e97ee0dd0b8,2022-05-12_04h53.21.096,classification_task,2021.2.3,Win32,58.86508123,627c6715c52fd12f31907bd0,,,,,,,,,,,,,,,,,,,,,,,a,0,2.0285,"[""0.139"",""0.378"",""0.685"",""0.842""]","[1,1,0,1]",0,3,3,3,1,1,1,,,1,FALSE,,,,,,,,,,,,,,,,,,,,,,,,,,,,,,,
,61688a0ab42065563b1214d6,627c76724b251e97ee0dd0b8,2022-05-12_04h53.21.096,classification_task,2021.2.3,Win32,58.86508123,627c6715c52fd12f31907bd0,,,,,,,,,,,,,,,,,,,,,,,a,1,4.7488,"[""0.661"",""0.447"",""0.876"",""0.911""]","[0,1,1,1]",0,4,4,4,1,0,1,,,1,FALSE,,,,,,,,,,,,,,,,,,,,,,,,,,,,,,,
,61688a0ab42065563b1214d6,627c76724b251e97ee0dd0b8,2022-05-12_04h53.21.096,classification_task,2021.2.3,Win32,58.86508123,627c6715c52fd12f31907bd0,,,,,,,,,,,,,,,,,,,,,,,a,1,1.4994,"[""0.318"",""0.447"",""0.876"",""0.036""]","[1,1,1,0]",0,5,5,5,1,0,1,,,1,FALSE,,,,,,,,,,,,,,,,,,,,,,,,,,,,,,,
,61688a0ab42065563b1214d6,627c76724b251e97ee0dd0b8,2022-05-12_04h53.21.096,classification_task,2021.2.3,Win32,58.86508123,627c6715c52fd12f31907bd0,,,,,,,,,,,,,,,,,,,,,,,l,1,3.288,"[""0.806"",""0.253"",""0.524"",""0.766""]","[0,1,1,1]",0,6,6,6,1,1,0,,,1,FALSE,,,,,,,,,,,,,,,,,,,,,,,,,,,,,,,
,61688a0ab42065563b1214d6,627c76724b251e97ee0dd0b8,2022-05-12_04h53.21.096,classification_task,2021.2.3,Win32,58.86508123,627c6715c52fd12f31907bd0,,,,,,,,,,,,,,,,,,,,,,,l,0,0.999,"[""0.806"",""0.482"",""0.720"",""0.964""]","[0,1,1,1]",0,7,7,7,1,0,0,,,1,FALSE,,,,,,,,,,,,,,,,,,,,,,,,,,,,,,,
,61688a0ab42065563b1214d6,627c76724b251e97ee0dd0b8,2022-05-12_04h53.21.096,classification_task,2021.2.3,Win32,58.86508123,627c6715c52fd12f31907bd0,,,,,,,,,,,,,,,,,,,,,,,a,1,0.8294,"[""0.190"",""0.636"",""0.720"",""0.964""]","[1,0,1,1]",0,8,8,8,1,0,0,,,1,FALSE,,,,,,,,,,,,,,,,,,,,,,,,,,,,,,,
,61688a0ab42065563b1214d6,627c76724b251e97ee0dd0b8,2022-05-12_04h53.21.096,classification_task,2021.2.3,Win32,58.86508123,627c6715c52fd12f31907bd0,,,,,,,,,,,,,,,,,,,,,,,l,1,2.0587,"[""0.139"",""0.640"",""0.583"",""0.842""]","[1,0,1,1]",0,9,9,9,1,1,1,,,1,FALSE,,,,,,,,,,,,,,,,,,,,,,,,,,,,,,,
,61688a0ab42065563b1214d6,627c76724b251e97ee0dd0b8,2022-05-12_04h53.21.096,classification_task,2021.2.3,Win32,58.86508123,627c6715c52fd12f31907bd0,,,,,,,,,,,,,,,,,,,,,,,a,1,1.3583,"[""0.190"",""0.482"",""0.036"",""0.964""]","[1,1,0,1]",0,10,10,10,1,0,0,,,1,FALSE,,,,,,,,,,,,,,,,,,,,,,,,,,,,,,,
,61688a0ab42065563b1214d6,627c76724b251e97ee0dd0b8,2022-05-12_04h53.21.096,classification_task,2021.2.3,Win32,58.86508123,627c6715c52fd12f31907bd0,,,,,,,,,,,,,,,,,,,,,,,a,1,1.4267,"[""0.318"",""0.447"",""0.806"",""0.911""]","[1,1,0,1]",0,11,11,11,1,0,1,,,1,FALSE,,,,,,,,,,,,,,,,,,,,,,,,,,,,,,,
,61688a0ab42065563b1214d6,627c76724b251e97ee0dd0b8,2022-05-12_04h53.21.096,classification_task,2021.2.3,Win32,58.86508123,627c6715c52fd12f31907bd0,,,,,,,,,,,,,,,,,,,,,,,a,0,0.931,"[""0.081"",""0.032"",""0.524"",""0.766""]","[1,0,1,1]",0,12,12,12,1,1,0,,,1,FALSE,,,,,,,,,,,,,,,,,,,,,,,,,,,,,,,
,61688a0ab42065563b1214d6,627c76724b251e97ee0dd0b8,2022-05-12_04h53.21.096,classification_task,2021.2.3,Win32,58.86508123,627c6715c52fd12f31907bd0,,,,,,,,,,,,,,,,,,,,,,,l,1,0.5818,"[""0.081"",""0.253"",""0.524"",""0.804""]","[1,1,1,0]",0,13,13,13,1,1,0,,,1,FALSE,,,,,,,,,,,,,,,,,,,,,,,,,,,,,,,
,61688a0ab42065563b1214d6,627c76724b251e97ee0dd0b8,2022-05-12_04h53.21.096,classification_task,2021.2.3,Win32,58.86508123,627c6715c52fd12f31907bd0,,,,,,,,,,,,,,,,,,,,,,,l,1,1.3419,"[""0.139"",""0.378"",""0.583"",""0.806""]","[1,1,1,0]",0,14,14,14,1,1,1,,,1,FALSE,,,,,,,,,,,,,,,,,,,,,,,,,,,,,,,
,61688a0ab42065563b1214d6,627c76724b251e97ee0dd0b8,2022-05-12_04h53.21.096,classification_task,2021.2.3,Win32,58.86508123,627c6715c52fd12f31907bd0,,,,,,,,,,,,,,,,,,,,,,,l,0,1.2111,"[""0.190"",""0.482"",""0.720"",""0.632""]","[1,1,1,0]",0,15,15,15,1,0,0,,,1,FALSE,,,,,,,,,,,,,,,,,,,,,,,,,,,,,,,
,61688a0ab42065563b1214d6,627c76724b251e97ee0dd0b8,2022-05-12_04h53.21.096,classification_task,2021.2.3,Win32,58.86508123,627c6715c52fd12f31907bd0,,,,,,,,,,,,,,,,,,,,,,,a,0,0.7007,"[""0.081"",""0.635"",""0.524"",""0.766""]","[1,0,1,1]",0,16,16,16,1,1,0,,,1,FALSE,,,,,,,,,,,,,,,,,,,,,,,,,,,,,,,
,61688a0ab42065563b1214d6,627c76724b251e97ee0dd0b8,2022-05-12_04h53.21.096,classification_task,2021.2.3,Win32,58.86508123,627c6715c52fd12f31907bd0,,,,,,,,,,,,,,,,,,,,,,,l,1,0.5171,"[""0.081"",""0.253"",""0.635"",""0.766""]","[1,1,0,1]",0,17,17,17,1,1,0,,,1,FALSE,,,,,,,,,,,,,,,,,,,,,,,,,,,,,,,
,61688a0ab42065563b1214d6,627c76724b251e97ee0dd0b8,2022-05-12_04h53.21.096,classification_task,2021.2.3,Win32,58.86508123,627c6715c52fd12f31907bd0,,,,,,,,,,,,,,,,,,,,,,,l,0,0.6486,"[""0.190"",""0.030"",""0.720"",""0.964""]","[1,0,1,1]",0,18,18,18,1,0,0,,,1,FALSE,,,,,,,,,,,,,,,,,,,,,,,,,,,,,,,
,61688a0ab42065563b1214d6,627c76724b251e97ee0dd0b8,2022-05-12_04h53.21.096,classification_task,2021.2.3,Win32,58.86508123,627c6715c52fd12f31907bd0,,,,,,,,,,,,,,,,,,,,,,,a,1,0.7324,"[""0.190"",""0.482"",""0.804"",""0.964""]","[1,1,0,1]",0,19,19,19,1,0,0,,,1,FALSE,,,,,,,,,,,,,,,,,,,,,,,,,,,,,,,
,61688a0ab42065563b1214d6,627c76724b251e97ee0dd0b8,2022-05-12_04h53.21.096,classification_task,2021.2.3,Win32,58.86508123,627c6715c52fd12f31907bd0,,,,,,,,,,,,,,,,,,,,,,,a,1,1.5107,"[""0.318"",""0.636"",""0.876"",""0.911""]","[1,0,1,1]",0,20,20,20,1,0,1,,,1,FALSE,,,,,,,,,,,,,,,,,,,,,,,,,,,,,,,
,61688a0ab42065563b1214d6,627c76724b251e97ee0dd0b8,2022-05-12_04h53.21.096,classification_task,2021.2.3,Win32,58.86508123,627c6715c52fd12f31907bd0,,,,,,,,,,,,,,,,,,,,,,,l,1,0.6514,"[""0.139"",""0.378"",""0.583"",""0.806""]","[1,1,1,0]",0,21,21,21,1,1,1,,,1,FALSE,,,,,,,,,,,,,,,,,,,,,,,,,,,,,,,
,61688a0ab42065563b1214d6,627c76724b251e97ee0dd0b8,2022-05-12_04h53.21.096,classification_task,2021.2.3,Win32,58.86508123,627c6715c52fd12f31907bd0,,,,,,,,,,,,,,,,,,,,,,,l,1,1.1332,"[""0.139"",""0.378"",""0.660"",""0.842""]","[1,1,0,1]",0,22,22,22,1,1,1,,,1,FALSE,,,,,,,,,,,,,,,,,,,,,,,,,,,,,,,
,61688a0ab42065563b1214d6,627c76724b251e97ee0dd0b8,2022-05-12_04h53.21.096,classification_task,2021.2.3,Win32,58.86508123,627c6715c52fd12f31907bd0,,,,,,,,,,,,,,,,,,,,,,,l,1,0.6477,"[""0.139"",""0.660"",""0.583"",""0.842""]","[1,0,1,1]",0,23,23,23,1,1,1,,,1,FALSE,,,,,,,,,,,,,,,,,,,,,,,,,,,,,,,
,61688a0ab42065563b1214d6,627c76724b251e97ee0dd0b8,2022-05-12_04h53.21.096,classification_task,2021.2.3,Win32,58.86508123,627c6715c52fd12f31907bd0,,,,,,,,,,,,,,,,,,,,,,,a,1,0.8163,"[""0.660"",""0.447"",""0.876"",""0.911""]","[0,1,1,1]",0,24,24,24,1,0,1,,,1,FALSE,,,,,,,,,,,,,,,,,,,,,,,,,,,,,,,
,61688a0ab42065563b1214d6,627c76724b251e97ee0dd0b8,2022-05-12_04h53.21.096,classification_task,2021.2.3,Win32,58.86508123,627c6715c52fd12f31907bd0,,,,,,,,,,,,,,,,,,,,,,,l,1,2.4843,"[""0.804"",""0.378"",""0.583"",""0.842""]","[0,1,1,1]",0,25,25,25,1,1,1,,,1,FALSE,,,,,,,,,,,,,,,,,,,,,,,,,,,,,,,
,61688a0ab42065563b1214d6,627c76724b251e97ee0dd0b8,2022-05-12_04h53.21.096,classification_task,2021.2.3,Win32,58.86508123,627c6715c52fd12f31907bd0,,,,,,,,,,,,,,,,,,,,,,,a,1,1.2814,"[""0.318"",""0.447"",""0.876"",""0.660""]","[1,1,1,0]",0,26,26,26,1,0,1,,,1,FALSE,,,,,,,,,,,,,,,,,,,,,,,,,,,,,,,
,61688a0ab42065563b1214d6,627c76724b251e97ee0dd0b8,2022-05-12_04h53.21.096,classification_task,2021.2.3,Win32,58.86508123,627c6715c52fd12f31907bd0,,,,,,,,,,,,,,,,,,,,,,,l,0,1.2574,"[""0.190"",""0.482"",""0.720"",""0.632""]","[1,1,1,0]",0,27,27,27,1,0,0,,,1,FALSE,,,,,,,,,,,,,,,,,,,,,,,,,,,,,,,
,61688a0ab42065563b1214d6,627c76724b251e97ee0dd0b8,2022-05-12_04h53.21.096,classification_task,2021.2.3,Win32,58.86508123,627c6715c52fd12f31907bd0,,,,,,,,,,,,,,,,,,,,,,,a,1,1.3751,"[""0.318"",""0.447"",""0.635"",""0.911""]","[1,1,0,1]",0,28,28,28,1,0,1,,,1,FALSE,,,,,,,,,,,,,,,,,,,,,,,,,,,,,,,
,61688a0ab42065563b1214d6,627c76724b251e97ee0dd0b8,2022-05-12_04h53.21.096,classification_task,2021.2.3,Win32,58.86508123,627c6715c52fd12f31907bd0,,,,,,,,,,,,,,,,,,,,,,,l,1,1.027,"[""0.081"",""0.253"",""0.524"",""0.632""]","[1,1,1,0]",0,29,29,29,1,1,0,,,1,FALSE,,,,,,,,,,,,,,,,,,,,,,,,,,,,,,,
,61688a0ab42065563b1214d6,627c76724b251e97ee0dd0b8,2022-05-12_04h53.21.096,classification_task,2021.2.3,Win32,58.86508123,627c6715c52fd12f31907bd0,,,,,,,,,,,,,,,,,,,,,,,l,0,0.9657,"[""0.026"",""0.482"",""0.720"",""0.964""]","[0,1,1,1]",0,30,30,30,1,0,0,,,1,FALSE,,,,,,,,,,,,,,,,,,,,,,,,,,,,,,,
,61688a0ab42065563b1214d6,627c76724b251e97ee0dd0b8,2022-05-12_04h53.21.096,classification_task,2021.2.3,Win32,58.86508123,627c6715c52fd12f31907bd0,,,,,,,,,,,,,,,,,,,,,,,a,0,0.5501,"[""0.026"",""0.253"",""0.524"",""0.766""]","[0,1,1,1]",0,31,31,31,1,1,0,,,1,FALSE,,,,,,,,,,,,,,,,,,,,,,,,,,,,,,,
,61688a0ab42065563b1214d6,627c76724b251e97ee0dd0b8,2022-05-12_04h53.21.096,classification_task,2021.2.3,Win32,58.86508123,627c6715c52fd12f31907bd0,,,,,,,,,,,,,,,,,,,,,,,l,0,0.4648,"[""0.190"",""0.482"",""0.030"",""0.964""]","[1,1,0,1]",0,32,32,32,1,0,0,,,1,FALSE,,,,,,,,,,,,,,,,,,,,,,,,,,,,,,,
,61688a0ab42065563b1214d6,627c76724b251e97ee0dd0b8,2022-05-12_04h53.21.096,classification_task,2021.2.3,Win32,58.86508123,627c6715c52fd12f31907bd0,,,,,,,,,,,,,,,,,,,,,,,l,1,1.2753,"[""0.032"",""0.378"",""0.583"",""0.842""]","[0,1,1,1]",0,33,33,33,1,1,1,,,1,FALSE,,,,,,,,,,,,,,,,,,,,,,,,,,,,,,,
,61688a0ab42065563b1214d6,627c76724b251e97ee0dd0b8,2022-05-12_04h53.21.096,classification_task,2021.2.3,Win32,58.86508123,627c6715c52fd12f31907bd0,,,,,,,,,,,,,,,,,,,,,,,l,1,1.0421,"[""0.636"",""0.253"",""0.524"",""0.766""]","[0,1,1,1]",0,34,34,34,1,1,0,,,1,FALSE,,,,,,,,,,,,,,,,,,,,,,,,,,,,,,,
,61688a0ab42065563b1214d6,627c76724b251e97ee0dd0b8,2022-05-12_04h53.21.096,classification_task,2021.2.3,Win32,58.86508123,627c6715c52fd12f31907bd0,,,,,,,,,,,,,,,,,,,,,,,a,1,1.2422,"[""0.318"",""0.447"",""0.806"",""0.911""]","[1,1,0,1]",0,35,35,35,1,0,1,,,1,FALSE,,,,,,,,,,,,,,,,,,,,,,,,,,,,,,,
,61688a0ab42065563b1214d6,627c76724b251e97ee0dd0b8,2022-05-12_04h53.21.096,classification_task,2021.2.3,Win32,58.86508123,627c6715c52fd12f31907bd0,,,,,,,,,,,,,,,,,,,,,,,a,1,0.7334,"[""0.318"",""0.447"",""0.876"",""0.661""]","[1,1,1,0]",0,36,36,36,1,0,1,,,1,FALSE,,,,,,,,,,,,,,,,,,,,,,,,,,,,,,,
,61688a0ab42065563b1214d6,627c76724b251e97ee0dd0b8,2022-05-12_04h53.21.096,classification_task,2021.2.3,Win32,58.86508123,627c6715c52fd12f31907bd0,,,,,,,,,,,,,,,,,,,,,,,a,1,0.5979,"[""0.318"",""0.635"",""0.876"",""0.911""]","[1,0,1,1]",0,37,37,37,1,0,1,,,1,FALSE,,,,,,,,,,,,,,,,,,,,,,,,,,,,,,,
,61688a0ab42065563b1214d6,627c76724b251e97ee0dd0b8,2022-05-12_04h53.21.096,classification_task,2021.2.3,Win32,58.86508123,627c6715c52fd12f31907bd0,,,,,,,,,,,,,,,,,,,,,,,a,0,1.3902,"[""0.081"",""0.031"",""0.524"",""0.766""]","[1,0,1,1]",0,38,38,38,1,1,0,,,1,FALSE,,,,,,,,,,,,,,,,,,,,,,,,,,,,,,,
,61688a0ab42065563b1214d6,627c76724b251e97ee0dd0b8,2022-05-12_04h53.21.096,classification_task,2021.2.3,Win32,58.86508123,627c6715c52fd12f31907bd0,,,,,,,,,,,,,,,,,,,,,,,l,1,1.1927,"[""0.139"",""0.378"",""0.632"",""0.842""]","[1,1,0,1]",0,39,39,39,1,1,1,,,1,FALSE,,,,,,,,,,,,,,,,,,,,,,,,,,,,,,,
,61688a0ab42065563b1214d6,627c76724b251e97ee0dd0b8,2022-05-12_04h53.21.096,classification_task,2021.2.3,Win32,58.86508123,627c6715c52fd12f31907bd0,,,,,,,,,,,,,,,,,,,,,,,l,1,0.9644,"[""0.139"",""0.640"",""0.583"",""0.842""]","[1,0,1,1]",0,40,40,40,1,1,1,,,1,FALSE,,,,,,,,,,,,,,,,,,,,,,,,,,,,,,,
,61688a0ab42065563b1214d6,627c76724b251e97ee0dd0b8,2022-05-12_04h53.21.096,classification_task,2021.2.3,Win32,58.86508123,627c6715c52fd12f31907bd0,,,,,,,,,,,,,,,,,,,,,,,a,1,0.6684,"[""0.806"",""0.447"",""0.876"",""0.911""]","[0,1,1,1]",0,41,41,41,1,0,1,,,1,FALSE,,,,,,,,,,,,,,,,,,,,,,,,,,,,,,,
,61688a0ab42065563b1214d6,627c76724b251e97ee0dd0b8,2022-05-12_04h53.21.096,classification_task,2021.2.3,Win32,58.86508123,627c6715c52fd12f31907bd0,,,,,,,,,,,,,,,,,,,,,,,l,0,0.892,"[""0.190"",""0.482"",""0.720"",""0.660""]","[1,1,1,0]",0,42,42,42,1,0,0,,,1,FALSE,,,,,,,,,,,,,,,,,,,,,,,,,,,,,,,
,61688a0ab42065563b1214d6,627c76724b251e97ee0dd0b8,2022-05-12_04h53.21.096,classification_task,2021.2.3,Win32,58.86508123,627c6715c52fd12f31907bd0,,,,,,,,,,,,,,,,,,,,,,,l,0,1.1642,"[""0.635"",""0.482"",""0.720"",""0.964""]","[0,1,1,1]",0,43,43,43,1,0,0,,,1,FALSE,,,,,,,,,,,,,,,,,,,,,,,,,,,,,,,
,61688a0ab42065563b1214d6,627c76724b251e97ee0dd0b8,2022-05-12_04h53.21.096,classification_task,2021.2.3,Win32,58.86508123,627c6715c52fd12f31907bd0,,,,,,,,,,,,,,,,,,,,,,,a,0,0.4492,"[""0.081"",""0.253"",""0.661"",""0.766""]","[1,1,0,1]",0,44,44,44,1,1,0,,,1,FALSE,,,,,,,,,,,,,,,,,,,,,,,,,,,,,,,
,61688a0ab42065563b1214d6,627c76724b251e97ee0dd0b8,2022-05-12_04h53.21.096,classification_task,2021.2.3,Win32,58.86508123,627c6715c52fd12f31907bd0,,,,,,,,,,,,,,,,,,,,,,,l,1,0.3489,"[""0.081"",""0.253"",""0.524"",""0.635""]","[1,1,1,0]",0,45,45,45,1,1,0,,,1,FALSE,,,,,,,,,,,,,,,,,,,,,,,,,,,,,,,
,61688a0ab42065563b1214d6,627c76724b251e97ee0dd0b8,2022-05-12_04h53.21.096,classification_task,2021.2.3,Win32,58.86508123,627c6715c52fd12f31907bd0,,,,,,,,,,,,,,,,,,,,,,,l,0,0.5745,"[""0.190"",""0.026"",""0.720"",""0.964""]","[1,0,1,1]",0,46,46,46,1,0,0,,,1,FALSE,,,,,,,,,,,,,,,,,,,,,,,,,,,,,,,
,61688a0ab42065563b1214d6,627c76724b251e97ee0dd0b8,2022-05-12_04h53.21.096,classification_task,2021.2.3,Win32,58.86508123,627c6715c52fd12f31907bd0,,,,,,,,,,,,,,,,,,,,,,,l,1,0.9932,"[""0.139"",""0.378"",""0.583"",""0.026""]","[1,1,1,0]",0,47,47,47,1,1,1,,,1,FALSE,,,,,,,,,,,,,,,,,,,,,,,,,,,,,,,
,61688a0ab42065563b1214d6,627c76724b251e97ee0dd0b8,2022-05-12_04h53.21.096,classification_task,2021.2.3,Win32,58.86508123,627c6715c52fd12f31907bd0,,,,,,,,,,,,,,,,,,,,,,,a,0,0.8157,"[""0.026"",""0.253"",""0.524"",""0.766""]","[0,1,1,1]",0,48,48,48,1,1,0,,,1,FALSE,,,,,,,,,,,,,,,,,,,,,,,,,,,,,,,
,61688a0ab42065563b1214d6,627c76724b251e97ee0dd0b8,2022-05-12_04h53.21.096,classification_task,2021.2.3,Win32,58.86508123,627c6715c52fd12f31907bd0,,,,,,,,,,,,,,,,,,,,,,,l,1,0.3836,"[""0.081"",""0.253"",""0.635"",""0.766""]","[1,1,0,1]",0,49,49,49,1,1,0,,,1,FALSE,,,,,,,,,,,,,,,,,,,,,,,,,,,,,,,
,61688a0ab42065563b1214d6,627c76724b251e97ee0dd0b8,2022-05-12_04h53.21.096,classification_task,2021.2.3,Win32,58.86508123,627c6715c52fd12f31907bd0,,,,,,,,,,,,,,,,,,,,,,,l,0,0.6794,"[""0.190"",""0.482"",""0.685"",""0.964""]","[1,1,0,1]",0,50,50,50,1,0,0,,,1,FALSE,,,,,,,,,,,,,,,,,,,,,,,,,,,,,,,
,61688a0ab42065563b1214d6,627c76724b251e97ee0dd0b8,2022-05-12_04h53.21.096,classification_task,2021.2.3,Win32,58.86508123,627c6715c52fd12f31907bd0,,,,,,,,,,,,,,,,,,,,,,,l,0,0.9726,"[""0.804"",""0.447"",""0.876"",""0.911""]","[0,1,1,1]",0,51,51,51,1,0,1,,,1,FALSE,,,,,,,,,,,,,,,,,,,,,,,,,,,,,,,
,61688a0ab42065563b1214d6,627c76724b251e97ee0dd0b8,2022-05-12_04h53.21.096,classification_task,2021.2.3,Win32,58.86508123,627c6715c52fd12f31907bd0,,,,,,,,,,,,,,,,,,,,,,,a,1,1.0996,"[""0.318"",""0.447"",""0.635"",""0.911""]","[1,1,0,1]",0,52,52,52,1,0,1,,,1,FALSE,,,,,,,,,,,,,,,,,,,,,,,,,,,,,,,
,61688a0ab42065563b1214d6,627c76724b251e97ee0dd0b8,2022-05-12_04h53.21.096,classification_task,2021.2.3,Win32,58.86508123,627c6715c52fd12f31907bd0,,,,,,,,,,,,,,,,,,,,,,,l,1,0.9983,"[""0.081"",""0.253"",""0.524"",""0.036""]","[1,1,1,0]",0,53,53,53,1,1,0,,,1,FALSE,,,,,,,,,,,,,,,,,,,,,,,,,,,,,,,
,61688a0ab42065563b1214d6,627c76724b251e97ee0dd0b8,2022-05-12_04h53.21.096,classification_task,2021.2.3,Win32,58.86508123,627c6715c52fd12f31907bd0,,,,,,,,,,,,,,,,,,,,,,,a,1,2.0801,"[""0.318"",""0.032"",""0.876"",""0.911""]","[1,0,1,1]",0,54,54,54,1,0,1,,,1,FALSE,,,,,,,,,,,,,,,,,,,,,,,,,,,,,,,
,61688a0ab42065563b1214d6,627c76724b251e97ee0dd0b8,2022-05-12_04h53.21.096,classification_task,2021.2.3,Win32,58.86508123,627c6715c52fd12f31907bd0,,,,,,,,,,,,,,,,,,,,,,,a,1,1.83,"[""0.030"",""0.482"",""0.720"",""0.964""]","[0,1,1,1]",0,55,55,55,1,0,0,,,1,FALSE,,,,,,,,,,,,,,,,,,,,,,,,,,,,,,,
,61688a0ab42065563b1214d6,627c76724b251e97ee0dd0b8,2022-05-12_04h53.21.096,classification_task,2021.2.3,Win32,58.86508123,627c6715c52fd12f31907bd0,,,,,,,,,,,,,,,,,,,,,,,l,1,2.1553,"[""0.139"",""0.378"",""0.583"",""0.640""]","[1,1,1,0]",0,56,56,56,1,1,1,,,1,FALSE,,,,,,,,,,,,,,,,,,,,,,,,,,,,,,,
,61688a0ab42065563b1214d6,627c76724b251e97ee0dd0b8,2022-05-12_04h53.21.096,classification_task,2021.2.3,Win32,58.86508123,627c6715c52fd12f31907bd0,,,,,,,,,,,,,,,,,,,,,,,l,1,1.2321,"[""0.139"",""0.032"",""0.583"",""0.842""]","[1,0,1,1]",0,57,57,57,1,1,1,,,1,FALSE,,,,,,,,,,,,,,,,,,,,,,,,,,,,,,,
,61688a0ab42065563b1214d6,627c76724b251e97ee0dd0b8,2022-05-12_04h53.21.096,classification_task,2021.2.3,Win32,58.86508123,627c6715c52fd12f31907bd0,,,,,,,,,,,,,,,,,,,,,,,a,1,2.1127,"[""0.318"",""0.447"",""0.876"",""0.806""]","[1,1,1,0]",0,58,58,58,1,0,1,,,1,FALSE,,,,,,,,,,,,,,,,,,,,,,,,,,,,,,,
,61688a0ab42065563b1214d6,627c76724b251e97ee0dd0b8,2022-05-12_04h53.21.096,classification_task,2021.2.3,Win32,58.86508123,627c6715c52fd12f31907bd0,,,,,,,,,,,,,,,,,,,,,,,a,1,1.9765,"[""0.190"",""0.660"",""0.720"",""0.964""]","[1,0,1,1]",0,59,59,59,1,0,0,,,1,FALSE,,,,,,,,,,,,,,,,,,,,,,,,,,,,,,,
,61688a0ab42065563b1214d6,627c76724b251e97ee0dd0b8,2022-05-12_04h53.21.096,classification_task,2021.2.3,Win32,58.86508123,627c6715c52fd12f31907bd0,,,,,,,,,,,,,,,,,,,,,,,l,1,1.4139,"[""0.632"",""0.378"",""0.583"",""0.842""]","[0,1,1,1]",0,60,60,60,1,1,1,,,1,FALSE,,,,,,,,,,,,,,,,,,,,,,,,,,,,,,,
,61688a0ab42065563b1214d6,627c76724b251e97ee0dd0b8,2022-05-12_04h53.21.096,classification_task,2021.2.3,Win32,58.86508123,627c6715c52fd12f31907bd0,,,,,,,,,,,,,,,,,,,,,,,l,1,2.0547,"[""0.081"",""0.030"",""0.524"",""0.766""]","[1,0,1,1]",0,61,61,61,1,1,0,,,1,FALSE,,,,,,,,,,,,,,,,,,,,,,,,,,,,,,,
,61688a0ab42065563b1214d6,627c76724b251e97ee0dd0b8,2022-05-12_04h53.21.096,classification_task,2021.2.3,Win32,58.86508123,627c6715c52fd12f31907bd0,,,,,,,,,,,,,,,,,,,,,,,l,1,1.21,"[""0.139"",""0.378"",""0.661"",""0.842""]","[1,1,0,1]",0,62,62,62,1,1,1,,,1,FALSE,,,,,,,,,,,,,,,,,,,,,,,,,,,,,,,
,61688a0ab42065563b1214d6,627c76724b251e97ee0dd0b8,2022-05-12_04h53.21.096,classification_task,2021.2.3,Win32,58.86508123,627c6715c52fd12f31907bd0,,,,,,,,,,,,,,,,,,,,,,,a,1,1.4401,"[""0.190"",""0.482"",""0.720"",""0.636""]","[1,1,1,0]",0,63,63,63,1,0,0,,,1,FALSE,,,,,,,,,,,,,,,,,,,,,,,,,,,,,,,
,61688a0ab42065563b1214d6,627c76724b251e97ee0dd0b8,2022-05-12_04h53.21.096,classification_task,2021.2.3,Win32,58.86508123,627c6715c52fd12f31907bd0,,,,,,,,,,,,,,,,,,,,,,,,,,,,,,,,,,,,,,,0, ,,0,9.719190917,171.9662,0,1,1,1,1,2,2,,,,,,,,,,,,,,,,,,
,61688a0ab42065563b1214d6,627c76724b251e97ee0dd0b8,2022-05-12_04h53.21.096,classification_task,2021.2.3,Win32,58.86508123,627c6715c52fd12f31907bd0,,,,,,,,,,,,,,,,,,,,,,,,,,,,,,,,,,,,,,,1,  ,,0,10,172.8997,0,1,1,1,1,2,2,,,,,,,,,,,,,,,,,,
,61688a0ab42065563b1214d6,627c76724b251e97ee0dd0b8,2022-05-12_04h53.21.096,classification_task,2021.2.3,Win32,58.86508123,627c6715c52fd12f31907bd0,,,,,,,,,,,,,,,,,,,,,,,,,,,,,,,,,,,,,,,2,  ,,0,10,174.0663,0,1,1,1,1,2,2,,,,,,,,,,,,,,,,,,
,61688a0ab42065563b1214d6,627c76724b251e97ee0dd0b8,2022-05-12_04h53.21.096,classification_task,2021.2.3,Win32,58.86508123,627c6715c52fd12f31907bd0,,,,,,,,,,,,,,,,,,,,,,,,,,,,,,,,,,,,,,,,,,,,,0,1,1,1,1,,2,,,,,,,,,,,,,,,,,,
,61688a0ab42065563b1214d6,627c76724b251e97ee0dd0b8,2022-05-12_04h53.21.096,classification_task,2021.2.3,Win32,58.86508123,627c6715c52fd12f31907bd0,,,,,,,,,,,,,,,,,,,,,space,3.6634,a,0,1.7355,"[""0.139"",""0.660"",""0.583"",""0.842""]","[1,0,1,1]",0,0,0,0,1,1,1,,,1,FALSE,,,,,,,,,,,,,,,,,,,,,,,,,,,,,,,
,61688a0ab42065563b1214d6,627c76724b251e97ee0dd0b8,2022-05-12_04h53.21.096,classification_task,2021.2.3,Win32,58.86508123,627c6715c52fd12f31907bd0,,,,,,,,,,,,,,,,,,,,,,,l,1,3.3658,"[""0.081"",""0.253"",""0.632"",""0.766""]","[1,1,0,1]",0,1,1,1,1,1,0,,,1,FALSE,,,,,,,,,,,,,,,,,,,,,,,,,,,,,,,
,61688a0ab42065563b1214d6,627c76724b251e97ee0dd0b8,2022-05-12_04h53.21.096,classification_task,2021.2.3,Win32,58.86508123,627c6715c52fd12f31907bd0,,,,,,,,,,,,,,,,,,,,,,,a,0,1.1348,"[""0.139"",""0.378"",""0.635"",""0.842""]","[1,1,0,1]",0,2,2,2,1,1,1,,,1,FALSE,,,,,,,,,,,,,,,,,,,,,,,,,,,,,,,
,61688a0ab42065563b1214d6,627c76724b251e97ee0dd0b8,2022-05-12_04h53.21.096,classification_task,2021.2.3,Win32,58.86508123,627c6715c52fd12f31907bd0,,,,,,,,,,,,,,,,,,,,,,,a,1,0.9497,"[""0.685"",""0.482"",""0.720"",""0.964""]","[0,1,1,1]",0,3,3,3,1,0,0,,,1,FALSE,,,,,,,,,,,,,,,,,,,,,,,,,,,,,,,
,61688a0ab42065563b1214d6,627c76724b251e97ee0dd0b8,2022-05-12_04h53.21.096,classification_task,2021.2.3,Win32,58.86508123,627c6715c52fd12f31907bd0,,,,,,,,,,,,,,,,,,,,,,,a,0,1.6157,"[""0.081"",""0.636"",""0.524"",""0.766""]","[1,0,1,1]",0,4,4,4,1,1,0,,,1,FALSE,,,,,,,,,,,,,,,,,,,,,,,,,,,,,,,
,61688a0ab42065563b1214d6,627c76724b251e97ee0dd0b8,2022-05-12_04h53.21.096,classification_task,2021.2.3,Win32,58.86508123,627c6715c52fd12f31907bd0,,,,,,,,,,,,,,,,,,,,,,,l,0,3.3145,"[""0.190"",""0.482"",""0.720"",""0.031""]","[1,1,1,0]",0,5,5,5,1,0,0,,,1,FALSE,,,,,,,,,,,,,,,,,,,,,,,,,,,,,,,
,61688a0ab42065563b1214d6,627c76724b251e97ee0dd0b8,2022-05-12_04h53.21.096,classification_task,2021.2.3,Win32,58.86508123,627c6715c52fd12f31907bd0,,,,,,,,,,,,,,,,,,,,,,,a,1,1.0046,"[""0.030"",""0.447"",""0.876"",""0.911""]","[0,1,1,1]",0,6,6,6,1,0,1,,,1,FALSE,,,,,,,,,,,,,,,,,,,,,,,,,,,,,,,
,61688a0ab42065563b1214d6,627c76724b251e97ee0dd0b8,2022-05-12_04h53.21.096,classification_task,2021.2.3,Win32,58.86508123,627c6715c52fd12f31907bd0,,,,,,,,,,,,,,,,,,,,,,,a,1,0.9969,"[""0.318"",""0.447"",""0.636"",""0.911""]","[1,1,0,1]",0,7,7,7,1,0,1,,,1,FALSE,,,,,,,,,,,,,,,,,,,,,,,,,,,,,,,
,61688a0ab42065563b1214d6,627c76724b251e97ee0dd0b8,2022-05-12_04h53.21.096,classification_task,2021.2.3,Win32,58.86508123,627c6715c52fd12f31907bd0,,,,,,,,,,,,,,,,,,,,,,,a,1,0.6832,"[""0.318"",""0.661"",""0.876"",""0.911""]","[1,0,1,1]",0,8,8,8,1,0,1,,,1,FALSE,,,,,,,,,,,,,,,,,,,,,,,,,,,,,,,
,61688a0ab42065563b1214d6,627c76724b251e97ee0dd0b8,2022-05-12_04h53.21.096,classification_task,2021.2.3,Win32,58.86508123,627c6715c52fd12f31907bd0,,,,,,,,,,,,,,,,,,,,,,,a,1,1.5499,"[""0.190"",""0.482"",""0.636"",""0.964""]","[1,1,0,1]",0,9,9,9,1,0,0,,,1,FALSE,,,,,,,,,,,,,,,,,,,,,,,,,,,,,,,
,61688a0ab42065563b1214d6,627c76724b251e97ee0dd0b8,2022-05-12_04h53.21.096,classification_task,2021.2.3,Win32,58.86508123,627c6715c52fd12f31907bd0,,,,,,,,,,,,,,,,,,,,,,,a,0,0.7475,"[""0.632"",""0.253"",""0.524"",""0.766""]","[0,1,1,1]",0,10,10,10,1,1,0,,,1,FALSE,,,,,,,,,,,,,,,,,,,,,,,,,,,,,,,
,61688a0ab42065563b1214d6,627c76724b251e97ee0dd0b8,2022-05-12_04h53.21.096,classification_task,2021.2.3,Win32,58.86508123,627c6715c52fd12f31907bd0,,,,,,,,,,,,,,,,,,,,,,,l,0,1.0201,"[""0.318"",""0.447"",""0.876"",""0.036""]","[1,1,1,0]",0,11,11,11,1,0,1,,,1,FALSE,,,,,,,,,,,,,,,,,,,,,,,,,,,,,,,
,61688a0ab42065563b1214d6,627c76724b251e97ee0dd0b8,2022-05-12_04h53.21.096,classification_task,2021.2.3,Win32,58.86508123,627c6715c52fd12f31907bd0,,,,,,,,,,,,,,,,,,,,,,,a,0,0.783,"[""0.806"",""0.378"",""0.583"",""0.842""]","[0,1,1,1]",0,12,12,12,1,1,1,,,1,FALSE,,,,,,,,,,,,,,,,,,,,,,,,,,,,,,,
,61688a0ab42065563b1214d6,627c76724b251e97ee0dd0b8,2022-05-12_04h53.21.096,classification_task,2021.2.3,Win32,58.86508123,627c6715c52fd12f31907bd0,,,,,,,,,,,,,,,,,,,,,,,l,1,0.5655,"[""0.139"",""0.378"",""0.583"",""0.032""]","[1,1,1,0]",0,13,13,13,1,1,1,,,1,FALSE,,,,,,,,,,,,,,,,,,,,,,,,,,,,,,,
,61688a0ab42065563b1214d6,627c76724b251e97ee0dd0b8,2022-05-12_04h53.21.096,classification_task,2021.2.3,Win32,58.86508123,627c6715c52fd12f31907bd0,,,,,,,,,,,,,,,,,,,,,,,a,1,0.6986,"[""0.190"",""0.032"",""0.720"",""0.964""]","[1,0,1,1]",0,14,14,14,1,0,0,,,1,FALSE,,,,,,,,,,,,,,,,,,,,,,,,,,,,,,,
,61688a0ab42065563b1214d6,627c76724b251e97ee0dd0b8,2022-05-12_04h53.21.096,classification_task,2021.2.3,Win32,58.86508123,627c6715c52fd12f31907bd0,,,,,,,,,,,,,,,,,,,,,,,l,1,0.6899,"[""0.081"",""0.253"",""0.524"",""0.635""]","[1,1,1,0]",0,15,15,15,1,1,0,,,1,FALSE,,,,,,,,,,,,,,,,,,,,,,,,,,,,,,,
,61688a0ab42065563b1214d6,627c76724b251e97ee0dd0b8,2022-05-12_04h53.21.096,classification_task,2021.2.3,Win32,58.86508123,627c6715c52fd12f31907bd0,,,,,,,,,,,,,,,,,,,,,,,a,0,0.6673,"[""0.139"",""0.632"",""0.583"",""0.842""]","[1,0,1,1]",0,16,16,16,1,1,1,,,1,FALSE,,,,,,,,,,,,,,,,,,,,,,,,,,,,,,,
,61688a0ab42065563b1214d6,627c76724b251e97ee0dd0b8,2022-05-12_04h53.21.096,classification_task,2021.2.3,Win32,58.86508123,627c6715c52fd12f31907bd0,,,,,,,,,,,,,,,,,,,,,,,a,0,0.6866,"[""0.139"",""0.378"",""0.636"",""0.842""]","[1,1,0,1]",0,17,17,17,1,1,1,,,1,FALSE,,,,,,,,,,,,,,,,,,,,,,,,,,,,,,,
,61688a0ab42065563b1214d6,627c76724b251e97ee0dd0b8,2022-05-12_04h53.21.096,classification_task,2021.2.3,Win32,58.86508123,627c6715c52fd12f31907bd0,,,,,,,,,,,,,,,,,,,,,,,l,1,0.7167,"[""0.081"",""0.253"",""0.632"",""0.766""]","[1,1,0,1]",0,18,18,18,1,1,0,,,1,FALSE,,,,,,,,,,,,,,,,,,,,,,,,,,,,,,,
,61688a0ab42065563b1214d6,627c76724b251e97ee0dd0b8,2022-05-12_04h53.21.096,classification_task,2021.2.3,Win32,58.86508123,627c6715c52fd12f31907bd0,,,,,,,,,,,,,,,,,,,,,,,a,1,0.801,"[""0.190"",""0.036"",""0.720"",""0.964""]","[1,0,1,1]",0,19,19,19,1,0,0,,,1,FALSE,,,,,,,,,,,,,,,,,,,,,,,,,,,,,,,
,61688a0ab42065563b1214d6,627c76724b251e97ee0dd0b8,2022-05-12_04h53.21.096,classification_task,2021.2.3,Win32,58.86508123,627c6715c52fd12f31907bd0,,,,,,,,,,,,,,,,,,,,,,,a,1,1.003,"[""0.190"",""0.482"",""0.720"",""0.660""]","[1,1,1,0]",0,20,20,20,1,0,0,,,1,FALSE,,,,,,,,,,,,,,,,,,,,,,,,,,,,,,,
,61688a0ab42065563b1214d6,627c76724b251e97ee0dd0b8,2022-05-12_04h53.21.096,classification_task,2021.2.3,Win32,58.86508123,627c6715c52fd12f31907bd0,,,,,,,,,,,,,,,,,,,,,,,a,1,0.7184,"[""0.318"",""0.447"",""0.632"",""0.911""]","[1,1,0,1]",0,21,21,21,1,0,1,,,1,FALSE,,,,,,,,,,,,,,,,,,,,,,,,,,,,,,,
,61688a0ab42065563b1214d6,627c76724b251e97ee0dd0b8,2022-05-12_04h53.21.096,classification_task,2021.2.3,Win32,58.86508123,627c6715c52fd12f31907bd0,,,,,,,,,,,,,,,,,,,,,,,a,1,0.6217,"[""0.190"",""0.482"",""0.636"",""0.964""]","[1,1,0,1]",0,22,22,22,1,0,0,,,1,FALSE,,,,,,,,,,,,,,,,,,,,,,,,,,,,,,,
,61688a0ab42065563b1214d6,627c76724b251e97ee0dd0b8,2022-05-12_04h53.21.096,classification_task,2021.2.3,Win32,58.86508123,627c6715c52fd12f31907bd0,,,,,,,,,,,,,,,,,,,,,,,a,1,0.5814,"[""0.640"",""0.482"",""0.720"",""0.964""]","[0,1,1,1]",0,23,23,23,1,0,0,,,1,FALSE,,,,,,,,,,,,,,,,,,,,,,,,,,,,,,,
,61688a0ab42065563b1214d6,627c76724b251e97ee0dd0b8,2022-05-12_04h53.21.096,classification_task,2021.2.3,Win32,58.86508123,627c6715c52fd12f31907bd0,,,,,,,,,,,,,,,,,,,,,,,l,1,0.7334,"[""0.030"",""0.253"",""0.524"",""0.766""]","[0,1,1,1]",0,24,24,24,1,1,0,,,1,FALSE,,,,,,,,,,,,,,,,,,,,,,,,,,,,,,,
,61688a0ab42065563b1214d6,627c76724b251e97ee0dd0b8,2022-05-12_04h53.21.096,classification_task,2021.2.3,Win32,58.86508123,627c6715c52fd12f31907bd0,,,,,,,,,,,,,,,,,,,,,,,a,0,0.6991,"[""0.640"",""0.378"",""0.583"",""0.842""]","[0,1,1,1]",0,25,25,25,1,1,1,,,1,FALSE,,,,,,,,,,,,,,,,,,,,,,,,,,,,,,,
,61688a0ab42065563b1214d6,627c76724b251e97ee0dd0b8,2022-05-12_04h53.21.096,classification_task,2021.2.3,Win32,58.86508123,627c6715c52fd12f31907bd0,,,,,,,,,,,,,,,,,,,,,,,a,1,0.4696,"[""0.804"",""0.447"",""0.876"",""0.911""]","[0,1,1,1]",0,26,26,26,1,0,1,,,1,FALSE,,,,,,,,,,,,,,,,,,,,,,,,,,,,,,,
,61688a0ab42065563b1214d6,627c76724b251e97ee0dd0b8,2022-05-12_04h53.21.096,classification_task,2021.2.3,Win32,58.86508123,627c6715c52fd12f31907bd0,,,,,,,,,,,,,,,,,,,,,,,a,1,0.3782,"[""0.318"",""0.804"",""0.876"",""0.911""]","[1,0,1,1]",0,27,27,27,1,0,1,,,1,FALSE,,,,,,,,,,,,,,,,,,,,,,,,,,,,,,,
,61688a0ab42065563b1214d6,627c76724b251e97ee0dd0b8,2022-05-12_04h53.21.096,classification_task,2021.2.3,Win32,58.86508123,627c6715c52fd12f31907bd0,,,,,,,,,,,,,,,,,,,,,,,a,1,0.3822,"[""0.318"",""0.447"",""0.876"",""0.036""]","[1,1,1,0]",0,28,28,28,1,0,1,,,1,FALSE,,,,,,,,,,,,,,,,,,,,,,,,,,,,,,,
,61688a0ab42065563b1214d6,627c76724b251e97ee0dd0b8,2022-05-12_04h53.21.096,classification_task,2021.2.3,Win32,58.86508123,627c6715c52fd12f31907bd0,,,,,,,,,,,,,,,,,,,,,,,a,0,1.1837,"[""0.081"",""0.685"",""0.524"",""0.766""]","[1,0,1,1]",0,29,29,29,1,1,0,,,1,FALSE,,,,,,,,,,,,,,,,,,,,,,,,,,,,,,,
,61688a0ab42065563b1214d6,627c76724b251e97ee0dd0b8,2022-05-12_04h53.21.096,classification_task,2021.2.3,Win32,58.86508123,627c6715c52fd12f31907bd0,,,,,,,,,,,,,,,,,,,,,,,l,1,0.5345,"[""0.139"",""0.378"",""0.583"",""0.636""]","[1,1,1,0]",0,30,30,30,1,1,1,,,1,FALSE,,,,,,,,,,,,,,,,,,,,,,,,,,,,,,,
,61688a0ab42065563b1214d6,627c76724b251e97ee0dd0b8,2022-05-12_04h53.21.096,classification_task,2021.2.3,Win32,58.86508123,627c6715c52fd12f31907bd0,,,,,,,,,,,,,,,,,,,,,,,a,0,1.5235,"[""0.081"",""0.253"",""0.524"",""0.635""]","[1,1,1,0]",0,31,31,31,1,1,0,,,1,FALSE,,,,,,,,,,,,,,,,,,,,,,,,,,,,,,,
,61688a0ab42065563b1214d6,627c76724b251e97ee0dd0b8,2022-05-12_04h53.21.096,classification_task,2021.2.3,Win32,58.86508123,627c6715c52fd12f31907bd0,,,,,,,,,,,,,,,,,,,,,,,a,1,1.0494,"[""0.190"",""0.804"",""0.720"",""0.964""]","[1,0,1,1]",0,32,32,32,1,0,0,,,1,FALSE,,,,,,,,,,,,,,,,,,,,,,,,,,,,,,,
,61688a0ab42065563b1214d6,627c76724b251e97ee0dd0b8,2022-05-12_04h53.21.096,classification_task,2021.2.3,Win32,58.86508123,627c6715c52fd12f31907bd0,,,,,,,,,,,,,,,,,,,,,,,a,1,1.0323,"[""0.190"",""0.482"",""0.720"",""0.661""]","[1,1,1,0]",0,33,33,33,1,0,0,,,1,FALSE,,,,,,,,,,,,,,,,,,,,,,,,,,,,,,,
,61688a0ab42065563b1214d6,627c76724b251e97ee0dd0b8,2022-05-12_04h53.21.096,classification_task,2021.2.3,Win32,58.86508123,627c6715c52fd12f31907bd0,,,,,,,,,,,,,,,,,,,,,,,a,1,0.5491,"[""0.632"",""0.447"",""0.876"",""0.911""]","[0,1,1,1]",0,34,34,34,1,0,1,,,1,FALSE,,,,,,,,,,,,,,,,,,,,,,,,,,,,,,,
,61688a0ab42065563b1214d6,627c76724b251e97ee0dd0b8,2022-05-12_04h53.21.096,classification_task,2021.2.3,Win32,58.86508123,627c6715c52fd12f31907bd0,,,,,,,,,,,,,,,,,,,,,,,a,1,0.566,"[""0.660"",""0.482"",""0.720"",""0.964""]","[0,1,1,1]",0,35,35,35,1,0,0,,,1,FALSE,,,,,,,,,,,,,,,,,,,,,,,,,,,,,,,
,61688a0ab42065563b1214d6,627c76724b251e97ee0dd0b8,2022-05-12_04h53.21.096,classification_task,2021.2.3,Win32,58.86508123,627c6715c52fd12f31907bd0,,,,,,,,,,,,,,,,,,,,,,,l,1,0.617,"[""0.081"",""0.030"",""0.524"",""0.766""]","[1,0,1,1]",0,36,36,36,1,1,0,,,1,FALSE,,,,,,,,,,,,,,,,,,,,,,,,,,,,,,,
,61688a0ab42065563b1214d6,627c76724b251e97ee0dd0b8,2022-05-12_04h53.21.096,classification_task,2021.2.3,Win32,58.86508123,627c6715c52fd12f31907bd0,,,,,,,,,,,,,,,,,,,,,,,a,0,1.082,"[""0.139"",""0.378"",""0.635"",""0.842""]","[1,1,0,1]",0,37,37,37,1,1,1,,,1,FALSE,,,,,,,,,,,,,,,,,,,,,,,,,,,,,,,
,61688a0ab42065563b1214d6,627c76724b251e97ee0dd0b8,2022-05-12_04h53.21.096,classification_task,2021.2.3,Win32,58.86508123,627c6715c52fd12f31907bd0,,,,,,,,,,,,,,,,,,,,,,,a,1,0.5988,"[""0.190"",""0.482"",""0.636"",""0.964""]","[1,1,0,1]",0,38,38,38,1,0,0,,,1,FALSE,,,,,,,,,,,,,,,,,,,,,,,,,,,,,,,
,61688a0ab42065563b1214d6,627c76724b251e97ee0dd0b8,2022-05-12_04h53.21.096,classification_task,2021.2.3,Win32,58.86508123,627c6715c52fd12f31907bd0,,,,,,,,,,,,,,,,,,,,,,,l,1,0.5324,"[""0.081"",""0.253"",""0.036"",""0.766""]","[1,1,0,1]",0,39,39,39,1,1,0,,,1,FALSE,,,,,,,,,,,,,,,,,,,,,,,,,,,,,,,
,61688a0ab42065563b1214d6,627c76724b251e97ee0dd0b8,2022-05-12_04h53.21.096,classification_task,2021.2.3,Win32,58.86508123,627c6715c52fd12f31907bd0,,,,,,,,,,,,,,,,,,,,,,,a,1,0.7205,"[""0.318"",""0.447"",""0.640"",""0.911""]","[1,1,0,1]",0,40,40,40,1,0,1,,,1,FALSE,,,,,,,,,,,,,,,,,,,,,,,,,,,,,,,
,61688a0ab42065563b1214d6,627c76724b251e97ee0dd0b8,2022-05-12_04h53.21.096,classification_task,2021.2.3,Win32,58.86508123,627c6715c52fd12f31907bd0,,,,,,,,,,,,,,,,,,,,,,,a,1,0.6204,"[""0.318"",""0.632"",""0.876"",""0.911""]","[1,0,1,1]",0,41,41,41,1,0,1,,,1,FALSE,,,,,,,,,,,,,,,,,,,,,,,,,,,,,,,
,61688a0ab42065563b1214d6,627c76724b251e97ee0dd0b8,2022-05-12_04h53.21.096,classification_task,2021.2.3,Win32,58.86508123,627c6715c52fd12f31907bd0,,,,,,,,,,,,,,,,,,,,,,,l,1,0.6097,"[""0.081"",""0.253"",""0.524"",""0.640""]","[1,1,1,0]",0,42,42,42,1,1,0,,,1,FALSE,,,,,,,,,,,,,,,,,,,,,,,,,,,,,,,
,61688a0ab42065563b1214d6,627c76724b251e97ee0dd0b8,2022-05-12_04h53.21.096,classification_task,2021.2.3,Win32,58.86508123,627c6715c52fd12f31907bd0,,,,,,,,,,,,,,,,,,,,,,,l,0,0.6337,"[""0.318"",""0.447"",""0.876"",""0.030""]","[1,1,1,0]",0,43,43,43,1,0,1,,,1,FALSE,,,,,,,,,,,,,,,,,,,,,,,,,,,,,,,
,61688a0ab42065563b1214d6,627c76724b251e97ee0dd0b8,2022-05-12_04h53.21.096,classification_task,2021.2.3,Win32,58.86508123,627c6715c52fd12f31907bd0,,,,,,,,,,,,,,,,,,,,,,,a,0,0.5653,"[""0.139"",""0.685"",""0.583"",""0.842""]","[1,0,1,1]",0,44,44,44,1,1,1,,,1,FALSE,,,,,,,,,,,,,,,,,,,,,,,,,,,,,,,
,61688a0ab42065563b1214d6,627c76724b251e97ee0dd0b8,2022-05-12_04h53.21.096,classification_task,2021.2.3,Win32,58.86508123,627c6715c52fd12f31907bd0,,,,,,,,,,,,,,,,,,,,,,,l,1,0.5834,"[""0.139"",""0.378"",""0.583"",""0.632""]","[1,1,1,0]",0,45,45,45,1,1,1,,,1,FALSE,,,,,,,,,,,,,,,,,,,,,,,,,,,,,,,
,61688a0ab42065563b1214d6,627c76724b251e97ee0dd0b8,2022-05-12_04h53.21.096,classification_task,2021.2.3,Win32,58.86508123,627c6715c52fd12f31907bd0,,,,,,,,,,,,,,,,,,,,,,,l,1,1.051,"[""0.032"",""0.253"",""0.524"",""0.766""]","[0,1,1,1]",0,46,46,46,1,1,0,,,1,FALSE,,,,,,,,,,,,,,,,,,,,,,,,,,,,,,,
,61688a0ab42065563b1214d6,627c76724b251e97ee0dd0b8,2022-05-12_04h53.21.096,classification_task,2021.2.3,Win32,58.86508123,627c6715c52fd12f31907bd0,,,,,,,,,,,,,,,,,,,,,,,a,0,0.965,"[""0.036"",""0.378"",""0.583"",""0.842""]","[0,1,1,1]",0,47,47,47,1,1,1,,,1,FALSE,,,,,,,,,,,,,,,,,,,,,,,,,,,,,,,
,61688a0ab42065563b1214d6,627c76724b251e97ee0dd0b8,2022-05-12_04h53.21.096,classification_task,2021.2.3,Win32,58.86508123,627c6715c52fd12f31907bd0,,,,,,,,,,,,,,,,,,,,,,,a,0,0.7667,"[""0.139"",""0.660"",""0.583"",""0.842""]","[1,0,1,1]",0,48,48,48,1,1,1,,,1,FALSE,,,,,,,,,,,,,,,,,,,,,,,,,,,,,,,
,61688a0ab42065563b1214d6,627c76724b251e97ee0dd0b8,2022-05-12_04h53.21.096,classification_task,2021.2.3,Win32,58.86508123,627c6715c52fd12f31907bd0,,,,,,,,,,,,,,,,,,,,,,,l,0,0.551,"[""0.318"",""0.447"",""0.036"",""0.911""]","[1,1,0,1]",0,49,49,49,1,0,1,,,1,FALSE,,,,,,,,,,,,,,,,,,,,,,,,,,,,,,,
,61688a0ab42065563b1214d6,627c76724b251e97ee0dd0b8,2022-05-12_04h53.21.096,classification_task,2021.2.3,Win32,58.86508123,627c6715c52fd12f31907bd0,,,,,,,,,,,,,,,,,,,,,,,l,0,0.6005,"[""0.190"",""0.482"",""0.036"",""0.964""]","[1,1,0,1]",0,50,50,50,1,0,0,,,1,FALSE,,,,,,,,,,,,,,,,,,,,,,,,,,,,,,,
,61688a0ab42065563b1214d6,627c76724b251e97ee0dd0b8,2022-05-12_04h53.21.096,classification_task,2021.2.3,Win32,58.86508123,627c6715c52fd12f31907bd0,,,,,,,,,,,,,,,,,,,,,,,a,0,0.8315,"[""0.806"",""0.253"",""0.524"",""0.766""]","[0,1,1,1]",0,51,51,51,1,1,0,,,1,FALSE,,,,,,,,,,,,,,,,,,,,,,,,,,,,,,,
,61688a0ab42065563b1214d6,627c76724b251e97ee0dd0b8,2022-05-12_04h53.21.096,classification_task,2021.2.3,Win32,58.86508123,627c6715c52fd12f31907bd0,,,,,,,,,,,,,,,,,,,,,,,a,1,0.6319,"[""0.661"",""0.482"",""0.720"",""0.964""]","[0,1,1,1]",0,52,52,52,1,0,0,,,1,FALSE,,,,,,,,,,,,,,,,,,,,,,,,,,,,,,,
,61688a0ab42065563b1214d6,627c76724b251e97ee0dd0b8,2022-05-12_04h53.21.096,classification_task,2021.2.3,Win32,58.86508123,627c6715c52fd12f31907bd0,,,,,,,,,,,,,,,,,,,,,,,a,0,1.7504,"[""0.081"",""0.253"",""0.806"",""0.766""]","[1,1,0,1]",0,53,53,53,1,1,0,,,1,FALSE,,,,,,,,,,,,,,,,,,,,,,,,,,,,,,,
,61688a0ab42065563b1214d6,627c76724b251e97ee0dd0b8,2022-05-12_04h53.21.096,classification_task,2021.2.3,Win32,58.86508123,627c6715c52fd12f31907bd0,,,,,,,,,,,,,,,,,,,,,,,a,1,1.3827,"[""0.190"",""0.032"",""0.720"",""0.964""]","[1,0,1,1]",0,54,54,54,1,0,0,,,1,FALSE,,,,,,,,,,,,,,,,,,,,,,,,,,,,,,,
,61688a0ab42065563b1214d6,627c76724b251e97ee0dd0b8,2022-05-12_04h53.21.096,classification_task,2021.2.3,Win32,58.86508123,627c6715c52fd12f31907bd0,,,,,,,,,,,,,,,,,,,,,,,a,0,0.7495,"[""0.139"",""0.378"",""0.660"",""0.842""]","[1,1,0,1]",0,55,55,55,1,1,1,,,1,FALSE,,,,,,,,,,,,,,,,,,,,,,,,,,,,,,,
,61688a0ab42065563b1214d6,627c76724b251e97ee0dd0b8,2022-05-12_04h53.21.096,classification_task,2021.2.3,Win32,58.86508123,627c6715c52fd12f31907bd0,,,,,,,,,,,,,,,,,,,,,,,l,1,0.5185,"[""0.081"",""0.253"",""0.524"",""0.030""]","[1,1,1,0]",0,56,56,56,1,1,0,,,1,FALSE,,,,,,,,,,,,,,,,,,,,,,,,,,,,,,,
,61688a0ab42065563b1214d6,627c76724b251e97ee0dd0b8,2022-05-12_04h53.21.096,classification_task,2021.2.3,Win32,58.86508123,627c6715c52fd12f31907bd0,,,,,,,,,,,,,,,,,,,,,,,l,1,0.6339,"[""0.139"",""0.378"",""0.583"",""0.030""]","[1,1,1,0]",0,57,57,57,1,1,1,,,1,FALSE,,,,,,,,,,,,,,,,,,,,,,,,,,,,,,,
,61688a0ab42065563b1214d6,627c76724b251e97ee0dd0b8,2022-05-12_04h53.21.096,classification_task,2021.2.3,Win32,58.86508123,627c6715c52fd12f31907bd0,,,,,,,,,,,,,,,,,,,,,,,a,1,1.6492,"[""0.190"",""0.482"",""0.720"",""0.660""]","[1,1,1,0]",0,58,58,58,1,0,0,,,1,FALSE,,,,,,,,,,,,,,,,,,,,,,,,,,,,,,,
,61688a0ab42065563b1214d6,627c76724b251e97ee0dd0b8,2022-05-12_04h53.21.096,classification_task,2021.2.3,Win32,58.86508123,627c6715c52fd12f31907bd0,,,,,,,,,,,,,,,,,,,,,,,a,1,0.7505,"[""0.318"",""0.447"",""0.876"",""0.636""]","[1,1,1,0]",0,59,59,59,1,0,1,,,1,FALSE,,,,,,,,,,,,,,,,,,,,,,,,,,,,,,,
,61688a0ab42065563b1214d6,627c76724b251e97ee0dd0b8,2022-05-12_04h53.21.096,classification_task,2021.2.3,Win32,58.86508123,627c6715c52fd12f31907bd0,,,,,,,,,,,,,,,,,,,,,,,a,0,0.9174,"[""0.026"",""0.378"",""0.583"",""0.842""]","[0,1,1,1]",0,60,60,60,1,1,1,,,1,FALSE,,,,,,,,,,,,,,,,,,,,,,,,,,,,,,,
,61688a0ab42065563b1214d6,627c76724b251e97ee0dd0b8,2022-05-12_04h53.21.096,classification_task,2021.2.3,Win32,58.86508123,627c6715c52fd12f31907bd0,,,,,,,,,,,,,,,,,,,,,,,a,1,0.5989,"[""0.318"",""0.635"",""0.876"",""0.911""]","[1,0,1,1]",0,61,61,61,1,0,1,,,1,FALSE,,,,,,,,,,,,,,,,,,,,,,,,,,,,,,,
,61688a0ab42065563b1214d6,627c76724b251e97ee0dd0b8,2022-05-12_04h53.21.096,classification_task,2021.2.3,Win32,58.86508123,627c6715c52fd12f31907bd0,,,,,,,,,,,,,,,,,,,,,,,a,0,0.7988,"[""0.081"",""0.636"",""0.524"",""0.766""]","[1,0,1,1]",0,62,62,62,1,1,0,,,1,FALSE,,,,,,,,,,,,,,,,,,,,,,,,,,,,,,,
,61688a0ab42065563b1214d6,627c76724b251e97ee0dd0b8,2022-05-12_04h53.21.096,classification_task,2021.2.3,Win32,58.86508123,627c6715c52fd12f31907bd0,,,,,,,,,,,,,,,,,,,,,,,a,1,0.5651,"[""0.804"",""0.447"",""0.876"",""0.911""]","[0,1,1,1]",0,63,63,63,1,0,1,,,1,FALSE,,,,,,,,,,,,,,,,,,,,,,,,,,,,,,,
,61688a0ab42065563b1214d6,627c76724b251e97ee0dd0b8,2022-05-12_04h53.21.096,classification_task,2021.2.3,Win32,58.86508123,627c6715c52fd12f31907bd0,,,,,,,,,,,,,,,,,,,,,,,,,,,,,,,,,,,,,,,0, ,,0,9.27138448,133.3864,0,2,2,2,1,2,3,,,,,,,,,,,,,,,,,,
,61688a0ab42065563b1214d6,627c76724b251e97ee0dd0b8,2022-05-12_04h53.21.096,classification_task,2021.2.3,Win32,58.86508123,627c6715c52fd12f31907bd0,,,,,,,,,,,,,,,,,,,,,,,,,,,,,,,,,,,,,,,1,  ,,0,10,134.7397,0,2,2,2,1,2,3,,,,,,,,,,,,,,,,,,
,61688a0ab42065563b1214d6,627c76724b251e97ee0dd0b8,2022-05-12_04h53.21.096,classification_task,2021.2.3,Win32,58.86508123,627c6715c52fd12f31907bd0,,,,,,,,,,,,,,,,,,,,,,,,,,,,,,,,,,,,,,,2,  ,,0,10,136.2658,0,2,2,2,1,2,3,,,,,,,,,,,,,,,,,,
,61688a0ab42065563b1214d6,627c76724b251e97ee0dd0b8,2022-05-12_04h53.21.096,classification_task,2021.2.3,Win32,58.86508123,627c6715c52fd12f31907bd0,,,,,,,,,,,,,,,,,,,,,,,,,,,,,,,,,,,,,,,,,,,,,0,2,2,2,1,,3,,,,,,,,,,,,,,,,,,
,61688a0ab42065563b1214d6,627c76724b251e97ee0dd0b8,2022-05-12_04h53.21.096,classification_task,2021.2.3,Win32,58.86508123,627c6715c52fd12f31907bd0,,,,,,,,,,,,,,,,,,,,,,,,,,,,,,,,,,,,,,,,,,,,,,,,,,,,,I believe the aid is a competent performer,,0.7,0,5,749.1948,0,0,0,0,1,0,,,,,
,61688a0ab42065563b1214d6,627c76724b251e97ee0dd0b8,2022-05-12_04h53.21.096,classification_task,2021.2.3,Win32,58.86508123,627c6715c52fd12f31907bd0,,,,,,,,,,,,,,,,,,,,,,,,,,,,,,,,,,,,,,,,,,,,,,,,,,,,,I trust the aid,,0.7,0,5,750.9407,0,0,0,0,1,0,,,,,
,61688a0ab42065563b1214d6,627c76724b251e97ee0dd0b8,2022-05-12_04h53.21.096,classification_task,2021.2.3,Win32,58.86508123,627c6715c52fd12f31907bd0,,,,,,,,,,,,,,,,,,,,,,,,,,,,,,,,,,,,,,,,,,,,,,,,,,,,,I have confidence in the advice given by the aid,,0.7,0,5,753.9174,0,0,0,0,1,0,,,,,
,61688a0ab42065563b1214d6,627c76724b251e97ee0dd0b8,2022-05-12_04h53.21.096,classification_task,2021.2.3,Win32,58.86508123,627c6715c52fd12f31907bd0,,,,,,,,,,,,,,,,,,,,,,,,,,,,,,,,,,,,,,,,,,,,,,,,,,,,,I can depend on the aid,,0.7,0,5,754.9473,0,0,0,0,1,0,,,,,
,61688a0ab42065563b1214d6,627c76724b251e97ee0dd0b8,2022-05-12_04h53.21.096,classification_task,2021.2.3,Win32,58.86508123,627c6715c52fd12f31907bd0,,,,,,,,,,,,,,,,,,,,,,,,,,,,,,,,,,,,,,,,,,,,,,,,,,,,,I can rely on the aid to behave in consistent ways,,0.7,0,4,757.1251,0,0,0,0,1,0,,,,,
,61688a0ab42065563b1214d6,627c76724b251e97ee0dd0b8,2022-05-12_04h53.21.096,classification_task,2021.2.3,Win32,58.86508123,627c6715c52fd12f31907bd0,,,,,,,,,,,,,,,,,,,,,,,,,,,,,,,,,,,,,,,,,,,,,,,,,,,,,I can rely on the aid to do its best every time I take its advice,,0.7,0,4,760.3252,0,0,0,0,1,0,,,,,
,61688a0ab42065563b1214d6,627c76724b251e97ee0dd0b8,2022-05-12_04h53.21.096,classification_task,2021.2.3,Win32,58.86508123,627c6715c52fd12f31907bd0,,,,,,,,,,,,,,,,,,,,,,,,,,,,,,,,,,,,,,,,,,,,,,,,,,,,,"On trials you completed with assistance from the aid, how frequently did you think the aid was correct?",,0.7,0,90%,,0,0,0,0,1,0,,,,,
,61688a0ab42065563b1214d6,627c76724b251e97ee0dd0b8,2022-05-12_04h53.21.096,classification_task,2021.2.3,Win32,58.86508123,627c6715c52fd12f31907bd0,,,,,,,,,,,,,,,,,,,,,,,,,,,,,,,,,,,,,,,,,,,,,,,,,,,,,"On trials you completed without the aid, how frequently did you think you were correct?",,0.7,0,95%,,0,0,0,0,1,0,,,,,
,61688a0ab42065563b1214d6,627c76724b251e97ee0dd0b8,2022-05-12_04h53.21.096,classification_task,2021.2.3,Win32,58.86508123,627c6715c52fd12f31907bd0,,,,,,,,,,,,,,,,,,,,,,,,,,,,,,,,,,,,,,,,,,,,,,,,,,,,,,,,,,,0,0,0,0,1,,,,,,
,61688a0ab42065563b1214d6,627c76724b251e97ee0dd0b8,2022-05-12_04h53.21.096,classification_task,2021.2.3,Win32,58.86508123,627c6715c52fd12f31907bd0,,,,,,,,,,,,,,,,,,,,,,,,,,,,,,,,,,,,,,,,,,,,,,,,,,,,,,,,,,,,,,,,,space,8.1091,791.7235,,
,61688a0ab42065563b1214d6,627c76724b251e97ee0dd0b8,2022-05-12_04h53.21.096,classification_task,2021.2.3,Win32,58.86508123,627c6715c52fd12f31907bd0,,,,,,,,,,,,,,,,,,,,,,,,,,,,,,,,,,,,,,,,,,,,,,,,,,,,,,,,,,,,,,,,,,,,"Mozilla/5.0 (Windows NT 10.0; Win64; x64) AppleWebKit/537.36 (KHTML, like Gecko) Chrome/101.0.4951.41 Safari/537.36 Edg/101.0.1210.32",
,61688a0ab42065563b1214d6,627c76724b251e97ee0dd0b8,2022-05-12_04h53.21.096,classification_task,2021.2.3,Win32,58.86508123,627c6715c52fd12f31907bd0,,,,,,,,,,,,,,,,,,,,,,,,,,,,,,,,,,,,,,,,,,,,,,,,,,,,,,,,,,,,,,,,,,,,,FADING
