usingWebGL,participant,session,date,expName,psychopyVersion,OS,frameRate,study_id,signatures_friend,signatures_foe,band_ranges_top,band_ranges_bottom,formitemText,formtype,formundefined,formitemWidth,formindex,formresponse,formrt,key_resp_2.keys,key_resp_2.rt,tute_resp.keys,tute_resp.rt,tutorial.thisRepN,tutorial.thisTrialN,tutorial.thisN,tutorial.thisIndex,tutorial.ran,key_resp_4.keys,key_resp_4.rt,key_resp.keys,key_resp.corr,lines_presented,is_signal_presented,trials.thisRepN,trials.thisTrialN,trials.thisN,trials.thisIndex,trials.ran,vessel,active_band,lines,is_signal,supported_pos,catch_trial,key_resp.rt,debrief_formindex,debrief_formitemText,debrief_formtype,debrief_formitemWidth,debrief_formresponse,debrief_formrt,phases.thisRepN,phases.thisTrialN,phases.thisN,phases.thisIndex,phases.ran,phases.order,phase,key_resp_3.keys,trustitemText,trusttype,trustitemWidth,trustindex,trustresponse,trustrt,support_status.thisRepN,support_status.thisTrialN,support_status.thisN,support_status.thisIndex,support_status.ran,support_status.order,key_resp_5.keys,globalClockTime,userAgent,manualCondition
TRUE,616934a454cf1f0e21721134,627c6f1cc925d19e815a9021,2022-05-12_04h25.15.596,classification_task,2021.2.3,Win32,59.89817311,627c6715c52fd12f31907bcf,,,,,,,,,,,,,,,,,,,,,,,,,,,,,,,,,,,,,,,,,,,,,,,,,,,,,,,,,,,,,,,,,,,,
,616934a454cf1f0e21721134,627c6f1cc925d19e815a9021,2022-05-12_04h25.15.596,classification_task,2021.2.3,Win32,59.89817311,627c6715c52fd12f31907bcf,"[[""0.322"",""0.511"",""0.881"",""0.957""],[""0.198"",""0.471"",""0.621"",""0.922""]]","[[""0.029"",""0.407"",""0.557"",""0.822""],[""0.103"",""0.162"",""0.672"",""0.768""]]","[1,10]","[100,1000]",Video game experience,,,0.7,0,,,,,,,,,,,,,,,,,,,,,,,,,,,,,,,,,,,,,,,,,,,,,,,,,,,,,,,,,,,
,616934a454cf1f0e21721134,627c6f1cc925d19e815a9021,2022-05-12_04h25.15.596,classification_task,2021.2.3,Win32,59.89817311,627c6715c52fd12f31907bcf,,,,,Approximately how many hours did you spend playing video games in the last week?,,,0.7,0,40,,,,,,,,,,,,,,,,,,,,,,,,,,,,,,,,,,,,,,,,,,,,,,,,,,,,,,,,,,
,616934a454cf1f0e21721134,627c6f1cc925d19e815a9021,2022-05-12_04h25.15.596,classification_task,2021.2.3,Win32,59.89817311,627c6715c52fd12f31907bcf,,,,,"Which game did you play the most this year? (Enter ""None"" if you didn't play any)",,,0.7,0,call of duty,,,,,,,,,,,,,,,,,,,,,,,,,,,,,,,,,,,,,,,,,,,,,,,,,,,,,,,,,,
,616934a454cf1f0e21721134,627c6f1cc925d19e815a9021,2022-05-12_04h25.15.596,classification_task,2021.2.3,Win32,59.89817311,627c6715c52fd12f31907bcf,,,,,Visual perception,,,0.7,0,,,,,,,,,,,,,,,,,,,,,,,,,,,,,,,,,,,,,,,,,,,,,,,,,,,,,,,,,,,
,616934a454cf1f0e21721134,627c6f1cc925d19e815a9021,2022-05-12_04h25.15.596,classification_task,2021.2.3,Win32,59.89817311,627c6715c52fd12f31907bcf,,,,,Do you have any form of color blindness?,,,0.7,0,No,98.7237,,,,,,,,,,,,,,,,,,,,,,,,,,,,,,,,,,,,,,,,,,,,,,,,,,,,,,,,,
,616934a454cf1f0e21721134,627c6f1cc925d19e815a9021,2022-05-12_04h25.15.596,classification_task,2021.2.3,Win32,59.89817311,627c6715c52fd12f31907bcf,,,,,Do you use software to change the colour temperature of your screen (e.g. f.lux)?,,,0.7,0,No,101.4379,,,,,,,,,,,,,,,,,,,,,,,,,,,,,,,,,,,,,,,,,,,,,,,,,,,,,,,,,
,616934a454cf1f0e21721134,627c6f1cc925d19e815a9021,2022-05-12_04h25.15.596,classification_task,2021.2.3,Win32,59.89817311,627c6715c52fd12f31907bcf,,,,,,,,,,,,space,76.2054,space,18.4215,0,0,0,0,1,,,,,,,,,,,,,,,,,,,,,,,,,,,,,,,,,,,,,,,,,,,,,,,,
,616934a454cf1f0e21721134,627c6f1cc925d19e815a9021,2022-05-12_04h25.15.596,classification_task,2021.2.3,Win32,59.89817311,627c6715c52fd12f31907bcf,,,,,,,,,,,,,,space,11.7475,1,0,1,0,1,,,,,,,,,,,,,,,,,,,,,,,,,,,,,,,,,,,,,,,,,,,,,,,,
,616934a454cf1f0e21721134,627c6f1cc925d19e815a9021,2022-05-12_04h25.15.596,classification_task,2021.2.3,Win32,59.89817311,627c6715c52fd12f31907bcf,,,,,,,,,,,,,,space,52.7603,2,0,2,0,1,,,,,,,,,,,,,,,,,,,,,,,,,,,,,,,,,,,,,,,,,,,,,,,,
,616934a454cf1f0e21721134,627c6f1cc925d19e815a9021,2022-05-12_04h25.15.596,classification_task,2021.2.3,Win32,59.89817311,627c6715c52fd12f31907bcf,,,,,,,,,,,,,,space,20.4845,3,0,3,0,1,,,,,,,,,,,,,,,,,,,,,,,,,,,,,,,,,,,,,,,,,,,,,,,,
,616934a454cf1f0e21721134,627c6f1cc925d19e815a9021,2022-05-12_04h25.15.596,classification_task,2021.2.3,Win32,59.89817311,627c6715c52fd12f31907bcf,,,,,,,,,,,,,,space,22.4483,4,0,4,0,1,,,,,,,,,,,,,,,,,,,,,,,,,,,,,,,,,,,,,,,,,,,,,,,,
,616934a454cf1f0e21721134,627c6f1cc925d19e815a9021,2022-05-12_04h25.15.596,classification_task,2021.2.3,Win32,59.89817311,627c6715c52fd12f31907bcf,,,,,,,,,,,,,,,,,,,,,space,5.6263,,0,"[""0.103"",""0.162"",""0.256"",""0.768""]","[1,1,0,1]",0,0,0,0,1,1,1,,,0,FALSE,,,,,,,,,,,,,,,,,,,,,,,,,,,,,,,
,616934a454cf1f0e21721134,627c6f1cc925d19e815a9021,2022-05-12_04h25.15.596,classification_task,2021.2.3,Win32,59.89817311,627c6715c52fd12f31907bcf,,,,,,,,,,,,,,,,,,,,,,,l,0,"[""0.198"",""0.471"",""0.721"",""0.922""]","[1,1,0,1]",0,1,1,1,1,0,1,,,0,FALSE,8.9706,,,,,,,,,,,,,,,,,,,,,,,,,,,,,,
,616934a454cf1f0e21721134,627c6f1cc925d19e815a9021,2022-05-12_04h25.15.596,classification_task,2021.2.3,Win32,59.89817311,627c6715c52fd12f31907bcf,,,,,,,,,,,,,,,,,,,,,,,a,1,"[""0.708"",""0.511"",""0.881"",""0.957""]","[0,1,1,1]",0,2,2,2,1,0,0,,,0,FALSE,6.144,,,,,,,,,,,,,,,,,,,,,,,,,,,,,,
,616934a454cf1f0e21721134,627c6f1cc925d19e815a9021,2022-05-12_04h25.15.596,classification_task,2021.2.3,Win32,59.89817311,627c6715c52fd12f31907bcf,,,,,,,,,,,,,,,,,,,,,,,a,0,"[""0.357"",""0.407"",""0.557"",""0.822""]","[0,1,1,1]",0,3,3,3,1,1,0,,,0,FALSE,4.1563,,,,,,,,,,,,,,,,,,,,,,,,,,,,,,
,616934a454cf1f0e21721134,627c6f1cc925d19e815a9021,2022-05-12_04h25.15.596,classification_task,2021.2.3,Win32,59.89817311,627c6715c52fd12f31907bcf,,,,,,,,,,,,,,,,,,,,,,,l,1,"[""0.103"",""0.267"",""0.672"",""0.768""]","[1,0,1,1]",0,4,4,4,1,1,1,,,0,FALSE,5.1732,,,,,,,,,,,,,,,,,,,,,,,,,,,,,,
,616934a454cf1f0e21721134,627c6f1cc925d19e815a9021,2022-05-12_04h25.15.596,classification_task,2021.2.3,Win32,59.89817311,627c6715c52fd12f31907bcf,,,,,,,,,,,,,,,,,,,,,,,a,1,"[""0.242"",""0.471"",""0.621"",""0.922""]","[0,1,1,1]",0,5,5,5,1,0,1,,,0,FALSE,4.7726,,,,,,,,,,,,,,,,,,,,,,,,,,,,,,
,616934a454cf1f0e21721134,627c6f1cc925d19e815a9021,2022-05-12_04h25.15.596,classification_task,2021.2.3,Win32,59.89817311,627c6715c52fd12f31907bcf,,,,,,,,,,,,,,,,,,,,,,,a,1,"[""0.198"",""0.256"",""0.621"",""0.922""]","[1,0,1,1]",0,6,6,6,1,0,1,,,0,FALSE,1.3764,,,,,,,,,,,,,,,,,,,,,,,,,,,,,,
,616934a454cf1f0e21721134,627c6f1cc925d19e815a9021,2022-05-12_04h25.15.596,classification_task,2021.2.3,Win32,59.89817311,627c6715c52fd12f31907bcf,,,,,,,,,,,,,,,,,,,,,,,a,1,"[""0.322"",""0.357"",""0.881"",""0.957""]","[1,0,1,1]",0,7,7,7,1,0,0,,,0,FALSE,3.1472,,,,,,,,,,,,,,,,,,,,,,,,,,,,,,
,616934a454cf1f0e21721134,627c6f1cc925d19e815a9021,2022-05-12_04h25.15.596,classification_task,2021.2.3,Win32,59.89817311,627c6715c52fd12f31907bcf,,,,,,,,,,,,,,,,,,,,,,,l,1,"[""0.029"",""0.407"",""0.557"",""0.277""]","[1,1,1,0]",0,8,8,8,1,1,0,,,0,FALSE,1.8066,,,,,,,,,,,,,,,,,,,,,,,,,,,,,,
,616934a454cf1f0e21721134,627c6f1cc925d19e815a9021,2022-05-12_04h25.15.596,classification_task,2021.2.3,Win32,59.89817311,627c6715c52fd12f31907bcf,,,,,,,,,,,,,,,,,,,,,,,a,1,"[""0.322"",""0.511"",""0.357"",""0.957""]","[1,1,0,1]",0,9,9,9,1,0,0,,,0,FALSE,1.0627,,,,,,,,,,,,,,,,,,,,,,,,,,,,,,
,616934a454cf1f0e21721134,627c6f1cc925d19e815a9021,2022-05-12_04h25.15.596,classification_task,2021.2.3,Win32,59.89817311,627c6715c52fd12f31907bcf,,,,,,,,,,,,,,,,,,,,,,,l,1,"[""0.029"",""0.253"",""0.557"",""0.822""]","[1,0,1,1]",0,10,10,10,1,1,0,,,0,FALSE,1.2425,,,,,,,,,,,,,,,,,,,,,,,,,,,,,,
,616934a454cf1f0e21721134,627c6f1cc925d19e815a9021,2022-05-12_04h25.15.596,classification_task,2021.2.3,Win32,59.89817311,627c6715c52fd12f31907bcf,,,,,,,,,,,,,,,,,,,,,,,a,0,"[""0.103"",""0.162"",""0.672"",""0.242""]","[1,1,1,0]",0,11,11,11,1,1,1,,,0,FALSE,2.0635,,,,,,,,,,,,,,,,,,,,,,,,,,,,,,
,616934a454cf1f0e21721134,627c6f1cc925d19e815a9021,2022-05-12_04h25.15.596,classification_task,2021.2.3,Win32,59.89817311,627c6715c52fd12f31907bcf,,,,,,,,,,,,,,,,,,,,,,,a,1,"[""0.198"",""0.471"",""0.621"",""0.253""]","[1,1,1,0]",0,12,12,12,1,0,1,,,0,FALSE,2.5258,,,,,,,,,,,,,,,,,,,,,,,,,,,,,,
,616934a454cf1f0e21721134,627c6f1cc925d19e815a9021,2022-05-12_04h25.15.596,classification_task,2021.2.3,Win32,59.89817311,627c6715c52fd12f31907bcf,,,,,,,,,,,,,,,,,,,,,,,l,1,"[""0.029"",""0.407"",""0.242"",""0.822""]","[1,1,0,1]",0,13,13,13,1,1,0,,,0,FALSE,0.9795,,,,,,,,,,,,,,,,,,,,,,,,,,,,,,
,616934a454cf1f0e21721134,627c6f1cc925d19e815a9021,2022-05-12_04h25.15.596,classification_task,2021.2.3,Win32,59.89817311,627c6715c52fd12f31907bcf,,,,,,,,,,,,,,,,,,,,,,,a,1,"[""0.322"",""0.511"",""0.881"",""0.253""]","[1,1,1,0]",0,14,14,14,1,0,0,,,0,FALSE,1.0909,,,,,,,,,,,,,,,,,,,,,,,,,,,,,,
,616934a454cf1f0e21721134,627c6f1cc925d19e815a9021,2022-05-12_04h25.15.596,classification_task,2021.2.3,Win32,59.89817311,627c6715c52fd12f31907bcf,,,,,,,,,,,,,,,,,,,,,,,l,1,"[""0.721"",""0.162"",""0.672"",""0.768""]","[0,1,1,1]",0,15,15,15,1,1,1,,,0,FALSE,3.3963,,,,,,,,,,,,,,,,,,,,,,,,,,,,,,
,616934a454cf1f0e21721134,627c6f1cc925d19e815a9021,2022-05-12_04h25.15.596,classification_task,2021.2.3,Win32,59.89817311,627c6715c52fd12f31907bcf,,,,,,,,,,,,,,,,,,,,,,,a,1,"[""0.322"",""0.511"",""0.881"",""0.256""]","[1,1,1,0]",0,16,16,16,1,0,0,,,0,FALSE,3.4335,,,,,,,,,,,,,,,,,,,,,,,,,,,,,,
,616934a454cf1f0e21721134,627c6f1cc925d19e815a9021,2022-05-12_04h25.15.596,classification_task,2021.2.3,Win32,59.89817311,627c6715c52fd12f31907bcf,,,,,,,,,,,,,,,,,,,,,,,l,1,"[""0.103"",""0.256"",""0.672"",""0.768""]","[1,0,1,1]",0,17,17,17,1,1,1,,,0,FALSE,3.0999,,,,,,,,,,,,,,,,,,,,,,,,,,,,,,
,616934a454cf1f0e21721134,627c6f1cc925d19e815a9021,2022-05-12_04h25.15.596,classification_task,2021.2.3,Win32,59.89817311,627c6715c52fd12f31907bcf,,,,,,,,,,,,,,,,,,,,,,,l,1,"[""0.029"",""0.277"",""0.557"",""0.822""]","[1,0,1,1]",0,18,18,18,1,1,0,,,0,FALSE,3.4045,,,,,,,,,,,,,,,,,,,,,,,,,,,,,,
,616934a454cf1f0e21721134,627c6f1cc925d19e815a9021,2022-05-12_04h25.15.596,classification_task,2021.2.3,Win32,59.89817311,627c6715c52fd12f31907bcf,,,,,,,,,,,,,,,,,,,,,,,l,1,"[""0.029"",""0.407"",""0.557"",""0.709""]","[1,1,1,0]",0,19,19,19,1,1,0,,,0,FALSE,1.3034,,,,,,,,,,,,,,,,,,,,,,,,,,,,,,
,616934a454cf1f0e21721134,627c6f1cc925d19e815a9021,2022-05-12_04h25.15.596,classification_task,2021.2.3,Win32,59.89817311,627c6715c52fd12f31907bcf,,,,,,,,,,,,,,,,,,,,,,,a,1,"[""0.277"",""0.511"",""0.881"",""0.957""]","[0,1,1,1]",0,20,20,20,1,0,0,,,0,FALSE,2.8345,,,,,,,,,,,,,,,,,,,,,,,,,,,,,,
,616934a454cf1f0e21721134,627c6f1cc925d19e815a9021,2022-05-12_04h25.15.596,classification_task,2021.2.3,Win32,59.89817311,627c6715c52fd12f31907bcf,,,,,,,,,,,,,,,,,,,,,,,a,1,"[""0.322"",""0.511"",""0.357"",""0.957""]","[1,1,0,1]",0,21,21,21,1,0,0,,,0,FALSE,1.4868,,,,,,,,,,,,,,,,,,,,,,,,,,,,,,
,616934a454cf1f0e21721134,627c6f1cc925d19e815a9021,2022-05-12_04h25.15.596,classification_task,2021.2.3,Win32,59.89817311,627c6715c52fd12f31907bcf,,,,,,,,,,,,,,,,,,,,,,,a,1,"[""0.198"",""0.256"",""0.621"",""0.922""]","[1,0,1,1]",0,22,22,22,1,0,1,,,0,FALSE,3.4449,,,,,,,,,,,,,,,,,,,,,,,,,,,,,,
,616934a454cf1f0e21721134,627c6f1cc925d19e815a9021,2022-05-12_04h25.15.596,classification_task,2021.2.3,Win32,59.89817311,627c6715c52fd12f31907bcf,,,,,,,,,,,,,,,,,,,,,,,l,1,"[""0.029"",""0.407"",""0.357"",""0.822""]","[1,1,0,1]",0,23,23,23,1,1,0,,,0,FALSE,0.9794,,,,,,,,,,,,,,,,,,,,,,,,,,,,,,
,616934a454cf1f0e21721134,627c6f1cc925d19e815a9021,2022-05-12_04h25.15.596,classification_task,2021.2.3,Win32,59.89817311,627c6715c52fd12f31907bcf,,,,,,,,,,,,,,,,,,,,,,,a,1,"[""0.198"",""0.471"",""0.621"",""0.242""]","[1,1,1,0]",0,24,24,24,1,0,1,,,0,FALSE,0.7186,,,,,,,,,,,,,,,,,,,,,,,,,,,,,,
,616934a454cf1f0e21721134,627c6f1cc925d19e815a9021,2022-05-12_04h25.15.596,classification_task,2021.2.3,Win32,59.89817311,627c6715c52fd12f31907bcf,,,,,,,,,,,,,,,,,,,,,,,a,1,"[""0.322"",""0.267"",""0.881"",""0.957""]","[1,0,1,1]",0,25,25,25,1,0,0,,,0,FALSE,0.8418,,,,,,,,,,,,,,,,,,,,,,,,,,,,,,
,616934a454cf1f0e21721134,627c6f1cc925d19e815a9021,2022-05-12_04h25.15.596,classification_task,2021.2.3,Win32,59.89817311,627c6715c52fd12f31907bcf,,,,,,,,,,,,,,,,,,,,,,,l,0,"[""0.708"",""0.471"",""0.621"",""0.922""]","[0,1,1,1]",0,26,26,26,1,0,1,,,0,FALSE,0.8532,,,,,,,,,,,,,,,,,,,,,,,,,,,,,,
,616934a454cf1f0e21721134,627c6f1cc925d19e815a9021,2022-05-12_04h25.15.596,classification_task,2021.2.3,Win32,59.89817311,627c6715c52fd12f31907bcf,,,,,,,,,,,,,,,,,,,,,,,l,1,"[""0.103"",""0.162"",""0.672"",""0.242""]","[1,1,1,0]",0,27,27,27,1,1,1,,,0,FALSE,1.5509,,,,,,,,,,,,,,,,,,,,,,,,,,,,,,
,616934a454cf1f0e21721134,627c6f1cc925d19e815a9021,2022-05-12_04h25.15.596,classification_task,2021.2.3,Win32,59.89817311,627c6715c52fd12f31907bcf,,,,,,,,,,,,,,,,,,,,,,,a,0,"[""0.357"",""0.162"",""0.672"",""0.768""]","[0,1,1,1]",0,28,28,28,1,1,1,,,0,FALSE,2.0158,,,,,,,,,,,,,,,,,,,,,,,,,,,,,,
,616934a454cf1f0e21721134,627c6f1cc925d19e815a9021,2022-05-12_04h25.15.596,classification_task,2021.2.3,Win32,59.89817311,627c6715c52fd12f31907bcf,,,,,,,,,,,,,,,,,,,,,,,a,1,"[""0.198"",""0.471"",""0.709"",""0.922""]","[1,1,0,1]",0,29,29,29,1,0,1,,,0,FALSE,1.0851,,,,,,,,,,,,,,,,,,,,,,,,,,,,,,
,616934a454cf1f0e21721134,627c6f1cc925d19e815a9021,2022-05-12_04h25.15.596,classification_task,2021.2.3,Win32,59.89817311,627c6715c52fd12f31907bcf,,,,,,,,,,,,,,,,,,,,,,,l,1,"[""0.261"",""0.407"",""0.557"",""0.822""]","[0,1,1,1]",0,30,30,30,1,1,0,,,0,FALSE,2.6425,,,,,,,,,,,,,,,,,,,,,,,,,,,,,,
,616934a454cf1f0e21721134,627c6f1cc925d19e815a9021,2022-05-12_04h25.15.596,classification_task,2021.2.3,Win32,59.89817311,627c6715c52fd12f31907bcf,,,,,,,,,,,,,,,,,,,,,,,a,0,"[""0.103"",""0.162"",""0.357"",""0.768""]","[1,1,0,1]",0,31,31,31,1,1,1,,,0,FALSE,1.7309,,,,,,,,,,,,,,,,,,,,,,,,,,,,,,
,616934a454cf1f0e21721134,627c6f1cc925d19e815a9021,2022-05-12_04h25.15.596,classification_task,2021.2.3,Win32,59.89817311,627c6715c52fd12f31907bcf,,,,,,,,,,,,,,,,,,,,,,,a,1,"[""0.198"",""0.471"",""0.242"",""0.922""]","[1,1,0,1]",0,32,32,32,1,0,1,,,0,FALSE,2.0569,,,,,,,,,,,,,,,,,,,,,,,,,,,,,,
,616934a454cf1f0e21721134,627c6f1cc925d19e815a9021,2022-05-12_04h25.15.596,classification_task,2021.2.3,Win32,59.89817311,627c6715c52fd12f31907bcf,,,,,,,,,,,,,,,,,,,,,,,a,0,"[""0.103"",""0.162"",""0.672"",""0.357""]","[1,1,1,0]",0,33,33,33,1,1,1,,,0,FALSE,1.8315,,,,,,,,,,,,,,,,,,,,,,,,,,,,,,
,616934a454cf1f0e21721134,627c6f1cc925d19e815a9021,2022-05-12_04h25.15.596,classification_task,2021.2.3,Win32,59.89817311,627c6715c52fd12f31907bcf,,,,,,,,,,,,,,,,,,,,,,,l,1,"[""0.029"",""0.407"",""0.557"",""0.256""]","[1,1,1,0]",0,34,34,34,1,1,0,,,0,FALSE,2.4709,,,,,,,,,,,,,,,,,,,,,,,,,,,,,,
,616934a454cf1f0e21721134,627c6f1cc925d19e815a9021,2022-05-12_04h25.15.596,classification_task,2021.2.3,Win32,59.89817311,627c6715c52fd12f31907bcf,,,,,,,,,,,,,,,,,,,,,,,l,1,"[""0.029"",""0.407"",""0.277"",""0.822""]","[1,1,0,1]",0,35,35,35,1,1,0,,,0,FALSE,0.6668,,,,,,,,,,,,,,,,,,,,,,,,,,,,,,
,616934a454cf1f0e21721134,627c6f1cc925d19e815a9021,2022-05-12_04h25.15.596,classification_task,2021.2.3,Win32,59.89817311,627c6715c52fd12f31907bcf,,,,,,,,,,,,,,,,,,,,,,,l,1,"[""0.103"",""0.162"",""0.064"",""0.768""]","[1,1,0,1]",0,36,36,36,1,1,1,,,0,FALSE,1.3309,,,,,,,,,,,,,,,,,,,,,,,,,,,,,,
,616934a454cf1f0e21721134,627c6f1cc925d19e815a9021,2022-05-12_04h25.15.596,classification_task,2021.2.3,Win32,59.89817311,627c6715c52fd12f31907bcf,,,,,,,,,,,,,,,,,,,,,,,a,0,"[""0.242"",""0.407"",""0.557"",""0.822""]","[0,1,1,1]",0,37,37,37,1,1,0,,,0,FALSE,0.8402,,,,,,,,,,,,,,,,,,,,,,,,,,,,,,
,616934a454cf1f0e21721134,627c6f1cc925d19e815a9021,2022-05-12_04h25.15.596,classification_task,2021.2.3,Win32,59.89817311,627c6715c52fd12f31907bcf,,,,,,,,,,,,,,,,,,,,,,,a,1,"[""0.322"",""0.511"",""0.881"",""0.277""]","[1,1,1,0]",0,38,38,38,1,0,0,,,0,FALSE,0.7374,,,,,,,,,,,,,,,,,,,,,,,,,,,,,,
,616934a454cf1f0e21721134,627c6f1cc925d19e815a9021,2022-05-12_04h25.15.596,classification_task,2021.2.3,Win32,59.89817311,627c6715c52fd12f31907bcf,,,,,,,,,,,,,,,,,,,,,,,l,1,"[""0.261"",""0.162"",""0.672"",""0.768""]","[0,1,1,1]",0,39,39,39,1,1,1,,,0,FALSE,2.9079,,,,,,,,,,,,,,,,,,,,,,,,,,,,,,
,616934a454cf1f0e21721134,627c6f1cc925d19e815a9021,2022-05-12_04h25.15.596,classification_task,2021.2.3,Win32,59.89817311,627c6715c52fd12f31907bcf,,,,,,,,,,,,,,,,,,,,,,,a,1,"[""0.322"",""0.511"",""0.242"",""0.957""]","[1,1,0,1]",0,40,40,40,1,0,0,,,0,FALSE,1.0791,,,,,,,,,,,,,,,,,,,,,,,,,,,,,,
,616934a454cf1f0e21721134,627c6f1cc925d19e815a9021,2022-05-12_04h25.15.596,classification_task,2021.2.3,Win32,59.89817311,627c6715c52fd12f31907bcf,,,,,,,,,,,,,,,,,,,,,,,l,1,"[""0.029"",""0.066"",""0.557"",""0.822""]","[1,0,1,1]",0,41,41,41,1,1,0,,,0,FALSE,0.4804,,,,,,,,,,,,,,,,,,,,,,,,,,,,,,
,616934a454cf1f0e21721134,627c6f1cc925d19e815a9021,2022-05-12_04h25.15.596,classification_task,2021.2.3,Win32,59.89817311,627c6715c52fd12f31907bcf,,,,,,,,,,,,,,,,,,,,,,,l,0,"[""0.198"",""0.709"",""0.621"",""0.922""]","[1,0,1,1]",0,42,42,42,1,0,1,,,0,FALSE,1.6679,,,,,,,,,,,,,,,,,,,,,,,,,,,,,,
,616934a454cf1f0e21721134,627c6f1cc925d19e815a9021,2022-05-12_04h25.15.596,classification_task,2021.2.3,Win32,59.89817311,627c6715c52fd12f31907bcf,,,,,,,,,,,,,,,,,,,,,,,l,0,"[""0.256"",""0.471"",""0.621"",""0.922""]","[0,1,1,1]",0,43,43,43,1,0,1,,,0,FALSE,1.2796,,,,,,,,,,,,,,,,,,,,,,,,,,,,,,
,616934a454cf1f0e21721134,627c6f1cc925d19e815a9021,2022-05-12_04h25.15.596,classification_task,2021.2.3,Win32,59.89817311,627c6715c52fd12f31907bcf,,,,,,,,,,,,,,,,,,,,,,,l,0,"[""0.256"",""0.511"",""0.881"",""0.957""]","[0,1,1,1]",0,44,44,44,1,0,0,,,0,FALSE,1.2107,,,,,,,,,,,,,,,,,,,,,,,,,,,,,,
,616934a454cf1f0e21721134,627c6f1cc925d19e815a9021,2022-05-12_04h25.15.596,classification_task,2021.2.3,Win32,59.89817311,627c6715c52fd12f31907bcf,,,,,,,,,,,,,,,,,,,,,,,l,0,"[""0.198"",""0.471"",""0.621"",""0.721""]","[1,1,1,0]",0,45,45,45,1,0,1,,,0,FALSE,0.4841,,,,,,,,,,,,,,,,,,,,,,,,,,,,,,
,616934a454cf1f0e21721134,627c6f1cc925d19e815a9021,2022-05-12_04h25.15.596,classification_task,2021.2.3,Win32,59.89817311,627c6715c52fd12f31907bcf,,,,,,,,,,,,,,,,,,,,,,,l,1,"[""0.103"",""0.267"",""0.672"",""0.768""]","[1,0,1,1]",0,46,46,46,1,1,1,,,0,FALSE,1.6151,,,,,,,,,,,,,,,,,,,,,,,,,,,,,,
,616934a454cf1f0e21721134,627c6f1cc925d19e815a9021,2022-05-12_04h25.15.596,classification_task,2021.2.3,Win32,59.89817311,627c6715c52fd12f31907bcf,,,,,,,,,,,,,,,,,,,,,,,l,0,"[""0.322"",""0.261"",""0.881"",""0.957""]","[1,0,1,1]",0,47,47,47,1,0,0,,,0,FALSE,0.8624,,,,,,,,,,,,,,,,,,,,,,,,,,,,,,
,616934a454cf1f0e21721134,627c6f1cc925d19e815a9021,2022-05-12_04h25.15.596,classification_task,2021.2.3,Win32,59.89817311,627c6715c52fd12f31907bcf,,,,,,,,,,,,,,,,,,,,,,,l,1,"[""0.029"",""0.407"",""0.557"",""0.721""]","[1,1,1,0]",0,48,48,48,1,1,0,,,0,FALSE,0.7836,,,,,,,,,,,,,,,,,,,,,,,,,,,,,,
,616934a454cf1f0e21721134,627c6f1cc925d19e815a9021,2022-05-12_04h25.15.596,classification_task,2021.2.3,Win32,59.89817311,627c6715c52fd12f31907bcf,,,,,,,,,,,,,,,,,,,,,,,a,1,"[""0.322"",""0.511"",""0.881"",""0.277""]","[1,1,1,0]",0,49,49,49,1,0,0,,,0,FALSE,0.9051,,,,,,,,,,,,,,,,,,,,,,,,,,,,,,
,616934a454cf1f0e21721134,627c6f1cc925d19e815a9021,2022-05-12_04h25.15.596,classification_task,2021.2.3,Win32,59.89817311,627c6715c52fd12f31907bcf,,,,,,,,,,,,,,,,,,,,,,,a,1,"[""0.322"",""0.511"",""0.256"",""0.957""]","[1,1,0,1]",0,50,50,50,1,0,0,,,0,FALSE,0.7915,,,,,,,,,,,,,,,,,,,,,,,,,,,,,,
,616934a454cf1f0e21721134,627c6f1cc925d19e815a9021,2022-05-12_04h25.15.596,classification_task,2021.2.3,Win32,59.89817311,627c6715c52fd12f31907bcf,,,,,,,,,,,,,,,,,,,,,,,l,1,"[""0.064"",""0.407"",""0.557"",""0.822""]","[0,1,1,1]",0,51,51,51,1,1,0,,,0,FALSE,2.0014,,,,,,,,,,,,,,,,,,,,,,,,,,,,,,
,616934a454cf1f0e21721134,627c6f1cc925d19e815a9021,2022-05-12_04h25.15.596,classification_task,2021.2.3,Win32,59.89817311,627c6715c52fd12f31907bcf,,,,,,,,,,,,,,,,,,,,,,,l,1,"[""0.029"",""0.721"",""0.557"",""0.822""]","[1,0,1,1]",0,52,52,52,1,1,0,,,0,FALSE,0.5801,,,,,,,,,,,,,,,,,,,,,,,,,,,,,,
,616934a454cf1f0e21721134,627c6f1cc925d19e815a9021,2022-05-12_04h25.15.596,classification_task,2021.2.3,Win32,59.89817311,627c6715c52fd12f31907bcf,,,,,,,,,,,,,,,,,,,,,,,l,0,"[""0.708"",""0.511"",""0.881"",""0.957""]","[0,1,1,1]",0,53,53,53,1,0,0,,,0,FALSE,2.0875,,,,,,,,,,,,,,,,,,,,,,,,,,,,,,
,616934a454cf1f0e21721134,627c6f1cc925d19e815a9021,2022-05-12_04h25.15.596,classification_task,2021.2.3,Win32,59.89817311,627c6715c52fd12f31907bcf,,,,,,,,,,,,,,,,,,,,,,,l,1,"[""0.357"",""0.162"",""0.672"",""0.768""]","[0,1,1,1]",0,54,54,54,1,1,1,,,0,FALSE,1.3102,,,,,,,,,,,,,,,,,,,,,,,,,,,,,,
,616934a454cf1f0e21721134,627c6f1cc925d19e815a9021,2022-05-12_04h25.15.596,classification_task,2021.2.3,Win32,59.89817311,627c6715c52fd12f31907bcf,,,,,,,,,,,,,,,,,,,,,,,l,1,"[""0.103"",""0.162"",""0.672"",""0.064""]","[1,1,1,0]",0,55,55,55,1,1,1,,,0,FALSE,1.0348,,,,,,,,,,,,,,,,,,,,,,,,,,,,,,
,616934a454cf1f0e21721134,627c6f1cc925d19e815a9021,2022-05-12_04h25.15.596,classification_task,2021.2.3,Win32,59.89817311,627c6715c52fd12f31907bcf,,,,,,,,,,,,,,,,,,,,,,,l,1,"[""0.029"",""0.407"",""0.261"",""0.822""]","[1,1,0,1]",0,56,56,56,1,1,0,,,0,FALSE,1.2343,,,,,,,,,,,,,,,,,,,,,,,,,,,,,,
,616934a454cf1f0e21721134,627c6f1cc925d19e815a9021,2022-05-12_04h25.15.596,classification_task,2021.2.3,Win32,59.89817311,627c6715c52fd12f31907bcf,,,,,,,,,,,,,,,,,,,,,,,a,1,"[""0.322"",""0.253"",""0.881"",""0.957""]","[1,0,1,1]",0,57,57,57,1,0,0,,,0,FALSE,0.5773,,,,,,,,,,,,,,,,,,,,,,,,,,,,,,
,616934a454cf1f0e21721134,627c6f1cc925d19e815a9021,2022-05-12_04h25.15.596,classification_task,2021.2.3,Win32,59.89817311,627c6715c52fd12f31907bcf,,,,,,,,,,,,,,,,,,,,,,,l,0,"[""0.068"",""0.471"",""0.621"",""0.922""]","[0,1,1,1]",0,58,58,58,1,0,1,,,0,FALSE,1.5635,,,,,,,,,,,,,,,,,,,,,,,,,,,,,,
,616934a454cf1f0e21721134,627c6f1cc925d19e815a9021,2022-05-12_04h25.15.596,classification_task,2021.2.3,Win32,59.89817311,627c6715c52fd12f31907bcf,,,,,,,,,,,,,,,,,,,,,,,a,1,"[""0.198"",""0.471"",""0.621"",""0.256""]","[1,1,1,0]",0,59,59,59,1,0,1,,,0,FALSE,2.0855,,,,,,,,,,,,,,,,,,,,,,,,,,,,,,
,616934a454cf1f0e21721134,627c6f1cc925d19e815a9021,2022-05-12_04h25.15.596,classification_task,2021.2.3,Win32,59.89817311,627c6715c52fd12f31907bcf,,,,,,,,,,,,,,,,,,,,,,,l,1,"[""0.103"",""0.064"",""0.672"",""0.768""]","[1,0,1,1]",0,60,60,60,1,1,1,,,0,FALSE,3.6598,,,,,,,,,,,,,,,,,,,,,,,,,,,,,,
,616934a454cf1f0e21721134,627c6f1cc925d19e815a9021,2022-05-12_04h25.15.596,classification_task,2021.2.3,Win32,59.89817311,627c6715c52fd12f31907bcf,,,,,,,,,,,,,,,,,,,,,,,a,1,"[""0.198"",""0.471"",""0.256"",""0.922""]","[1,1,0,1]",0,61,61,61,1,0,1,,,0,FALSE,2.1224,,,,,,,,,,,,,,,,,,,,,,,,,,,,,,
,616934a454cf1f0e21721134,627c6f1cc925d19e815a9021,2022-05-12_04h25.15.596,classification_task,2021.2.3,Win32,59.89817311,627c6715c52fd12f31907bcf,,,,,,,,,,,,,,,,,,,,,,,a,1,"[""0.198"",""0.256"",""0.621"",""0.922""]","[1,0,1,1]",0,62,62,62,1,0,1,,,0,FALSE,0.7652,,,,,,,,,,,,,,,,,,,,,,,,,,,,,,
,616934a454cf1f0e21721134,627c6f1cc925d19e815a9021,2022-05-12_04h25.15.596,classification_task,2021.2.3,Win32,59.89817311,627c6715c52fd12f31907bcf,,,,,,,,,,,,,,,,,,,,,,,l,1,"[""0.103"",""0.162"",""0.261"",""0.768""]","[1,1,0,1]",0,63,63,63,1,1,1,,,0,FALSE,1.7167,,,,,,,,,,,,,,,,,,,,,,,,,,,,,,
,616934a454cf1f0e21721134,627c6f1cc925d19e815a9021,2022-05-12_04h25.15.596,classification_task,2021.2.3,Win32,59.89817311,627c6715c52fd12f31907bcf,,,,,,,,,,,,,,,,,,,,,,,,,,,,,,,,,,,,,,,0, ,,0,,,0,0,0,0,1,2,1,,,,,,,,,,,,,,,,,
,616934a454cf1f0e21721134,627c6f1cc925d19e815a9021,2022-05-12_04h25.15.596,classification_task,2021.2.3,Win32,59.89817311,627c6715c52fd12f31907bcf,,,,,,,,,,,,,,,,,,,,,,,,,,,,,,,,,,,,,,,1,  ,,0,,,0,0,0,0,1,2,1,,,,,,,,,,,,,,,,,
,616934a454cf1f0e21721134,627c6f1cc925d19e815a9021,2022-05-12_04h25.15.596,classification_task,2021.2.3,Win32,59.89817311,627c6715c52fd12f31907bcf,,,,,,,,,,,,,,,,,,,,,,,,,,,,,,,,,,,,,,,2,  ,,0,,,0,0,0,0,1,2,1,,,,,,,,,,,,,,,,,
,616934a454cf1f0e21721134,627c6f1cc925d19e815a9021,2022-05-12_04h25.15.596,classification_task,2021.2.3,Win32,59.89817311,627c6715c52fd12f31907bcf,,,,,,,,,,,,,,,,,,,,,,,,,,,,,,,,,,,,,,,,,,,,,0,0,0,0,1,,1,,,,,,,,,,,,,,,,,
,616934a454cf1f0e21721134,627c6f1cc925d19e815a9021,2022-05-12_04h25.15.596,classification_task,2021.2.3,Win32,59.89817311,627c6715c52fd12f31907bcf,,,,,,,,,,,,,,,,,,,,,space,7.0964,l,1,"[""0.103"",""0.162"",""0.721"",""0.768""]","[1,1,0,1]",0,0,0,0,1,1,1,,,0,FALSE,3.0369,,,,,,,,,,,,,,,,,,,,,,,,,,,,,,
,616934a454cf1f0e21721134,627c6f1cc925d19e815a9021,2022-05-12_04h25.15.596,classification_task,2021.2.3,Win32,59.89817311,627c6715c52fd12f31907bcf,,,,,,,,,,,,,,,,,,,,,,,a,1,"[""0.198"",""0.242"",""0.621"",""0.922""]","[1,0,1,1]",0,1,1,1,1,0,1,,,0,FALSE,1.1081,,,,,,,,,,,,,,,,,,,,,,,,,,,,,,
,616934a454cf1f0e21721134,627c6f1cc925d19e815a9021,2022-05-12_04h25.15.596,classification_task,2021.2.3,Win32,59.89817311,627c6715c52fd12f31907bcf,,,,,,,,,,,,,,,,,,,,,,,l,0,"[""0.322"",""0.261"",""0.881"",""0.957""]","[1,0,1,1]",0,2,2,2,1,0,0,,,0,FALSE,3.3339,,,,,,,,,,,,,,,,,,,,,,,,,,,,,,
,616934a454cf1f0e21721134,627c6f1cc925d19e815a9021,2022-05-12_04h25.15.596,classification_task,2021.2.3,Win32,59.89817311,627c6715c52fd12f31907bcf,,,,,,,,,,,,,,,,,,,,,,,l,1,"[""0.267"",""0.162"",""0.672"",""0.768""]","[0,1,1,1]",0,3,3,3,1,1,1,,,0,FALSE,1.8093,,,,,,,,,,,,,,,,,,,,,,,,,,,,,,
,616934a454cf1f0e21721134,627c6f1cc925d19e815a9021,2022-05-12_04h25.15.596,classification_task,2021.2.3,Win32,59.89817311,627c6715c52fd12f31907bcf,,,,,,,,,,,,,,,,,,,,,,,a,1,"[""0.267"",""0.471"",""0.621"",""0.922""]","[0,1,1,1]",0,4,4,4,1,0,1,,,0,FALSE,1.6417,,,,,,,,,,,,,,,,,,,,,,,,,,,,,,
,616934a454cf1f0e21721134,627c6f1cc925d19e815a9021,2022-05-12_04h25.15.596,classification_task,2021.2.3,Win32,59.89817311,627c6715c52fd12f31907bcf,,,,,,,,,,,,,,,,,,,,,,,l,1,"[""0.068"",""0.407"",""0.557"",""0.822""]","[0,1,1,1]",0,5,5,5,1,1,0,,,0,FALSE,2.6235,,,,,,,,,,,,,,,,,,,,,,,,,,,,,,
,616934a454cf1f0e21721134,627c6f1cc925d19e815a9021,2022-05-12_04h25.15.596,classification_task,2021.2.3,Win32,59.89817311,627c6715c52fd12f31907bcf,,,,,,,,,,,,,,,,,,,,,,,l,1,"[""0.103"",""0.162"",""0.672"",""0.721""]","[1,1,1,0]",0,6,6,6,1,1,1,,,0,FALSE,1.4706,,,,,,,,,,,,,,,,,,,,,,,,,,,,,,
,616934a454cf1f0e21721134,627c6f1cc925d19e815a9021,2022-05-12_04h25.15.596,classification_task,2021.2.3,Win32,59.89817311,627c6715c52fd12f31907bcf,,,,,,,,,,,,,,,,,,,,,,,l,1,"[""0.029"",""0.267"",""0.557"",""0.822""]","[1,0,1,1]",0,7,7,7,1,1,0,,,0,FALSE,1.0332,,,,,,,,,,,,,,,,,,,,,,,,,,,,,,
,616934a454cf1f0e21721134,627c6f1cc925d19e815a9021,2022-05-12_04h25.15.596,classification_task,2021.2.3,Win32,59.89817311,627c6715c52fd12f31907bcf,,,,,,,,,,,,,,,,,,,,,,,a,1,"[""0.198"",""0.471"",""0.253"",""0.922""]","[1,1,0,1]",0,8,8,8,1,0,1,,,0,FALSE,1.249,,,,,,,,,,,,,,,,,,,,,,,,,,,,,,
,616934a454cf1f0e21721134,627c6f1cc925d19e815a9021,2022-05-12_04h25.15.596,classification_task,2021.2.3,Win32,59.89817311,627c6715c52fd12f31907bcf,,,,,,,,,,,,,,,,,,,,,,,a,1,"[""0.708"",""0.511"",""0.881"",""0.957""]","[0,1,1,1]",0,9,9,9,1,0,0,,,0,FALSE,0.9397,,,,,,,,,,,,,,,,,,,,,,,,,,,,,,
,616934a454cf1f0e21721134,627c6f1cc925d19e815a9021,2022-05-12_04h25.15.596,classification_task,2021.2.3,Win32,59.89817311,627c6715c52fd12f31907bcf,,,,,,,,,,,,,,,,,,,,,,,l,1,"[""0.103"",""0.242"",""0.672"",""0.768""]","[1,0,1,1]",0,10,10,10,1,1,1,,,0,FALSE,2.7068,,,,,,,,,,,,,,,,,,,,,,,,,,,,,,
,616934a454cf1f0e21721134,627c6f1cc925d19e815a9021,2022-05-12_04h25.15.596,classification_task,2021.2.3,Win32,59.89817311,627c6715c52fd12f31907bcf,,,,,,,,,,,,,,,,,,,,,,,a,1,"[""0.322"",""0.511"",""0.881"",""0.277""]","[1,1,1,0]",0,11,11,11,1,0,0,,,0,FALSE,0.6586,,,,,,,,,,,,,,,,,,,,,,,,,,,,,,
,616934a454cf1f0e21721134,627c6f1cc925d19e815a9021,2022-05-12_04h25.15.596,classification_task,2021.2.3,Win32,59.89817311,627c6715c52fd12f31907bcf,,,,,,,,,,,,,,,,,,,,,,,l,1,"[""0.029"",""0.407"",""0.557"",""0.256""]","[1,1,1,0]",0,12,12,12,1,1,0,,,0,FALSE,0.5624,,,,,,,,,,,,,,,,,,,,,,,,,,,,,,
,616934a454cf1f0e21721134,627c6f1cc925d19e815a9021,2022-05-12_04h25.15.596,classification_task,2021.2.3,Win32,59.89817311,627c6715c52fd12f31907bcf,,,,,,,,,,,,,,,,,,,,,,,a,1,"[""0.322"",""0.511"",""0.256"",""0.957""]","[1,1,0,1]",0,13,13,13,1,0,0,,,0,FALSE,0.5746,,,,,,,,,,,,,,,,,,,,,,,,,,,,,,
,616934a454cf1f0e21721134,627c6f1cc925d19e815a9021,2022-05-12_04h25.15.596,classification_task,2021.2.3,Win32,59.89817311,627c6715c52fd12f31907bcf,,,,,,,,,,,,,,,,,,,,,,,l,1,"[""0.029"",""0.407"",""0.242"",""0.822""]","[1,1,0,1]",0,14,14,14,1,1,0,,,0,FALSE,0.6767,,,,,,,,,,,,,,,,,,,,,,,,,,,,,,
,616934a454cf1f0e21721134,627c6f1cc925d19e815a9021,2022-05-12_04h25.15.596,classification_task,2021.2.3,Win32,59.89817311,627c6715c52fd12f31907bcf,,,,,,,,,,,,,,,,,,,,,,,a,1,"[""0.198"",""0.471"",""0.621"",""0.357""]","[1,1,1,0]",0,15,15,15,1,0,1,,,0,FALSE,1.3972,,,,,,,,,,,,,,,,,,,,,,,,,,,,,,
,616934a454cf1f0e21721134,627c6f1cc925d19e815a9021,2022-05-12_04h25.15.596,classification_task,2021.2.3,Win32,59.89817311,627c6715c52fd12f31907bcf,,,,,,,,,,,,,,,,,,,,,,,l,0,"[""0.267"",""0.471"",""0.621"",""0.922""]","[0,1,1,1]",0,16,16,16,1,0,1,,,0,FALSE,1.3014,,,,,,,,,,,,,,,,,,,,,,,,,,,,,,
,616934a454cf1f0e21721134,627c6f1cc925d19e815a9021,2022-05-12_04h25.15.596,classification_task,2021.2.3,Win32,59.89817311,627c6715c52fd12f31907bcf,,,,,,,,,,,,,,,,,,,,,,,l,1,"[""0.103"",""0.162"",""0.672"",""0.357""]","[1,1,1,0]",0,17,17,17,1,1,1,,,0,FALSE,1.1999,,,,,,,,,,,,,,,,,,,,,,,,,,,,,,
,616934a454cf1f0e21721134,627c6f1cc925d19e815a9021,2022-05-12_04h25.15.596,classification_task,2021.2.3,Win32,59.89817311,627c6715c52fd12f31907bcf,,,,,,,,,,,,,,,,,,,,,,,l,1,"[""0.029"",""0.407"",""0.557"",""0.256""]","[1,1,1,0]",0,18,18,18,1,1,0,,,0,FALSE,0.6497,,,,,,,,,,,,,,,,,,,,,,,,,,,,,,
,616934a454cf1f0e21721134,627c6f1cc925d19e815a9021,2022-05-12_04h25.15.596,classification_task,2021.2.3,Win32,59.89817311,627c6715c52fd12f31907bcf,,,,,,,,,,,,,,,,,,,,,,,a,1,"[""0.198"",""0.277"",""0.621"",""0.922""]","[1,0,1,1]",0,19,19,19,1,0,1,,,0,FALSE,1.6493,,,,,,,,,,,,,,,,,,,,,,,,,,,,,,
,616934a454cf1f0e21721134,627c6f1cc925d19e815a9021,2022-05-12_04h25.15.596,classification_task,2021.2.3,Win32,59.89817311,627c6715c52fd12f31907bcf,,,,,,,,,,,,,,,,,,,,,,,l,1,"[""0.103"",""0.162"",""0.721"",""0.768""]","[1,1,0,1]",0,20,20,20,1,1,1,,,0,FALSE,1.361,,,,,,,,,,,,,,,,,,,,,,,,,,,,,,
,616934a454cf1f0e21721134,627c6f1cc925d19e815a9021,2022-05-12_04h25.15.596,classification_task,2021.2.3,Win32,59.89817311,627c6715c52fd12f31907bcf,,,,,,,,,,,,,,,,,,,,,,,l,1,"[""0.029"",""0.407"",""0.261"",""0.822""]","[1,1,0,1]",0,21,21,21,1,1,0,,,0,FALSE,0.713,,,,,,,,,,,,,,,,,,,,,,,,,,,,,,
,616934a454cf1f0e21721134,627c6f1cc925d19e815a9021,2022-05-12_04h25.15.596,classification_task,2021.2.3,Win32,59.89817311,627c6715c52fd12f31907bcf,,,,,,,,,,,,,,,,,,,,,,,l,0,"[""0.322"",""0.357"",""0.881"",""0.957""]","[1,0,1,1]",0,22,22,22,1,0,0,,,0,FALSE,0.5198,,,,,,,,,,,,,,,,,,,,,,,,,,,,,,
,616934a454cf1f0e21721134,627c6f1cc925d19e815a9021,2022-05-12_04h25.15.596,classification_task,2021.2.3,Win32,59.89817311,627c6715c52fd12f31907bcf,,,,,,,,,,,,,,,,,,,,,,,l,1,"[""0.029"",""0.261"",""0.557"",""0.822""]","[1,0,1,1]",0,23,23,23,1,1,0,,,0,FALSE,0.7119,,,,,,,,,,,,,,,,,,,,,,,,,,,,,,
,616934a454cf1f0e21721134,627c6f1cc925d19e815a9021,2022-05-12_04h25.15.596,classification_task,2021.2.3,Win32,59.89817311,627c6715c52fd12f31907bcf,,,,,,,,,,,,,,,,,,,,,,,l,1,"[""0.721"",""0.407"",""0.557"",""0.822""]","[0,1,1,1]",0,24,24,24,1,1,0,,,0,FALSE,0.649,,,,,,,,,,,,,,,,,,,,,,,,,,,,,,
,616934a454cf1f0e21721134,627c6f1cc925d19e815a9021,2022-05-12_04h25.15.596,classification_task,2021.2.3,Win32,59.89817311,627c6715c52fd12f31907bcf,,,,,,,,,,,,,,,,,,,,,,,a,0,"[""0.253"",""0.162"",""0.672"",""0.768""]","[0,1,1,1]",0,25,25,25,1,1,1,,,0,FALSE,2.5382,,,,,,,,,,,,,,,,,,,,,,,,,,,,,,
,616934a454cf1f0e21721134,627c6f1cc925d19e815a9021,2022-05-12_04h25.15.596,classification_task,2021.2.3,Win32,59.89817311,627c6715c52fd12f31907bcf,,,,,,,,,,,,,,,,,,,,,,,l,0,"[""0.322"",""0.511"",""0.357"",""0.957""]","[1,1,0,1]",0,26,26,26,1,0,0,,,0,FALSE,0.931,,,,,,,,,,,,,,,,,,,,,,,,,,,,,,
,616934a454cf1f0e21721134,627c6f1cc925d19e815a9021,2022-05-12_04h25.15.596,classification_task,2021.2.3,Win32,59.89817311,627c6715c52fd12f31907bcf,,,,,,,,,,,,,,,,,,,,,,,a,1,"[""0.322"",""0.511"",""0.881"",""0.066""]","[1,1,1,0]",0,27,27,27,1,0,0,,,0,FALSE,0.8976,,,,,,,,,,,,,,,,,,,,,,,,,,,,,,
,616934a454cf1f0e21721134,627c6f1cc925d19e815a9021,2022-05-12_04h25.15.596,classification_task,2021.2.3,Win32,59.89817311,627c6715c52fd12f31907bcf,,,,,,,,,,,,,,,,,,,,,,,a,1,"[""0.198"",""0.471"",""0.277"",""0.922""]","[1,1,0,1]",0,28,28,28,1,0,1,,,0,FALSE,1.2834,,,,,,,,,,,,,,,,,,,,,,,,,,,,,,
,616934a454cf1f0e21721134,627c6f1cc925d19e815a9021,2022-05-12_04h25.15.596,classification_task,2021.2.3,Win32,59.89817311,627c6715c52fd12f31907bcf,,,,,,,,,,,,,,,,,,,,,,,l,1,"[""0.103"",""0.256"",""0.672"",""0.768""]","[1,0,1,1]",0,29,29,29,1,1,1,,,0,FALSE,1.4209,,,,,,,,,,,,,,,,,,,,,,,,,,,,,,
,616934a454cf1f0e21721134,627c6f1cc925d19e815a9021,2022-05-12_04h25.15.596,classification_task,2021.2.3,Win32,59.89817311,627c6715c52fd12f31907bcf,,,,,,,,,,,,,,,,,,,,,,,a,1,"[""0.066"",""0.511"",""0.881"",""0.957""]","[0,1,1,1]",0,30,30,30,1,0,0,,,0,FALSE,0.986,,,,,,,,,,,,,,,,,,,,,,,,,,,,,,
,616934a454cf1f0e21721134,627c6f1cc925d19e815a9021,2022-05-12_04h25.15.596,classification_task,2021.2.3,Win32,59.89817311,627c6715c52fd12f31907bcf,,,,,,,,,,,,,,,,,,,,,,,a,1,"[""0.198"",""0.471"",""0.621"",""0.256""]","[1,1,1,0]",0,31,31,31,1,0,1,,,0,FALSE,1.3516,,,,,,,,,,,,,,,,,,,,,,,,,,,,,,
,616934a454cf1f0e21721134,627c6f1cc925d19e815a9021,2022-05-12_04h25.15.596,classification_task,2021.2.3,Win32,59.89817311,627c6715c52fd12f31907bcf,,,,,,,,,,,,,,,,,,,,,,,l,1,"[""0.103"",""0.162"",""0.242"",""0.768""]","[1,1,0,1]",0,32,32,32,1,1,1,,,0,FALSE,0.7617,,,,,,,,,,,,,,,,,,,,,,,,,,,,,,
,616934a454cf1f0e21721134,627c6f1cc925d19e815a9021,2022-05-12_04h25.15.596,classification_task,2021.2.3,Win32,59.89817311,627c6715c52fd12f31907bcf,,,,,,,,,,,,,,,,,,,,,,,a,0,"[""0.029"",""0.256"",""0.557"",""0.822""]","[1,0,1,1]",0,33,33,33,1,1,0,,,0,FALSE,0.9423,,,,,,,,,,,,,,,,,,,,,,,,,,,,,,
,616934a454cf1f0e21721134,627c6f1cc925d19e815a9021,2022-05-12_04h25.15.596,classification_task,2021.2.3,Win32,59.89817311,627c6715c52fd12f31907bcf,,,,,,,,,,,,,,,,,,,,,,,a,1,"[""0.267"",""0.471"",""0.621"",""0.922""]","[0,1,1,1]",0,34,34,34,1,0,1,,,0,FALSE,1.5871,,,,,,,,,,,,,,,,,,,,,,,,,,,,,,
,616934a454cf1f0e21721134,627c6f1cc925d19e815a9021,2022-05-12_04h25.15.596,classification_task,2021.2.3,Win32,59.89817311,627c6715c52fd12f31907bcf,,,,,,,,,,,,,,,,,,,,,,,a,1,"[""0.198"",""0.471"",""0.721"",""0.922""]","[1,1,0,1]",0,35,35,35,1,0,1,,,0,FALSE,1.0414,,,,,,,,,,,,,,,,,,,,,,,,,,,,,,
,616934a454cf1f0e21721134,627c6f1cc925d19e815a9021,2022-05-12_04h25.15.596,classification_task,2021.2.3,Win32,59.89817311,627c6715c52fd12f31907bcf,,,,,,,,,,,,,,,,,,,,,,,a,1,"[""0.322"",""0.511"",""0.881"",""0.256""]","[1,1,1,0]",0,36,36,36,1,0,0,,,0,FALSE,1.3489,,,,,,,,,,,,,,,,,,,,,,,,,,,,,,
,616934a454cf1f0e21721134,627c6f1cc925d19e815a9021,2022-05-12_04h25.15.596,classification_task,2021.2.3,Win32,59.89817311,627c6715c52fd12f31907bcf,,,,,,,,,,,,,,,,,,,,,,,a,1,"[""0.198"",""0.256"",""0.621"",""0.922""]","[1,0,1,1]",0,37,37,37,1,0,1,,,0,FALSE,1.1043,,,,,,,,,,,,,,,,,,,,,,,,,,,,,,
,616934a454cf1f0e21721134,627c6f1cc925d19e815a9021,2022-05-12_04h25.15.596,classification_task,2021.2.3,Win32,59.89817311,627c6715c52fd12f31907bcf,,,,,,,,,,,,,,,,,,,,,,,a,1,"[""0.322"",""0.242"",""0.881"",""0.957""]","[1,0,1,1]",0,38,38,38,1,0,0,,,0,FALSE,0.817,,,,,,,,,,,,,,,,,,,,,,,,,,,,,,
,616934a454cf1f0e21721134,627c6f1cc925d19e815a9021,2022-05-12_04h25.15.596,classification_task,2021.2.3,Win32,59.89817311,627c6715c52fd12f31907bcf,,,,,,,,,,,,,,,,,,,,,,,l,1,"[""0.357"",""0.162"",""0.672"",""0.768""]","[0,1,1,1]",0,39,39,39,1,1,1,,,0,FALSE,1.5595,,,,,,,,,,,,,,,,,,,,,,,,,,,,,,
,616934a454cf1f0e21721134,627c6f1cc925d19e815a9021,2022-05-12_04h25.15.596,classification_task,2021.2.3,Win32,59.89817311,627c6715c52fd12f31907bcf,,,,,,,,,,,,,,,,,,,,,,,l,1,"[""0.029"",""0.407"",""0.557"",""0.267""]","[1,1,1,0]",0,40,40,40,1,1,0,,,0,FALSE,0.86,,,,,,,,,,,,,,,,,,,,,,,,,,,,,,
,616934a454cf1f0e21721134,627c6f1cc925d19e815a9021,2022-05-12_04h25.15.596,classification_task,2021.2.3,Win32,59.89817311,627c6715c52fd12f31907bcf,,,,,,,,,,,,,,,,,,,,,,,l,1,"[""0.708"",""0.407"",""0.557"",""0.822""]","[0,1,1,1]",0,41,41,41,1,1,0,,,0,FALSE,0.8211,,,,,,,,,,,,,,,,,,,,,,,,,,,,,,
,616934a454cf1f0e21721134,627c6f1cc925d19e815a9021,2022-05-12_04h25.15.596,classification_task,2021.2.3,Win32,59.89817311,627c6715c52fd12f31907bcf,,,,,,,,,,,,,,,,,,,,,,,a,1,"[""0.198"",""0.471"",""0.621"",""0.708""]","[1,1,1,0]",0,42,42,42,1,0,1,,,0,FALSE,1.6286,,,,,,,,,,,,,,,,,,,,,,,,,,,,,,
,616934a454cf1f0e21721134,627c6f1cc925d19e815a9021,2022-05-12_04h25.15.596,classification_task,2021.2.3,Win32,59.89817311,627c6715c52fd12f31907bcf,,,,,,,,,,,,,,,,,,,,,,,l,1,"[""0.103"",""0.261"",""0.672"",""0.768""]","[1,0,1,1]",0,43,43,43,1,1,1,,,0,FALSE,2.5099,,,,,,,,,,,,,,,,,,,,,,,,,,,,,,
,616934a454cf1f0e21721134,627c6f1cc925d19e815a9021,2022-05-12_04h25.15.596,classification_task,2021.2.3,Win32,59.89817311,627c6715c52fd12f31907bcf,,,,,,,,,,,,,,,,,,,,,,,l,1,"[""0.103"",""0.162"",""0.672"",""0.068""]","[1,1,1,0]",0,44,44,44,1,1,1,,,0,FALSE,2.4023,,,,,,,,,,,,,,,,,,,,,,,,,,,,,,
,616934a454cf1f0e21721134,627c6f1cc925d19e815a9021,2022-05-12_04h25.15.596,classification_task,2021.2.3,Win32,59.89817311,627c6715c52fd12f31907bcf,,,,,,,,,,,,,,,,,,,,,,,a,1,"[""0.066"",""0.511"",""0.881"",""0.957""]","[0,1,1,1]",0,45,45,45,1,0,0,,,0,FALSE,2.084,,,,,,,,,,,,,,,,,,,,,,,,,,,,,,
,616934a454cf1f0e21721134,627c6f1cc925d19e815a9021,2022-05-12_04h25.15.596,classification_task,2021.2.3,Win32,59.89817311,627c6715c52fd12f31907bcf,,,,,,,,,,,,,,,,,,,,,,,a,1,"[""0.322"",""0.511"",""0.709"",""0.957""]","[1,1,0,1]",0,46,46,46,1,0,0,,,0,FALSE,0.5549,,,,,,,,,,,,,,,,,,,,,,,,,,,,,,
,616934a454cf1f0e21721134,627c6f1cc925d19e815a9021,2022-05-12_04h25.15.596,classification_task,2021.2.3,Win32,59.89817311,627c6715c52fd12f31907bcf,,,,,,,,,,,,,,,,,,,,,,,l,1,"[""0.029"",""0.407"",""0.256"",""0.822""]","[1,1,0,1]",0,47,47,47,1,1,0,,,0,FALSE,0.6117,,,,,,,,,,,,,,,,,,,,,,,,,,,,,,
,616934a454cf1f0e21721134,627c6f1cc925d19e815a9021,2022-05-12_04h25.15.596,classification_task,2021.2.3,Win32,59.89817311,627c6715c52fd12f31907bcf,,,,,,,,,,,,,,,,,,,,,,,l,1,"[""0.103"",""0.162"",""0.672"",""0.242""]","[1,1,1,0]",0,48,48,48,1,1,1,,,0,FALSE,2.7399,,,,,,,,,,,,,,,,,,,,,,,,,,,,,,
,616934a454cf1f0e21721134,627c6f1cc925d19e815a9021,2022-05-12_04h25.15.596,classification_task,2021.2.3,Win32,59.89817311,627c6715c52fd12f31907bcf,,,,,,,,,,,,,,,,,,,,,,,a,1,"[""0.198"",""0.721"",""0.621"",""0.922""]","[1,0,1,1]",0,49,49,49,1,0,1,,,0,FALSE,0.8874,,,,,,,,,,,,,,,,,,,,,,,,,,,,,,
,616934a454cf1f0e21721134,627c6f1cc925d19e815a9021,2022-05-12_04h25.15.596,classification_task,2021.2.3,Win32,59.89817311,627c6715c52fd12f31907bcf,,,,,,,,,,,,,,,,,,,,,,,l,1,"[""0.029"",""0.064"",""0.557"",""0.822""]","[1,0,1,1]",0,50,50,50,1,1,0,,,0,FALSE,1.4474,,,,,,,,,,,,,,,,,,,,,,,,,,,,,,
,616934a454cf1f0e21721134,627c6f1cc925d19e815a9021,2022-05-12_04h25.15.596,classification_task,2021.2.3,Win32,59.89817311,627c6715c52fd12f31907bcf,,,,,,,,,,,,,,,,,,,,,,,l,1,"[""0.029"",""0.407"",""0.068"",""0.822""]","[1,1,0,1]",0,51,51,51,1,1,0,,,0,FALSE,0.4253,,,,,,,,,,,,,,,,,,,,,,,,,,,,,,
,616934a454cf1f0e21721134,627c6f1cc925d19e815a9021,2022-05-12_04h25.15.596,classification_task,2021.2.3,Win32,59.89817311,627c6715c52fd12f31907bcf,,,,,,,,,,,,,,,,,,,,,,,a,1,"[""0.198"",""0.471"",""0.709"",""0.922""]","[1,1,0,1]",0,52,52,52,1,0,1,,,0,FALSE,0.9318,,,,,,,,,,,,,,,,,,,,,,,,,,,,,,
,616934a454cf1f0e21721134,627c6f1cc925d19e815a9021,2022-05-12_04h25.15.596,classification_task,2021.2.3,Win32,59.89817311,627c6715c52fd12f31907bcf,,,,,,,,,,,,,,,,,,,,,,,a,1,"[""0.256"",""0.511"",""0.881"",""0.957""]","[0,1,1,1]",0,53,53,53,1,0,0,,,0,FALSE,0.8547,,,,,,,,,,,,,,,,,,,,,,,,,,,,,,
,616934a454cf1f0e21721134,627c6f1cc925d19e815a9021,2022-05-12_04h25.15.596,classification_task,2021.2.3,Win32,59.89817311,627c6715c52fd12f31907bcf,,,,,,,,,,,,,,,,,,,,,,,l,1,"[""0.103"",""0.242"",""0.672"",""0.768""]","[1,0,1,1]",0,54,54,54,1,1,1,,,0,FALSE,1.6093,,,,,,,,,,,,,,,,,,,,,,,,,,,,,,
,616934a454cf1f0e21721134,627c6f1cc925d19e815a9021,2022-05-12_04h25.15.596,classification_task,2021.2.3,Win32,59.89817311,627c6715c52fd12f31907bcf,,,,,,,,,,,,,,,,,,,,,,,l,1,"[""0.066"",""0.407"",""0.557"",""0.822""]","[0,1,1,1]",0,55,55,55,1,1,0,,,0,FALSE,0.6321,,,,,,,,,,,,,,,,,,,,,,,,,,,,,,
,616934a454cf1f0e21721134,627c6f1cc925d19e815a9021,2022-05-12_04h25.15.596,classification_task,2021.2.3,Win32,59.89817311,627c6715c52fd12f31907bcf,,,,,,,,,,,,,,,,,,,,,,,a,1,"[""0.322"",""0.511"",""0.881"",""0.066""]","[1,1,1,0]",0,56,56,56,1,0,0,,,0,FALSE,0.7643,,,,,,,,,,,,,,,,,,,,,,,,,,,,,,
,616934a454cf1f0e21721134,627c6f1cc925d19e815a9021,2022-05-12_04h25.15.596,classification_task,2021.2.3,Win32,59.89817311,627c6715c52fd12f31907bcf,,,,,,,,,,,,,,,,,,,,,,,a,1,"[""0.322"",""0.511"",""0.256"",""0.957""]","[1,1,0,1]",0,57,57,57,1,0,0,,,0,FALSE,0.7561,,,,,,,,,,,,,,,,,,,,,,,,,,,,,,
,616934a454cf1f0e21721134,627c6f1cc925d19e815a9021,2022-05-12_04h25.15.596,classification_task,2021.2.3,Win32,59.89817311,627c6715c52fd12f31907bcf,,,,,,,,,,,,,,,,,,,,,,,a,1,"[""0.267"",""0.471"",""0.621"",""0.922""]","[0,1,1,1]",0,58,58,58,1,0,1,,,0,FALSE,3.3429,,,,,,,,,,,,,,,,,,,,,,,,,,,,,,
,616934a454cf1f0e21721134,627c6f1cc925d19e815a9021,2022-05-12_04h25.15.596,classification_task,2021.2.3,Win32,59.89817311,627c6715c52fd12f31907bcf,,,,,,,,,,,,,,,,,,,,,,,l,1,"[""0.029"",""0.407"",""0.557"",""0.261""]","[1,1,1,0]",0,59,59,59,1,1,0,,,0,FALSE,0.7274,,,,,,,,,,,,,,,,,,,,,,,,,,,,,,
,616934a454cf1f0e21721134,627c6f1cc925d19e815a9021,2022-05-12_04h25.15.596,classification_task,2021.2.3,Win32,59.89817311,627c6715c52fd12f31907bcf,,,,,,,,,,,,,,,,,,,,,,,a,1,"[""0.322"",""0.064"",""0.881"",""0.957""]","[1,0,1,1]",0,60,60,60,1,0,0,,,0,FALSE,0.6255,,,,,,,,,,,,,,,,,,,,,,,,,,,,,,
,616934a454cf1f0e21721134,627c6f1cc925d19e815a9021,2022-05-12_04h25.15.596,classification_task,2021.2.3,Win32,59.89817311,627c6715c52fd12f31907bcf,,,,,,,,,,,,,,,,,,,,,,,l,1,"[""0.357"",""0.162"",""0.672"",""0.768""]","[0,1,1,1]",0,61,61,61,1,1,1,,,0,FALSE,3.3049,,,,,,,,,,,,,,,,,,,,,,,,,,,,,,
,616934a454cf1f0e21721134,627c6f1cc925d19e815a9021,2022-05-12_04h25.15.596,classification_task,2021.2.3,Win32,59.89817311,627c6715c52fd12f31907bcf,,,,,,,,,,,,,,,,,,,,,,,a,1,"[""0.198"",""0.471"",""0.621"",""0.721""]","[1,1,1,0]",0,62,62,62,1,0,1,,,0,FALSE,0.9387,,,,,,,,,,,,,,,,,,,,,,,,,,,,,,
,616934a454cf1f0e21721134,627c6f1cc925d19e815a9021,2022-05-12_04h25.15.596,classification_task,2021.2.3,Win32,59.89817311,627c6715c52fd12f31907bcf,,,,,,,,,,,,,,,,,,,,,,,l,1,"[""0.103"",""0.162"",""0.256"",""0.768""]","[1,1,0,1]",0,63,63,63,1,1,1,,,0,FALSE,1.769,,,,,,,,,,,,,,,,,,,,,,,,,,,,,,
,616934a454cf1f0e21721134,627c6f1cc925d19e815a9021,2022-05-12_04h25.15.596,classification_task,2021.2.3,Win32,59.89817311,627c6715c52fd12f31907bcf,,,,,,,,,,,,,,,,,,,,,,,,,,,,,,,,,,,,,,,0, ,,0,4.758873457,238.7519,0,1,1,1,1,2,2,,,,,,,,,,,,,,,,,
,616934a454cf1f0e21721134,627c6f1cc925d19e815a9021,2022-05-12_04h25.15.596,classification_task,2021.2.3,Win32,59.89817311,627c6715c52fd12f31907bcf,,,,,,,,,,,,,,,,,,,,,,,,,,,,,,,,,,,,,,,1,  ,,0,8.237985009,243.392,0,1,1,1,1,2,2,,,,,,,,,,,,,,,,,
,616934a454cf1f0e21721134,627c6f1cc925d19e815a9021,2022-05-12_04h25.15.596,classification_task,2021.2.3,Win32,59.89817311,627c6715c52fd12f31907bcf,,,,,,,,,,,,,,,,,,,,,,,,,,,,,,,,,,,,,,,2,  ,,0,3.105434303,246.3725,0,1,1,1,1,2,2,,,,,,,,,,,,,,,,,
,616934a454cf1f0e21721134,627c6f1cc925d19e815a9021,2022-05-12_04h25.15.596,classification_task,2021.2.3,Win32,59.89817311,627c6715c52fd12f31907bcf,,,,,,,,,,,,,,,,,,,,,,,,,,,,,,,,,,,,,,,,,,,,,0,1,1,1,1,,2,,,,,,,,,,,,,,,,,
,616934a454cf1f0e21721134,627c6f1cc925d19e815a9021,2022-05-12_04h25.15.596,classification_task,2021.2.3,Win32,59.89817311,627c6715c52fd12f31907bcf,,,,,,,,,,,,,,,,,,,,,space,20.1387,l,1,"[""0.029"",""0.407"",""0.066"",""0.822""]","[1,1,0,1]",0,0,0,0,1,1,0,,,0,FALSE,3.0205,,,,,,,,,,,,,,,,,,,,,,,,,,,,,,
,616934a454cf1f0e21721134,627c6f1cc925d19e815a9021,2022-05-12_04h25.15.596,classification_task,2021.2.3,Win32,59.89817311,627c6715c52fd12f31907bcf,,,,,,,,,,,,,,,,,,,,,,,l,1,"[""0.029"",""0.407"",""0.557"",""0.261""]","[1,1,1,0]",0,1,1,1,1,1,0,,,0,FALSE,2.0162,,,,,,,,,,,,,,,,,,,,,,,,,,,,,,
,616934a454cf1f0e21721134,627c6f1cc925d19e815a9021,2022-05-12_04h25.15.596,classification_task,2021.2.3,Win32,59.89817311,627c6715c52fd12f31907bcf,,,,,,,,,,,,,,,,,,,,,,,a,1,"[""0.267"",""0.471"",""0.621"",""0.922""]","[0,1,1,1]",0,2,2,2,1,0,1,,,0,FALSE,1.52,,,,,,,,,,,,,,,,,,,,,,,,,,,,,,
,616934a454cf1f0e21721134,627c6f1cc925d19e815a9021,2022-05-12_04h25.15.596,classification_task,2021.2.3,Win32,59.89817311,627c6715c52fd12f31907bcf,,,,,,,,,,,,,,,,,,,,,,,a,1,"[""0.198"",""0.471"",""0.709"",""0.922""]","[1,1,0,1]",0,3,3,3,1,0,1,,,0,FALSE,0.9298,,,,,,,,,,,,,,,,,,,,,,,,,,,,,,
,616934a454cf1f0e21721134,627c6f1cc925d19e815a9021,2022-05-12_04h25.15.596,classification_task,2021.2.3,Win32,59.89817311,627c6715c52fd12f31907bcf,,,,,,,,,,,,,,,,,,,,,,,l,0,"[""0.322"",""0.511"",""0.881"",""0.709""]","[1,1,1,0]",0,4,4,4,1,0,0,,,0,FALSE,1.6406,,,,,,,,,,,,,,,,,,,,,,,,,,,,,,
,616934a454cf1f0e21721134,627c6f1cc925d19e815a9021,2022-05-12_04h25.15.596,classification_task,2021.2.3,Win32,59.89817311,627c6715c52fd12f31907bcf,,,,,,,,,,,,,,,,,,,,,,,a,0,"[""0.029"",""0.357"",""0.557"",""0.822""]","[1,0,1,1]",0,5,5,5,1,1,0,,,0,FALSE,0.9862,,,,,,,,,,,,,,,,,,,,,,,,,,,,,,
,616934a454cf1f0e21721134,627c6f1cc925d19e815a9021,2022-05-12_04h25.15.596,classification_task,2021.2.3,Win32,59.89817311,627c6715c52fd12f31907bcf,,,,,,,,,,,,,,,,,,,,,,,a,1,"[""0.198"",""0.471"",""0.621"",""0.064""]","[1,1,1,0]",0,6,6,6,1,0,1,,,0,FALSE,1.5798,,,,,,,,,,,,,,,,,,,,,,,,,,,,,,
,616934a454cf1f0e21721134,627c6f1cc925d19e815a9021,2022-05-12_04h25.15.596,classification_task,2021.2.3,Win32,59.89817311,627c6715c52fd12f31907bcf,,,,,,,,,,,,,,,,,,,,,,,l,1,"[""0.103"",""0.162"",""0.267"",""0.768""]","[1,1,0,1]",0,7,7,7,1,1,1,,,0,FALSE,1.3731,,,,,,,,,,,,,,,,,,,,,,,,,,,,,,
,616934a454cf1f0e21721134,627c6f1cc925d19e815a9021,2022-05-12_04h25.15.596,classification_task,2021.2.3,Win32,59.89817311,627c6715c52fd12f31907bcf,,,,,,,,,,,,,,,,,,,,,,,a,1,"[""0.198"",""0.357"",""0.621"",""0.922""]","[1,0,1,1]",0,8,8,8,1,0,1,,,0,FALSE,1.0445,,,,,,,,,,,,,,,,,,,,,,,,,,,,,,
,616934a454cf1f0e21721134,627c6f1cc925d19e815a9021,2022-05-12_04h25.15.596,classification_task,2021.2.3,Win32,59.89817311,627c6715c52fd12f31907bcf,,,,,,,,,,,,,,,,,,,,,,,l,0,"[""0.322"",""0.511"",""0.267"",""0.957""]","[1,1,0,1]",0,9,9,9,1,0,0,,,0,FALSE,2.123,,,,,,,,,,,,,,,,,,,,,,,,,,,,,,
,616934a454cf1f0e21721134,627c6f1cc925d19e815a9021,2022-05-12_04h25.15.596,classification_task,2021.2.3,Win32,59.89817311,627c6715c52fd12f31907bcf,,,,,,,,,,,,,,,,,,,,,,,l,1,"[""0.103"",""0.357"",""0.672"",""0.768""]","[1,0,1,1]",0,10,10,10,1,1,1,,,0,FALSE,1.9205,,,,,,,,,,,,,,,,,,,,,,,,,,,,,,
,616934a454cf1f0e21721134,627c6f1cc925d19e815a9021,2022-05-12_04h25.15.596,classification_task,2021.2.3,Win32,59.89817311,627c6715c52fd12f31907bcf,,,,,,,,,,,,,,,,,,,,,,,l,1,"[""0.256"",""0.407"",""0.557"",""0.822""]","[0,1,1,1]",0,11,11,11,1,1,0,,,0,FALSE,1.1997,,,,,,,,,,,,,,,,,,,,,,,,,,,,,,
,616934a454cf1f0e21721134,627c6f1cc925d19e815a9021,2022-05-12_04h25.15.596,classification_task,2021.2.3,Win32,59.89817311,627c6715c52fd12f31907bcf,,,,,,,,,,,,,,,,,,,,,,,l,0,"[""0.256"",""0.511"",""0.881"",""0.957""]","[0,1,1,1]",0,12,12,12,1,0,0,,,0,FALSE,2.7751,,,,,,,,,,,,,,,,,,,,,,,,,,,,,,
,616934a454cf1f0e21721134,627c6f1cc925d19e815a9021,2022-05-12_04h25.15.596,classification_task,2021.2.3,Win32,59.89817311,627c6715c52fd12f31907bcf,,,,,,,,,,,,,,,,,,,,,,,l,1,"[""0.709"",""0.162"",""0.672"",""0.768""]","[0,1,1,1]",0,13,13,13,1,1,1,,,0,FALSE,3.1811,,,,,,,,,,,,,,,,,,,,,,,,,,,,,,
,616934a454cf1f0e21721134,627c6f1cc925d19e815a9021,2022-05-12_04h25.15.596,classification_task,2021.2.3,Win32,59.89817311,627c6715c52fd12f31907bcf,,,,,,,,,,,,,,,,,,,,,,,a,1,"[""0.322"",""0.357"",""0.881"",""0.957""]","[1,0,1,1]",0,14,14,14,1,0,0,,,0,FALSE,1.3861,,,,,,,,,,,,,,,,,,,,,,,,,,,,,,
,616934a454cf1f0e21721134,627c6f1cc925d19e815a9021,2022-05-12_04h25.15.596,classification_task,2021.2.3,Win32,59.89817311,627c6715c52fd12f31907bcf,,,,,,,,,,,,,,,,,,,,,,,l,1,"[""0.103"",""0.162"",""0.672"",""0.253""]","[1,1,1,0]",0,15,15,15,1,1,1,,,0,FALSE,1.2973,,,,,,,,,,,,,,,,,,,,,,,,,,,,,,
,616934a454cf1f0e21721134,627c6f1cc925d19e815a9021,2022-05-12_04h25.15.596,classification_task,2021.2.3,Win32,59.89817311,627c6715c52fd12f31907bcf,,,,,,,,,,,,,,,,,,,,,,,l,1,"[""0.103"",""0.162"",""0.672"",""0.068""]","[1,1,1,0]",0,16,16,16,1,1,1,,,0,FALSE,1.5458,,,,,,,,,,,,,,,,,,,,,,,,,,,,,,
,616934a454cf1f0e21721134,627c6f1cc925d19e815a9021,2022-05-12_04h25.15.596,classification_task,2021.2.3,Win32,59.89817311,627c6715c52fd12f31907bcf,,,,,,,,,,,,,,,,,,,,,,,l,1,"[""0.029"",""0.407"",""0.242"",""0.822""]","[1,1,0,1]",0,17,17,17,1,1,0,,,0,FALSE,1.0607,,,,,,,,,,,,,,,,,,,,,,,,,,,,,,
,616934a454cf1f0e21721134,627c6f1cc925d19e815a9021,2022-05-12_04h25.15.596,classification_task,2021.2.3,Win32,59.89817311,627c6715c52fd12f31907bcf,,,,,,,,,,,,,,,,,,,,,,,a,1,"[""0.322"",""0.511"",""0.256"",""0.957""]","[1,1,0,1]",0,18,18,18,1,0,0,,,0,FALSE,3.8257,,,,,,,,,,,,,,,,,,,,,,,,,,,,,,
,616934a454cf1f0e21721134,627c6f1cc925d19e815a9021,2022-05-12_04h25.15.596,classification_task,2021.2.3,Win32,59.89817311,627c6715c52fd12f31907bcf,,,,,,,,,,,,,,,,,,,,,,,l,1,"[""0.029"",""0.357"",""0.557"",""0.822""]","[1,0,1,1]",0,19,19,19,1,1,0,,,0,FALSE,0.9603,,,,,,,,,,,,,,,,,,,,,,,,,,,,,,
,616934a454cf1f0e21721134,627c6f1cc925d19e815a9021,2022-05-12_04h25.15.596,classification_task,2021.2.3,Win32,59.89817311,627c6715c52fd12f31907bcf,,,,,,,,,,,,,,,,,,,,,,,l,1,"[""0.103"",""0.162"",""0.242"",""0.768""]","[1,1,0,1]",0,20,20,20,1,1,1,,,0,FALSE,1.2999,,,,,,,,,,,,,,,,,,,,,,,,,,,,,,
,616934a454cf1f0e21721134,627c6f1cc925d19e815a9021,2022-05-12_04h25.15.596,classification_task,2021.2.3,Win32,59.89817311,627c6715c52fd12f31907bcf,,,,,,,,,,,,,,,,,,,,,,,l,1,"[""0.103"",""0.253"",""0.672"",""0.768""]","[1,0,1,1]",0,21,21,21,1,1,1,,,0,FALSE,4.1084,,,,,,,,,,,,,,,,,,,,,,,,,,,,,,
,616934a454cf1f0e21721134,627c6f1cc925d19e815a9021,2022-05-12_04h25.15.596,classification_task,2021.2.3,Win32,59.89817311,627c6715c52fd12f31907bcf,,,,,,,,,,,,,,,,,,,,,,,,0,"[""0.029"",""0.407"",""0.557"",""0.253""]","[1,1,1,0]",0,22,22,22,1,1,0,,,0,FALSE,,,,,,,,,,,,,,,,,,,,,,,,,,,,,,,
,616934a454cf1f0e21721134,627c6f1cc925d19e815a9021,2022-05-12_04h25.15.596,classification_task,2021.2.3,Win32,59.89817311,627c6715c52fd12f31907bcf,,,,,,,,,,,,,,,,,,,,,,,a,1,"[""0.198"",""0.267"",""0.621"",""0.922""]","[1,0,1,1]",0,23,23,23,1,0,1,,,0,FALSE,6.9803,,,,,,,,,,,,,,,,,,,,,,,,,,,,,,
,616934a454cf1f0e21721134,627c6f1cc925d19e815a9021,2022-05-12_04h25.15.596,classification_task,2021.2.3,Win32,59.89817311,627c6715c52fd12f31907bcf,,,,,,,,,,,,,,,,,,,,,,,l,0,"[""0.068"",""0.471"",""0.621"",""0.922""]","[0,1,1,1]",0,24,24,24,1,0,1,,,0,FALSE,2.5758,,,,,,,,,,,,,,,,,,,,,,,,,,,,,,
,616934a454cf1f0e21721134,627c6f1cc925d19e815a9021,2022-05-12_04h25.15.596,classification_task,2021.2.3,Win32,59.89817311,627c6715c52fd12f31907bcf,,,,,,,,,,,,,,,,,,,,,,,a,1,"[""0.322"",""0.511"",""0.881"",""0.068""]","[1,1,1,0]",0,25,25,25,1,0,0,,,0,FALSE,1.5323,,,,,,,,,,,,,,,,,,,,,,,,,,,,,,
,616934a454cf1f0e21721134,627c6f1cc925d19e815a9021,2022-05-12_04h25.15.596,classification_task,2021.2.3,Win32,59.89817311,627c6715c52fd12f31907bcf,,,,,,,,,,,,,,,,,,,,,,,a,1,"[""0.322"",""0.256"",""0.881"",""0.957""]","[1,0,1,1]",0,26,26,26,1,0,0,,,0,FALSE,1.3378,,,,,,,,,,,,,,,,,,,,,,,,,,,,,,
,616934a454cf1f0e21721134,627c6f1cc925d19e815a9021,2022-05-12_04h25.15.596,classification_task,2021.2.3,Win32,59.89817311,627c6715c52fd12f31907bcf,,,,,,,,,,,,,,,,,,,,,,,a,0,"[""0.068"",""0.407"",""0.557"",""0.822""]","[0,1,1,1]",0,27,27,27,1,1,0,,,0,FALSE,1.025,,,,,,,,,,,,,,,,,,,,,,,,,,,,,,
,616934a454cf1f0e21721134,627c6f1cc925d19e815a9021,2022-05-12_04h25.15.596,classification_task,2021.2.3,Win32,59.89817311,627c6715c52fd12f31907bcf,,,,,,,,,,,,,,,,,,,,,,,a,1,"[""0.357"",""0.511"",""0.881"",""0.957""]","[0,1,1,1]",0,28,28,28,1,0,0,,,0,FALSE,0.6514,,,,,,,,,,,,,,,,,,,,,,,,,,,,,,
,616934a454cf1f0e21721134,627c6f1cc925d19e815a9021,2022-05-12_04h25.15.596,classification_task,2021.2.3,Win32,59.89817311,627c6715c52fd12f31907bcf,,,,,,,,,,,,,,,,,,,,,,,a,1,"[""0.198"",""0.471"",""0.621"",""0.242""]","[1,1,1,0]",0,29,29,29,1,0,1,,,0,FALSE,1.415,,,,,,,,,,,,,,,,,,,,,,,,,,,,,,
,616934a454cf1f0e21721134,627c6f1cc925d19e815a9021,2022-05-12_04h25.15.596,classification_task,2021.2.3,Win32,59.89817311,627c6715c52fd12f31907bcf,,,,,,,,,,,,,,,,,,,,,,,l,1,"[""0.256"",""0.162"",""0.672"",""0.768""]","[0,1,1,1]",0,30,30,30,1,1,1,,,0,FALSE,1.0683,,,,,,,,,,,,,,,,,,,,,,,,,,,,,,
,616934a454cf1f0e21721134,627c6f1cc925d19e815a9021,2022-05-12_04h25.15.596,classification_task,2021.2.3,Win32,59.89817311,627c6715c52fd12f31907bcf,,,,,,,,,,,,,,,,,,,,,,,a,1,"[""0.198"",""0.471"",""0.721"",""0.922""]","[1,1,0,1]",0,31,31,31,1,0,1,,,0,FALSE,0.8864,,,,,,,,,,,,,,,,,,,,,,,,,,,,,,
,616934a454cf1f0e21721134,627c6f1cc925d19e815a9021,2022-05-12_04h25.15.596,classification_task,2021.2.3,Win32,59.89817311,627c6715c52fd12f31907bcf,,,,,,,,,,,,,,,,,,,,,,,l,0,"[""0.322"",""0.511"",""0.881"",""0.066""]","[1,1,1,0]",0,32,32,32,1,0,0,,,0,FALSE,1.228,,,,,,,,,,,,,,,,,,,,,,,,,,,,,,
,616934a454cf1f0e21721134,627c6f1cc925d19e815a9021,2022-05-12_04h25.15.596,classification_task,2021.2.3,Win32,59.89817311,627c6715c52fd12f31907bcf,,,,,,,,,,,,,,,,,,,,,,,a,1,"[""0.253"",""0.511"",""0.881"",""0.957""]","[0,1,1,1]",0,33,33,33,1,0,0,,,0,FALSE,1.3427,,,,,,,,,,,,,,,,,,,,,,,,,,,,,,
,616934a454cf1f0e21721134,627c6f1cc925d19e815a9021,2022-05-12_04h25.15.596,classification_task,2021.2.3,Win32,59.89817311,627c6715c52fd12f31907bcf,,,,,,,,,,,,,,,,,,,,,,,l,0,"[""0.261"",""0.471"",""0.621"",""0.922""]","[0,1,1,1]",0,34,34,34,1,0,1,,,0,FALSE,3.2781,,,,,,,,,,,,,,,,,,,,,,,,,,,,,,
,616934a454cf1f0e21721134,627c6f1cc925d19e815a9021,2022-05-12_04h25.15.596,classification_task,2021.2.3,Win32,59.89817311,627c6715c52fd12f31907bcf,,,,,,,,,,,,,,,,,,,,,,,a,0,"[""0.029"",""0.066"",""0.557"",""0.822""]","[1,0,1,1]",0,35,35,35,1,1,0,,,0,FALSE,1.0566,,,,,,,,,,,,,,,,,,,,,,,,,,,,,,
,616934a454cf1f0e21721134,627c6f1cc925d19e815a9021,2022-05-12_04h25.15.596,classification_task,2021.2.3,Win32,59.89817311,627c6715c52fd12f31907bcf,,,,,,,,,,,,,,,,,,,,,,,a,1,"[""0.322"",""0.511"",""0.357"",""0.957""]","[1,1,0,1]",0,36,36,36,1,0,0,,,0,FALSE,1.2297,,,,,,,,,,,,,,,,,,,,,,,,,,,,,,
,616934a454cf1f0e21721134,627c6f1cc925d19e815a9021,2022-05-12_04h25.15.596,classification_task,2021.2.3,Win32,59.89817311,627c6715c52fd12f31907bcf,,,,,,,,,,,,,,,,,,,,,,,l,1,"[""0.029"",""0.407"",""0.557"",""0.357""]","[1,1,1,0]",0,37,37,37,1,1,0,,,0,FALSE,1.1317,,,,,,,,,,,,,,,,,,,,,,,,,,,,,,
,616934a454cf1f0e21721134,627c6f1cc925d19e815a9021,2022-05-12_04h25.15.596,classification_task,2021.2.3,Win32,59.89817311,627c6715c52fd12f31907bcf,,,,,,,,,,,,,,,,,,,,,,,l,1,"[""0.029"",""0.407"",""0.277"",""0.822""]","[1,1,0,1]",0,38,38,38,1,1,0,,,0,FALSE,1.209,,,,,,,,,,,,,,,,,,,,,,,,,,,,,,
,616934a454cf1f0e21721134,627c6f1cc925d19e815a9021,2022-05-12_04h25.15.596,classification_task,2021.2.3,Win32,59.89817311,627c6715c52fd12f31907bcf,,,,,,,,,,,,,,,,,,,,,,,,0,"[""0.068"",""0.162"",""0.672"",""0.768""]","[0,1,1,1]",0,39,39,39,1,1,1,,,0,FALSE,,,,,,,,,,,,,,,,,,,,,,,,,,,,,,,
,616934a454cf1f0e21721134,627c6f1cc925d19e815a9021,2022-05-12_04h25.15.596,classification_task,2021.2.3,Win32,59.89817311,627c6715c52fd12f31907bcf,,,,,,,,,,,,,,,,,,,,,,,l,0,"[""0.322"",""0.277"",""0.881"",""0.957""]","[1,0,1,1]",0,40,40,40,1,0,0,,,0,FALSE,3.9108,,,,,,,,,,,,,,,,,,,,,,,,,,,,,,
,616934a454cf1f0e21721134,627c6f1cc925d19e815a9021,2022-05-12_04h25.15.596,classification_task,2021.2.3,Win32,59.89817311,627c6715c52fd12f31907bcf,,,,,,,,,,,,,,,,,,,,,,,a,1,"[""0.198"",""0.471"",""0.621"",""0.708""]","[1,1,1,0]",0,41,41,41,1,0,1,,,0,FALSE,1.5355,,,,,,,,,,,,,,,,,,,,,,,,,,,,,,
,616934a454cf1f0e21721134,627c6f1cc925d19e815a9021,2022-05-12_04h25.15.596,classification_task,2021.2.3,Win32,59.89817311,627c6715c52fd12f31907bcf,,,,,,,,,,,,,,,,,,,,,,,l,1,"[""0.103"",""0.162"",""0.672"",""0.068""]","[1,1,1,0]",0,42,42,42,1,1,1,,,0,FALSE,1.7244,,,,,,,,,,,,,,,,,,,,,,,,,,,,,,
,616934a454cf1f0e21721134,627c6f1cc925d19e815a9021,2022-05-12_04h25.15.596,classification_task,2021.2.3,Win32,59.89817311,627c6715c52fd12f31907bcf,,,,,,,,,,,,,,,,,,,,,,,a,0,"[""0.242"",""0.407"",""0.557"",""0.822""]","[0,1,1,1]",0,43,43,43,1,1,0,,,0,FALSE,1.2414,,,,,,,,,,,,,,,,,,,,,,,,,,,,,,
,616934a454cf1f0e21721134,627c6f1cc925d19e815a9021,2022-05-12_04h25.15.596,classification_task,2021.2.3,Win32,59.89817311,627c6715c52fd12f31907bcf,,,,,,,,,,,,,,,,,,,,,,,a,1,"[""0.198"",""0.357"",""0.621"",""0.922""]","[1,0,1,1]",0,44,44,44,1,0,1,,,0,FALSE,1.0646,,,,,,,,,,,,,,,,,,,,,,,,,,,,,,
,616934a454cf1f0e21721134,627c6f1cc925d19e815a9021,2022-05-12_04h25.15.596,classification_task,2021.2.3,Win32,59.89817311,627c6715c52fd12f31907bcf,,,,,,,,,,,,,,,,,,,,,,,l,1,"[""0.103"",""0.162"",""0.708"",""0.768""]","[1,1,0,1]",0,45,45,45,1,1,1,,,0,FALSE,0.97,,,,,,,,,,,,,,,,,,,,,,,,,,,,,,
,616934a454cf1f0e21721134,627c6f1cc925d19e815a9021,2022-05-12_04h25.15.596,classification_task,2021.2.3,Win32,59.89817311,627c6715c52fd12f31907bcf,,,,,,,,,,,,,,,,,,,,,,,a,1,"[""0.198"",""0.471"",""0.242"",""0.922""]","[1,1,0,1]",0,46,46,46,1,0,1,,,0,FALSE,0.7646,,,,,,,,,,,,,,,,,,,,,,,,,,,,,,
,616934a454cf1f0e21721134,627c6f1cc925d19e815a9021,2022-05-12_04h25.15.596,classification_task,2021.2.3,Win32,59.89817311,627c6715c52fd12f31907bcf,,,,,,,,,,,,,,,,,,,,,,,a,0,"[""0.103"",""0.267"",""0.672"",""0.768""]","[1,0,1,1]",0,47,47,47,1,1,1,,,0,FALSE,1.281,,,,,,,,,,,,,,,,,,,,,,,,,,,,,,
,616934a454cf1f0e21721134,627c6f1cc925d19e815a9021,2022-05-12_04h25.15.596,classification_task,2021.2.3,Win32,59.89817311,627c6715c52fd12f31907bcf,,,,,,,,,,,,,,,,,,,,,,,l,0,"[""0.322"",""0.511"",""0.261"",""0.957""]","[1,1,0,1]",0,48,48,48,1,0,0,,,0,FALSE,1.2491,,,,,,,,,,,,,,,,,,,,,,,,,,,,,,
,616934a454cf1f0e21721134,627c6f1cc925d19e815a9021,2022-05-12_04h25.15.596,classification_task,2021.2.3,Win32,59.89817311,627c6715c52fd12f31907bcf,,,,,,,,,,,,,,,,,,,,,,,a,1,"[""0.198"",""0.471"",""0.242"",""0.922""]","[1,1,0,1]",0,49,49,49,1,0,1,,,0,FALSE,1.0861,,,,,,,,,,,,,,,,,,,,,,,,,,,,,,
,616934a454cf1f0e21721134,627c6f1cc925d19e815a9021,2022-05-12_04h25.15.596,classification_task,2021.2.3,Win32,59.89817311,627c6715c52fd12f31907bcf,,,,,,,,,,,,,,,,,,,,,,,a,0,"[""0.103"",""0.162"",""0.672"",""0.242""]","[1,1,1,0]",0,50,50,50,1,1,1,,,0,FALSE,1.1092,,,,,,,,,,,,,,,,,,,,,,,,,,,,,,
,616934a454cf1f0e21721134,627c6f1cc925d19e815a9021,2022-05-12_04h25.15.596,classification_task,2021.2.3,Win32,59.89817311,627c6715c52fd12f31907bcf,,,,,,,,,,,,,,,,,,,,,,,l,1,"[""0.029"",""0.407"",""0.557"",""0.066""]","[1,1,1,0]",0,51,51,51,1,1,0,,,0,FALSE,1.3182,,,,,,,,,,,,,,,,,,,,,,,,,,,,,,
,616934a454cf1f0e21721134,627c6f1cc925d19e815a9021,2022-05-12_04h25.15.596,classification_task,2021.2.3,Win32,59.89817311,627c6715c52fd12f31907bcf,,,,,,,,,,,,,,,,,,,,,,,a,0,"[""0.068"",""0.407"",""0.557"",""0.822""]","[0,1,1,1]",0,52,52,52,1,1,0,,,0,FALSE,2.8828,,,,,,,,,,,,,,,,,,,,,,,,,,,,,,
,616934a454cf1f0e21721134,627c6f1cc925d19e815a9021,2022-05-12_04h25.15.596,classification_task,2021.2.3,Win32,59.89817311,627c6715c52fd12f31907bcf,,,,,,,,,,,,,,,,,,,,,,,a,1,"[""0.198"",""0.068"",""0.621"",""0.922""]","[1,0,1,1]",0,53,53,53,1,0,1,,,0,FALSE,1.5554,,,,,,,,,,,,,,,,,,,,,,,,,,,,,,
,616934a454cf1f0e21721134,627c6f1cc925d19e815a9021,2022-05-12_04h25.15.596,classification_task,2021.2.3,Win32,59.89817311,627c6715c52fd12f31907bcf,,,,,,,,,,,,,,,,,,,,,,,l,0,"[""0.322"",""0.242"",""0.881"",""0.957""]","[1,0,1,1]",0,54,54,54,1,0,0,,,0,FALSE,1.2952,,,,,,,,,,,,,,,,,,,,,,,,,,,,,,
,616934a454cf1f0e21721134,627c6f1cc925d19e815a9021,2022-05-12_04h25.15.596,classification_task,2021.2.3,Win32,59.89817311,627c6715c52fd12f31907bcf,,,,,,,,,,,,,,,,,,,,,,,l,1,"[""0.103"",""0.162"",""0.242"",""0.768""]","[1,1,0,1]",0,55,55,55,1,1,1,,,0,FALSE,1.3227,,,,,,,,,,,,,,,,,,,,,,,,,,,,,,
,616934a454cf1f0e21721134,627c6f1cc925d19e815a9021,2022-05-12_04h25.15.596,classification_task,2021.2.3,Win32,59.89817311,627c6715c52fd12f31907bcf,,,,,,,,,,,,,,,,,,,,,,,a,1,"[""0.064"",""0.471"",""0.621"",""0.922""]","[0,1,1,1]",0,56,56,56,1,0,1,,,0,FALSE,1.4859,,,,,,,,,,,,,,,,,,,,,,,,,,,,,,
,616934a454cf1f0e21721134,627c6f1cc925d19e815a9021,2022-05-12_04h25.15.596,classification_task,2021.2.3,Win32,59.89817311,627c6715c52fd12f31907bcf,,,,,,,,,,,,,,,,,,,,,,,l,1,"[""0.267"",""0.162"",""0.672"",""0.768""]","[0,1,1,1]",0,57,57,57,1,1,1,,,0,FALSE,1.3028,,,,,,,,,,,,,,,,,,,,,,,,,,,,,,
,616934a454cf1f0e21721134,627c6f1cc925d19e815a9021,2022-05-12_04h25.15.596,classification_task,2021.2.3,Win32,59.89817311,627c6715c52fd12f31907bcf,,,,,,,,,,,,,,,,,,,,,,,a,1,"[""0.322"",""0.511"",""0.881"",""0.066""]","[1,1,1,0]",0,58,58,58,1,0,0,,,0,FALSE,1.2237,,,,,,,,,,,,,,,,,,,,,,,,,,,,,,
,616934a454cf1f0e21721134,627c6f1cc925d19e815a9021,2022-05-12_04h25.15.596,classification_task,2021.2.3,Win32,59.89817311,627c6715c52fd12f31907bcf,,,,,,,,,,,,,,,,,,,,,,,a,1,"[""0.198"",""0.471"",""0.621"",""0.709""]","[1,1,1,0]",0,59,59,59,1,0,1,,,0,FALSE,1.6081,,,,,,,,,,,,,,,,,,,,,,,,,,,,,,
,616934a454cf1f0e21721134,627c6f1cc925d19e815a9021,2022-05-12_04h25.15.596,classification_task,2021.2.3,Win32,59.89817311,627c6715c52fd12f31907bcf,,,,,,,,,,,,,,,,,,,,,,,l,1,"[""0.029"",""0.256"",""0.557"",""0.822""]","[1,0,1,1]",0,60,60,60,1,1,0,,,0,FALSE,1.1182,,,,,,,,,,,,,,,,,,,,,,,,,,,,,,
,616934a454cf1f0e21721134,627c6f1cc925d19e815a9021,2022-05-12_04h25.15.596,classification_task,2021.2.3,Win32,59.89817311,627c6715c52fd12f31907bcf,,,,,,,,,,,,,,,,,,,,,,,l,1,"[""0.029"",""0.407"",""0.267"",""0.822""]","[1,1,0,1]",0,61,61,61,1,1,0,,,0,FALSE,0.6213,,,,,,,,,,,,,,,,,,,,,,,,,,,,,,
,616934a454cf1f0e21721134,627c6f1cc925d19e815a9021,2022-05-12_04h25.15.596,classification_task,2021.2.3,Win32,59.89817311,627c6715c52fd12f31907bcf,,,,,,,,,,,,,,,,,,,,,,,l,1,"[""0.103"",""0.256"",""0.672"",""0.768""]","[1,0,1,1]",0,62,62,62,1,1,1,,,0,FALSE,2.0431,,,,,,,,,,,,,,,,,,,,,,,,,,,,,,
,616934a454cf1f0e21721134,627c6f1cc925d19e815a9021,2022-05-12_04h25.15.596,classification_task,2021.2.3,Win32,59.89817311,627c6715c52fd12f31907bcf,,,,,,,,,,,,,,,,,,,,,,,a,1,"[""0.708"",""0.511"",""0.881"",""0.957""]","[0,1,1,1]",0,63,63,63,1,0,0,,,0,FALSE,1.4823,,,,,,,,,,,,,,,,,,,,,,,,,,,,,,
,616934a454cf1f0e21721134,627c6f1cc925d19e815a9021,2022-05-12_04h25.15.596,classification_task,2021.2.3,Win32,59.89817311,627c6715c52fd12f31907bcf,,,,,,,,,,,,,,,,,,,,,,,,,,,,,,,,,,,,,,,0, ,,0,4.311067019,222.3065,0,2,2,2,1,2,3,,,,,,,,,,,,,,,,,
,616934a454cf1f0e21721134,627c6f1cc925d19e815a9021,2022-05-12_04h25.15.596,classification_task,2021.2.3,Win32,59.89817311,627c6715c52fd12f31907bcf,,,,,,,,,,,,,,,,,,,,,,,,,,,,,,,,,,,,,,,1,  ,,0,6.687885802,230.5447,0,2,2,2,1,2,3,,,,,,,,,,,,,,,,,
,616934a454cf1f0e21721134,627c6f1cc925d19e815a9021,2022-05-12_04h25.15.596,classification_task,2021.2.3,Win32,59.89817311,627c6715c52fd12f31907bcf,,,,,,,,,,,,,,,,,,,,,,,,,,,,,,,,,,,,,,,2,  ,,0,2.967647707,241.3095,0,2,2,2,1,2,3,,,,,,,,,,,,,,,,,
,616934a454cf1f0e21721134,627c6f1cc925d19e815a9021,2022-05-12_04h25.15.596,classification_task,2021.2.3,Win32,59.89817311,627c6715c52fd12f31907bcf,,,,,,,,,,,,,,,,,,,,,,,,,,,,,,,,,,,,,,,,,,,,,0,2,2,2,1,,3,,,,,,,,,,,,,,,,,
,616934a454cf1f0e21721134,627c6f1cc925d19e815a9021,2022-05-12_04h25.15.596,classification_task,2021.2.3,Win32,59.89817311,627c6715c52fd12f31907bcf,,,,,,,,,,,,,,,,,,,,,,,,,,,,,,,,,,,,,,,,,,,,,,,,,,,,,I believe the aid is a competent performer,,0.7,0,5,1265.1329,0,0,0,0,1,0,,,,
,616934a454cf1f0e21721134,627c6f1cc925d19e815a9021,2022-05-12_04h25.15.596,classification_task,2021.2.3,Win32,59.89817311,627c6715c52fd12f31907bcf,,,,,,,,,,,,,,,,,,,,,,,,,,,,,,,,,,,,,,,,,,,,,,,,,,,,,I trust the aid,,0.7,0,5,1267.709,0,0,0,0,1,0,,,,
,616934a454cf1f0e21721134,627c6f1cc925d19e815a9021,2022-05-12_04h25.15.596,classification_task,2021.2.3,Win32,59.89817311,627c6715c52fd12f31907bcf,,,,,,,,,,,,,,,,,,,,,,,,,,,,,,,,,,,,,,,,,,,,,,,,,,,,,I have confidence in the advice given by the aid,,0.7,0,5,1271.6686,0,0,0,0,1,0,,,,
,616934a454cf1f0e21721134,627c6f1cc925d19e815a9021,2022-05-12_04h25.15.596,classification_task,2021.2.3,Win32,59.89817311,627c6715c52fd12f31907bcf,,,,,,,,,,,,,,,,,,,,,,,,,,,,,,,,,,,,,,,,,,,,,,,,,,,,,I can depend on the aid,,0.7,0,5,1274.4028,0,0,0,0,1,0,,,,
,616934a454cf1f0e21721134,627c6f1cc925d19e815a9021,2022-05-12_04h25.15.596,classification_task,2021.2.3,Win32,59.89817311,627c6715c52fd12f31907bcf,,,,,,,,,,,,,,,,,,,,,,,,,,,,,,,,,,,,,,,,,,,,,,,,,,,,,I can rely on the aid to behave in consistent ways,,0.7,0,5,1276.8049,0,0,0,0,1,0,,,,
,616934a454cf1f0e21721134,627c6f1cc925d19e815a9021,2022-05-12_04h25.15.596,classification_task,2021.2.3,Win32,59.89817311,627c6715c52fd12f31907bcf,,,,,,,,,,,,,,,,,,,,,,,,,,,,,,,,,,,,,,,,,,,,,,,,,,,,,I can rely on the aid to do its best every time I take its advice,,0.7,0,5,1279.0454,0,0,0,0,1,0,,,,
,616934a454cf1f0e21721134,627c6f1cc925d19e815a9021,2022-05-12_04h25.15.596,classification_task,2021.2.3,Win32,59.89817311,627c6715c52fd12f31907bcf,,,,,,,,,,,,,,,,,,,,,,,,,,,,,,,,,,,,,,,,,,,,,,,,,,,,,"On trials you completed with assistance from the aid, how frequently did you think the aid was correct?",,0.7,0,70,,0,0,0,0,1,0,,,,
,616934a454cf1f0e21721134,627c6f1cc925d19e815a9021,2022-05-12_04h25.15.596,classification_task,2021.2.3,Win32,59.89817311,627c6715c52fd12f31907bcf,,,,,,,,,,,,,,,,,,,,,,,,,,,,,,,,,,,,,,,,,,,,,,,,,,,,,"On trials you completed without the aid, how frequently did you think you were correct?",,0.7,0,60,,0,0,0,0,1,0,,,,
,616934a454cf1f0e21721134,627c6f1cc925d19e815a9021,2022-05-12_04h25.15.596,classification_task,2021.2.3,Win32,59.89817311,627c6715c52fd12f31907bcf,,,,,,,,,,,,,,,,,,,,,,,,,,,,,,,,,,,,,,,,,,,,,,,,,,,,,,,,,,,0,0,0,0,1,,,,,
,616934a454cf1f0e21721134,627c6f1cc925d19e815a9021,2022-05-12_04h25.15.596,classification_task,2021.2.3,Win32,59.89817311,627c6715c52fd12f31907bcf,,,,,,,,,,,,,,,,,,,,,,,,,,,,,,,,,,,,,,,,,,,,,,,,,,,,,,,,,,,,,,,,,,1449.3884,,
,616934a454cf1f0e21721134,627c6f1cc925d19e815a9021,2022-05-12_04h25.15.596,classification_task,2021.2.3,Win32,59.89817311,627c6715c52fd12f31907bcf,,,,,,,,,,,,,,,,,,,,,,,,,,,,,,,,,,,,,,,,,,,,,,,,,,,,,,,,,,,,,,,,,,,"Mozilla/5.0 (Windows NT 10.0; Win64; x64) AppleWebKit/537.36 (KHTML, like Gecko) Chrome/101.0.4951.54 Safari/537.36",
,616934a454cf1f0e21721134,627c6f1cc925d19e815a9021,2022-05-12_04h25.15.596,classification_task,2021.2.3,Win32,59.89817311,627c6715c52fd12f31907bcf,,,,,,,,,,,,,,,,,,,,,,,,,,,,,,,,,,,,,,,,,,,,,,,,,,,,,,,,,,,,,,,,,,,,HIGHLIGHT
