usingWebGL,participant,session,date,expName,psychopyVersion,OS,frameRate,study_id,signatures_friend,signatures_foe,band_ranges_top,band_ranges_bottom,formitemText,formtype,formundefined,formitemWidth,formindex,formresponse,formrt,key_resp_2.keys,key_resp_2.rt,tute_resp.keys,tute_resp.rt,tutorial.thisRepN,tutorial.thisTrialN,tutorial.thisN,tutorial.thisIndex,tutorial.ran,key_resp_4.keys,key_resp_4.rt,key_resp.keys,key_resp.corr,key_resp.rt,lines_presented,is_signal_presented,trials.thisRepN,trials.thisTrialN,trials.thisN,trials.thisIndex,trials.ran,vessel,active_band,lines,is_signal,supported_pos,catch_trial,debrief_formindex,debrief_formitemText,debrief_formtype,debrief_formitemWidth,debrief_formresponse,debrief_formrt,phases.thisRepN,phases.thisTrialN,phases.thisN,phases.thisIndex,phases.ran,phases.order,phase,key_resp_3.keys,trustitemText,trusttype,trustitemWidth,trustindex,trustresponse,trustrt,support_status.thisRepN,support_status.thisTrialN,support_status.thisN,support_status.thisIndex,support_status.ran,support_status.order,key_resp_5.keys,key_resp_5.rt,globalClockTime,userAgent,manualCondition
TRUE,616c2e23cdae23ccf15ae162,627c6f4f4c8ad494b268f9d8,2022-05-12_04h26.05.370,classification_task,2021.2.3,Win32,48.56726566,627c6715c52fd12f31907bd0,,,,,,,,,,,,,,,,,,,,,,,,,,,,,,,,,,,,,,,,,,,,,,,,,,,,,,,,,,,,,,,,,,,,,
,616c2e23cdae23ccf15ae162,627c6f4f4c8ad494b268f9d8,2022-05-12_04h26.05.370,classification_task,2021.2.3,Win32,48.56726566,627c6715c52fd12f31907bd0,"[[""0.159"",""0.564"",""0.603"",""0.975""],[""0.199"",""0.478"",""0.857"",""0.927""]]","[[""0.025"",""0.331"",""0.516"",""0.801""],[""0.114"",""0.242"",""0.646"",""0.755""]]","[1,10]","[100,1000]",Video game experience,,,0.7,0,,,,,,,,,,,,,,,,,,,,,,,,,,,,,,,,,,,,,,,,,,,,,,,,,,,,,,,,,,,,
,616c2e23cdae23ccf15ae162,627c6f4f4c8ad494b268f9d8,2022-05-12_04h26.05.370,classification_task,2021.2.3,Win32,48.56726566,627c6715c52fd12f31907bd0,,,,,Approximately how many hours did you spend playing video games in the last week?,,,0.7,0,0,,,,,,,,,,,,,,,,,,,,,,,,,,,,,,,,,,,,,,,,,,,,,,,,,,,,,,,,,,,
,616c2e23cdae23ccf15ae162,627c6f4f4c8ad494b268f9d8,2022-05-12_04h26.05.370,classification_task,2021.2.3,Win32,48.56726566,627c6715c52fd12f31907bd0,,,,,"Which game did you play the most this year? (Enter ""None"" if you didn't play any)",,,0.7,0,Sudoku,,,,,,,,,,,,,,,,,,,,,,,,,,,,,,,,,,,,,,,,,,,,,,,,,,,,,,,,,,,
,616c2e23cdae23ccf15ae162,627c6f4f4c8ad494b268f9d8,2022-05-12_04h26.05.370,classification_task,2021.2.3,Win32,48.56726566,627c6715c52fd12f31907bd0,,,,,Visual perception,,,0.7,0,,,,,,,,,,,,,,,,,,,,,,,,,,,,,,,,,,,,,,,,,,,,,,,,,,,,,,,,,,,,
,616c2e23cdae23ccf15ae162,627c6f4f4c8ad494b268f9d8,2022-05-12_04h26.05.370,classification_task,2021.2.3,Win32,48.56726566,627c6715c52fd12f31907bd0,,,,,Do you have any form of color blindness?,,,0.7,0,No,94.8556,,,,,,,,,,,,,,,,,,,,,,,,,,,,,,,,,,,,,,,,,,,,,,,,,,,,,,,,,,
,616c2e23cdae23ccf15ae162,627c6f4f4c8ad494b268f9d8,2022-05-12_04h26.05.370,classification_task,2021.2.3,Win32,48.56726566,627c6715c52fd12f31907bd0,,,,,Do you use software to change the colour temperature of your screen (e.g. f.lux)?,,,0.7,0,No,103.3418,,,,,,,,,,,,,,,,,,,,,,,,,,,,,,,,,,,,,,,,,,,,,,,,,,,,,,,,,,
,616c2e23cdae23ccf15ae162,627c6f4f4c8ad494b268f9d8,2022-05-12_04h26.05.370,classification_task,2021.2.3,Win32,48.56726566,627c6715c52fd12f31907bd0,,,,,,,,,,,,space,158.1254,space,22.3896,0,0,0,0,1,,,,,,,,,,,,,,,,,,,,,,,,,,,,,,,,,,,,,,,,,,,,,,,,,
,616c2e23cdae23ccf15ae162,627c6f4f4c8ad494b268f9d8,2022-05-12_04h26.05.370,classification_task,2021.2.3,Win32,48.56726566,627c6715c52fd12f31907bd0,,,,,,,,,,,,,,space,13.8051,1,0,1,0,1,,,,,,,,,,,,,,,,,,,,,,,,,,,,,,,,,,,,,,,,,,,,,,,,,
,616c2e23cdae23ccf15ae162,627c6f4f4c8ad494b268f9d8,2022-05-12_04h26.05.370,classification_task,2021.2.3,Win32,48.56726566,627c6715c52fd12f31907bd0,,,,,,,,,,,,,,space,70.4123,2,0,2,0,1,,,,,,,,,,,,,,,,,,,,,,,,,,,,,,,,,,,,,,,,,,,,,,,,,
,616c2e23cdae23ccf15ae162,627c6f4f4c8ad494b268f9d8,2022-05-12_04h26.05.370,classification_task,2021.2.3,Win32,48.56726566,627c6715c52fd12f31907bd0,,,,,,,,,,,,,,space,9.8738,3,0,3,0,1,,,,,,,,,,,,,,,,,,,,,,,,,,,,,,,,,,,,,,,,,,,,,,,,,
,616c2e23cdae23ccf15ae162,627c6f4f4c8ad494b268f9d8,2022-05-12_04h26.05.370,classification_task,2021.2.3,Win32,48.56726566,627c6715c52fd12f31907bd0,,,,,,,,,,,,,,space,28.6628,4,0,4,0,1,,,,,,,,,,,,,,,,,,,,,,,,,,,,,,,,,,,,,,,,,,,,,,,,,
,616c2e23cdae23ccf15ae162,627c6f4f4c8ad494b268f9d8,2022-05-12_04h26.05.370,classification_task,2021.2.3,Win32,48.56726566,627c6715c52fd12f31907bd0,,,,,,,,,,,,,,,,,,,,,space,28.5146,l,1,8.7671,"[""0.025"",""0.331"",""0.516"",""0.075""]","[1,1,1,0]",0,0,0,0,1,1,0,,,0,FALSE,,,,,,,,,,,,,,,,,,,,,,,,,,,,,,,
,616c2e23cdae23ccf15ae162,627c6f4f4c8ad494b268f9d8,2022-05-12_04h26.05.370,classification_task,2021.2.3,Win32,48.56726566,627c6715c52fd12f31907bd0,,,,,,,,,,,,,,,,,,,,,,,l,1,7.3735,"[""0.114"",""0.242"",""0.646"",""0.075""]","[1,1,1,0]",0,1,1,1,1,1,1,,,0,FALSE,,,,,,,,,,,,,,,,,,,,,,,,,,,,,,,
,616c2e23cdae23ccf15ae162,627c6f4f4c8ad494b268f9d8,2022-05-12_04h26.05.370,classification_task,2021.2.3,Win32,48.56726566,627c6715c52fd12f31907bd0,,,,,,,,,,,,,,,,,,,,,,,l,1,5.1667,"[""0.114"",""0.424"",""0.646"",""0.755""]","[1,0,1,1]",0,2,2,2,1,1,1,,,0,FALSE,,,,,,,,,,,,,,,,,,,,,,,,,,,,,,,
,616c2e23cdae23ccf15ae162,627c6f4f4c8ad494b268f9d8,2022-05-12_04h26.05.370,classification_task,2021.2.3,Win32,48.56726566,627c6715c52fd12f31907bd0,,,,,,,,,,,,,,,,,,,,,,,l,1,3.5413,"[""0.025"",""0.331"",""0.288"",""0.801""]","[1,1,0,1]",0,3,3,3,1,1,0,,,0,FALSE,,,,,,,,,,,,,,,,,,,,,,,,,,,,,,,
,616c2e23cdae23ccf15ae162,627c6f4f4c8ad494b268f9d8,2022-05-12_04h26.05.370,classification_task,2021.2.3,Win32,48.56726566,627c6715c52fd12f31907bd0,,,,,,,,,,,,,,,,,,,,,,,l,1,3.3138,"[""0.025"",""0.429"",""0.516"",""0.801""]","[1,0,1,1]",0,4,4,4,1,1,0,,,0,FALSE,,,,,,,,,,,,,,,,,,,,,,,,,,,,,,,
,616c2e23cdae23ccf15ae162,627c6f4f4c8ad494b268f9d8,2022-05-12_04h26.05.370,classification_task,2021.2.3,Win32,48.56726566,627c6715c52fd12f31907bd0,,,,,,,,,,,,,,,,,,,,,,,l,0,2.6479,"[""0.401"",""0.564"",""0.603"",""0.975""]","[0,1,1,1]",0,5,5,5,1,0,0,,,0,FALSE,,,,,,,,,,,,,,,,,,,,,,,,,,,,,,,
,616c2e23cdae23ccf15ae162,627c6f4f4c8ad494b268f9d8,2022-05-12_04h26.05.370,classification_task,2021.2.3,Win32,48.56726566,627c6715c52fd12f31907bd0,,,,,,,,,,,,,,,,,,,,,,,,0,,"[""0.288"",""0.242"",""0.646"",""0.755""]","[0,1,1,1]",0,6,6,6,1,1,1,,,0,FALSE,,,,,,,,,,,,,,,,,,,,,,,,,,,,,,,
,616c2e23cdae23ccf15ae162,627c6f4f4c8ad494b268f9d8,2022-05-12_04h26.05.370,classification_task,2021.2.3,Win32,48.56726566,627c6715c52fd12f31907bd0,,,,,,,,,,,,,,,,,,,,,,,a,1,3.8124,"[""0.199"",""0.478"",""0.429"",""0.927""]","[1,1,0,1]",0,7,7,7,1,0,1,,,0,FALSE,,,,,,,,,,,,,,,,,,,,,,,,,,,,,,,
,616c2e23cdae23ccf15ae162,627c6f4f4c8ad494b268f9d8,2022-05-12_04h26.05.370,classification_task,2021.2.3,Win32,48.56726566,627c6715c52fd12f31907bd0,,,,,,,,,,,,,,,,,,,,,,,a,1,4.7081,"[""0.372"",""0.478"",""0.857"",""0.927""]","[0,1,1,1]",0,8,8,8,1,0,1,,,0,FALSE,,,,,,,,,,,,,,,,,,,,,,,,,,,,,,,
,616c2e23cdae23ccf15ae162,627c6f4f4c8ad494b268f9d8,2022-05-12_04h26.05.370,classification_task,2021.2.3,Win32,48.56726566,627c6715c52fd12f31907bd0,,,,,,,,,,,,,,,,,,,,,,,a,1,4.4161,"[""0.199"",""0.682"",""0.857"",""0.927""]","[1,0,1,1]",0,9,9,9,1,0,1,,,0,FALSE,,,,,,,,,,,,,,,,,,,,,,,,,,,,,,,
,616c2e23cdae23ccf15ae162,627c6f4f4c8ad494b268f9d8,2022-05-12_04h26.05.370,classification_task,2021.2.3,Win32,48.56726566,627c6715c52fd12f31907bd0,,,,,,,,,,,,,,,,,,,,,,,a,1,6.4376,"[""0.159"",""0.381"",""0.603"",""0.975""]","[1,0,1,1]",0,10,10,10,1,0,0,,,0,FALSE,,,,,,,,,,,,,,,,,,,,,,,,,,,,,,,
,616c2e23cdae23ccf15ae162,627c6f4f4c8ad494b268f9d8,2022-05-12_04h26.05.370,classification_task,2021.2.3,Win32,48.56726566,627c6715c52fd12f31907bd0,,,,,,,,,,,,,,,,,,,,,,,l,0,3.7717,"[""0.159"",""0.564"",""0.381"",""0.975""]","[1,1,0,1]",0,11,11,11,1,0,0,,,0,FALSE,,,,,,,,,,,,,,,,,,,,,,,,,,,,,,,
,616c2e23cdae23ccf15ae162,627c6f4f4c8ad494b268f9d8,2022-05-12_04h26.05.370,classification_task,2021.2.3,Win32,48.56726566,627c6715c52fd12f31907bd0,,,,,,,,,,,,,,,,,,,,,,,a,1,5.9155,"[""0.199"",""0.478"",""0.857"",""0.075""]","[1,1,1,0]",0,12,12,12,1,0,1,,,0,FALSE,,,,,,,,,,,,,,,,,,,,,,,,,,,,,,,
,616c2e23cdae23ccf15ae162,627c6f4f4c8ad494b268f9d8,2022-05-12_04h26.05.370,classification_task,2021.2.3,Win32,48.56726566,627c6715c52fd12f31907bd0,,,,,,,,,,,,,,,,,,,,,,,a,0,5.3946,"[""0.074"",""0.331"",""0.516"",""0.801""]","[0,1,1,1]",0,13,13,13,1,1,0,,,0,FALSE,,,,,,,,,,,,,,,,,,,,,,,,,,,,,,,
,616c2e23cdae23ccf15ae162,627c6f4f4c8ad494b268f9d8,2022-05-12_04h26.05.370,classification_task,2021.2.3,Win32,48.56726566,627c6715c52fd12f31907bd0,,,,,,,,,,,,,,,,,,,,,,,a,1,4.3339,"[""0.159"",""0.564"",""0.603"",""0.075""]","[1,1,1,0]",0,14,14,14,1,0,0,,,0,FALSE,,,,,,,,,,,,,,,,,,,,,,,,,,,,,,,
,616c2e23cdae23ccf15ae162,627c6f4f4c8ad494b268f9d8,2022-05-12_04h26.05.370,classification_task,2021.2.3,Win32,48.56726566,627c6715c52fd12f31907bd0,,,,,,,,,,,,,,,,,,,,,,,l,1,5.2907,"[""0.114"",""0.242"",""0.075"",""0.755""]","[1,1,0,1]",0,15,15,15,1,1,1,,,0,FALSE,,,,,,,,,,,,,,,,,,,,,,,,,,,,,,,
,616c2e23cdae23ccf15ae162,627c6f4f4c8ad494b268f9d8,2022-05-12_04h26.05.370,classification_task,2021.2.3,Win32,48.56726566,627c6715c52fd12f31907bd0,,,,,,,,,,,,,,,,,,,,,,,l,1,5.9785,"[""0.114"",""0.242"",""0.682"",""0.755""]","[1,1,0,1]",0,16,16,16,1,1,1,,,0,FALSE,,,,,,,,,,,,,,,,,,,,,,,,,,,,,,,
,616c2e23cdae23ccf15ae162,627c6f4f4c8ad494b268f9d8,2022-05-12_04h26.05.370,classification_task,2021.2.3,Win32,48.56726566,627c6715c52fd12f31907bd0,,,,,,,,,,,,,,,,,,,,,,,l,1,4.0219,"[""0.025"",""0.331"",""0.401"",""0.801""]","[1,1,0,1]",0,17,17,17,1,1,0,,,0,FALSE,,,,,,,,,,,,,,,,,,,,,,,,,,,,,,,
,616c2e23cdae23ccf15ae162,627c6f4f4c8ad494b268f9d8,2022-05-12_04h26.05.370,classification_task,2021.2.3,Win32,48.56726566,627c6715c52fd12f31907bd0,,,,,,,,,,,,,,,,,,,,,,,a,1,4.3558,"[""0.159"",""0.564"",""0.603"",""0.424""]","[1,1,1,0]",0,18,18,18,1,0,0,,,0,FALSE,,,,,,,,,,,,,,,,,,,,,,,,,,,,,,,
,616c2e23cdae23ccf15ae162,627c6f4f4c8ad494b268f9d8,2022-05-12_04h26.05.370,classification_task,2021.2.3,Win32,48.56726566,627c6715c52fd12f31907bd0,,,,,,,,,,,,,,,,,,,,,,,l,1,3.8745,"[""0.401"",""0.331"",""0.516"",""0.801""]","[0,1,1,1]",0,19,19,19,1,1,0,,,0,FALSE,,,,,,,,,,,,,,,,,,,,,,,,,,,,,,,
,616c2e23cdae23ccf15ae162,627c6f4f4c8ad494b268f9d8,2022-05-12_04h26.05.370,classification_task,2021.2.3,Win32,48.56726566,627c6715c52fd12f31907bd0,,,,,,,,,,,,,,,,,,,,,,,l,1,5.6875,"[""0.025"",""0.680"",""0.516"",""0.801""]","[1,0,1,1]",0,20,20,20,1,1,0,,,0,FALSE,,,,,,,,,,,,,,,,,,,,,,,,,,,,,,,
,616c2e23cdae23ccf15ae162,627c6f4f4c8ad494b268f9d8,2022-05-12_04h26.05.370,classification_task,2021.2.3,Win32,48.56726566,627c6715c52fd12f31907bd0,,,,,,,,,,,,,,,,,,,,,,,a,1,5.3306,"[""0.199"",""0.478"",""0.075"",""0.927""]","[1,1,0,1]",0,21,21,21,1,0,1,,,0,FALSE,,,,,,,,,,,,,,,,,,,,,,,,,,,,,,,
,616c2e23cdae23ccf15ae162,627c6f4f4c8ad494b268f9d8,2022-05-12_04h26.05.370,classification_task,2021.2.3,Win32,48.56726566,627c6715c52fd12f31907bd0,,,,,,,,,,,,,,,,,,,,,,,l,0,5.1665,"[""0.402"",""0.478"",""0.857"",""0.927""]","[0,1,1,1]",0,22,22,22,1,0,1,,,0,FALSE,,,,,,,,,,,,,,,,,,,,,,,,,,,,,,,
,616c2e23cdae23ccf15ae162,627c6f4f4c8ad494b268f9d8,2022-05-12_04h26.05.370,classification_task,2021.2.3,Win32,48.56726566,627c6715c52fd12f31907bd0,,,,,,,,,,,,,,,,,,,,,,,l,0,3.2075,"[""0.159"",""0.424"",""0.603"",""0.975""]","[1,0,1,1]",0,23,23,23,1,0,0,,,0,FALSE,,,,,,,,,,,,,,,,,,,,,,,,,,,,,,,
,616c2e23cdae23ccf15ae162,627c6f4f4c8ad494b268f9d8,2022-05-12_04h26.05.370,classification_task,2021.2.3,Win32,48.56726566,627c6715c52fd12f31907bd0,,,,,,,,,,,,,,,,,,,,,,,l,1,5.1856,"[""0.114"",""0.242"",""0.646"",""0.381""]","[1,1,1,0]",0,24,24,24,1,1,1,,,0,FALSE,,,,,,,,,,,,,,,,,,,,,,,,,,,,,,,
,616c2e23cdae23ccf15ae162,627c6f4f4c8ad494b268f9d8,2022-05-12_04h26.05.370,classification_task,2021.2.3,Win32,48.56726566,627c6715c52fd12f31907bd0,,,,,,,,,,,,,,,,,,,,,,,l,1,6.7919,"[""0.114"",""0.401"",""0.646"",""0.755""]","[1,0,1,1]",0,25,25,25,1,1,1,,,0,FALSE,,,,,,,,,,,,,,,,,,,,,,,,,,,,,,,
,616c2e23cdae23ccf15ae162,627c6f4f4c8ad494b268f9d8,2022-05-12_04h26.05.370,classification_task,2021.2.3,Win32,48.56726566,627c6715c52fd12f31907bd0,,,,,,,,,,,,,,,,,,,,,,,a,1,8,"[""0.199"",""0.478"",""0.857"",""0.705""]","[1,1,1,0]",0,26,26,26,1,0,1,,,0,FALSE,,,,,,,,,,,,,,,,,,,,,,,,,,,,,,,
,616c2e23cdae23ccf15ae162,627c6f4f4c8ad494b268f9d8,2022-05-12_04h26.05.370,classification_task,2021.2.3,Win32,48.56726566,627c6715c52fd12f31907bd0,,,,,,,,,,,,,,,,,,,,,,,a,1,3.8325,"[""0.288"",""0.564"",""0.603"",""0.975""]","[0,1,1,1]",0,27,27,27,1,0,0,,,0,FALSE,,,,,,,,,,,,,,,,,,,,,,,,,,,,,,,
,616c2e23cdae23ccf15ae162,627c6f4f4c8ad494b268f9d8,2022-05-12_04h26.05.370,classification_task,2021.2.3,Win32,48.56726566,627c6715c52fd12f31907bd0,,,,,,,,,,,,,,,,,,,,,,,a,1,5.9785,"[""0.199"",""0.682"",""0.857"",""0.927""]","[1,0,1,1]",0,28,28,28,1,0,1,,,0,FALSE,,,,,,,,,,,,,,,,,,,,,,,,,,,,,,,
,616c2e23cdae23ccf15ae162,627c6f4f4c8ad494b268f9d8,2022-05-12_04h26.05.370,classification_task,2021.2.3,Win32,48.56726566,627c6715c52fd12f31907bd0,,,,,,,,,,,,,,,,,,,,,,,l,1,6.6418,"[""0.372"",""0.242"",""0.646"",""0.755""]","[0,1,1,1]",0,29,29,29,1,1,1,,,0,FALSE,,,,,,,,,,,,,,,,,,,,,,,,,,,,,,,
,616c2e23cdae23ccf15ae162,627c6f4f4c8ad494b268f9d8,2022-05-12_04h26.05.370,classification_task,2021.2.3,Win32,48.56726566,627c6715c52fd12f31907bd0,,,,,,,,,,,,,,,,,,,,,,,l,1,6.4288,"[""0.025"",""0.331"",""0.516"",""0.424""]","[1,1,1,0]",0,30,30,30,1,1,0,,,0,FALSE,,,,,,,,,,,,,,,,,,,,,,,,,,,,,,,
,616c2e23cdae23ccf15ae162,627c6f4f4c8ad494b268f9d8,2022-05-12_04h26.05.370,classification_task,2021.2.3,Win32,48.56726566,627c6715c52fd12f31907bd0,,,,,,,,,,,,,,,,,,,,,,,a,1,5.8544,"[""0.159"",""0.564"",""0.705"",""0.975""]","[1,1,0,1]",0,31,31,31,1,0,0,,,0,FALSE,,,,,,,,,,,,,,,,,,,,,,,,,,,,,,,
,616c2e23cdae23ccf15ae162,627c6f4f4c8ad494b268f9d8,2022-05-12_04h26.05.370,classification_task,2021.2.3,Win32,48.56726566,627c6715c52fd12f31907bd0,,,,,,,,,,,,,,,,,,,,,,,a,1,7.6646,"[""0.199"",""0.478"",""0.075"",""0.927""]","[1,1,0,1]",0,32,32,32,1,0,1,,,0,FALSE,,,,,,,,,,,,,,,,,,,,,,,,,,,,,,,
,616c2e23cdae23ccf15ae162,627c6f4f4c8ad494b268f9d8,2022-05-12_04h26.05.370,classification_task,2021.2.3,Win32,48.56726566,627c6715c52fd12f31907bd0,,,,,,,,,,,,,,,,,,,,,,,l,0,5.1433,"[""0.159"",""0.564"",""0.603"",""0.372""]","[1,1,1,0]",0,33,33,33,1,0,0,,,0,FALSE,,,,,,,,,,,,,,,,,,,,,,,,,,,,,,,
,616c2e23cdae23ccf15ae162,627c6f4f4c8ad494b268f9d8,2022-05-12_04h26.05.370,classification_task,2021.2.3,Win32,48.56726566,627c6715c52fd12f31907bd0,,,,,,,,,,,,,,,,,,,,,,,a,0,3.5399,"[""0.025"",""0.682"",""0.516"",""0.801""]","[1,0,1,1]",0,34,34,34,1,1,0,,,0,FALSE,,,,,,,,,,,,,,,,,,,,,,,,,,,,,,,
,616c2e23cdae23ccf15ae162,627c6f4f4c8ad494b268f9d8,2022-05-12_04h26.05.370,classification_task,2021.2.3,Win32,48.56726566,627c6715c52fd12f31907bd0,,,,,,,,,,,,,,,,,,,,,,,a,0,4.1679,"[""0.114"",""0.242"",""0.646"",""0.424""]","[1,1,1,0]",0,35,35,35,1,1,1,,,0,FALSE,,,,,,,,,,,,,,,,,,,,,,,,,,,,,,,
,616c2e23cdae23ccf15ae162,627c6f4f4c8ad494b268f9d8,2022-05-12_04h26.05.370,classification_task,2021.2.3,Win32,48.56726566,627c6715c52fd12f31907bd0,,,,,,,,,,,,,,,,,,,,,,,l,0,2.3497,"[""0.199"",""0.478"",""0.857"",""0.077""]","[1,1,1,0]",0,36,36,36,1,0,1,,,0,FALSE,,,,,,,,,,,,,,,,,,,,,,,,,,,,,,,
,616c2e23cdae23ccf15ae162,627c6f4f4c8ad494b268f9d8,2022-05-12_04h26.05.370,classification_task,2021.2.3,Win32,48.56726566,627c6715c52fd12f31907bd0,,,,,,,,,,,,,,,,,,,,,,,a,1,5.6671,"[""0.402"",""0.478"",""0.857"",""0.927""]","[0,1,1,1]",0,37,37,37,1,0,1,,,0,FALSE,,,,,,,,,,,,,,,,,,,,,,,,,,,,,,,
,616c2e23cdae23ccf15ae162,627c6f4f4c8ad494b268f9d8,2022-05-12_04h26.05.370,classification_task,2021.2.3,Win32,48.56726566,627c6715c52fd12f31907bd0,,,,,,,,,,,,,,,,,,,,,,,a,0,4.1041,"[""0.372"",""0.331"",""0.516"",""0.801""]","[0,1,1,1]",0,38,38,38,1,1,0,,,0,FALSE,,,,,,,,,,,,,,,,,,,,,,,,,,,,,,,
,616c2e23cdae23ccf15ae162,627c6f4f4c8ad494b268f9d8,2022-05-12_04h26.05.370,classification_task,2021.2.3,Win32,48.56726566,627c6715c52fd12f31907bd0,,,,,,,,,,,,,,,,,,,,,,,a,0,3.8321,"[""0.114"",""0.242"",""0.075"",""0.755""]","[1,1,0,1]",0,39,39,39,1,1,1,,,0,FALSE,,,,,,,,,,,,,,,,,,,,,,,,,,,,,,,
,616c2e23cdae23ccf15ae162,627c6f4f4c8ad494b268f9d8,2022-05-12_04h26.05.370,classification_task,2021.2.3,Win32,48.56726566,627c6715c52fd12f31907bd0,,,,,,,,,,,,,,,,,,,,,,,a,1,2.3956,"[""0.075"",""0.564"",""0.603"",""0.975""]","[0,1,1,1]",0,40,40,40,1,0,0,,,0,FALSE,,,,,,,,,,,,,,,,,,,,,,,,,,,,,,,
,616c2e23cdae23ccf15ae162,627c6f4f4c8ad494b268f9d8,2022-05-12_04h26.05.370,classification_task,2021.2.3,Win32,48.56726566,627c6715c52fd12f31907bd0,,,,,,,,,,,,,,,,,,,,,,,a,0,3.186,"[""0.025"",""0.331"",""0.516"",""0.077""]","[1,1,1,0]",0,41,41,41,1,1,0,,,0,FALSE,,,,,,,,,,,,,,,,,,,,,,,,,,,,,,,
,616c2e23cdae23ccf15ae162,627c6f4f4c8ad494b268f9d8,2022-05-12_04h26.05.370,classification_task,2021.2.3,Win32,48.56726566,627c6715c52fd12f31907bd0,,,,,,,,,,,,,,,,,,,,,,,a,0,3.0222,"[""0.114"",""0.381"",""0.646"",""0.755""]","[1,0,1,1]",0,42,42,42,1,1,1,,,0,FALSE,,,,,,,,,,,,,,,,,,,,,,,,,,,,,,,
,616c2e23cdae23ccf15ae162,627c6f4f4c8ad494b268f9d8,2022-05-12_04h26.05.370,classification_task,2021.2.3,Win32,48.56726566,627c6715c52fd12f31907bd0,,,,,,,,,,,,,,,,,,,,,,,a,1,3.5255,"[""0.199"",""0.402"",""0.857"",""0.927""]","[1,0,1,1]",0,43,43,43,1,0,1,,,0,FALSE,,,,,,,,,,,,,,,,,,,,,,,,,,,,,,,
,616c2e23cdae23ccf15ae162,627c6f4f4c8ad494b268f9d8,2022-05-12_04h26.05.370,classification_task,2021.2.3,Win32,48.56726566,627c6715c52fd12f31907bd0,,,,,,,,,,,,,,,,,,,,,,,a,0,2.8335,"[""0.682"",""0.242"",""0.646"",""0.755""]","[0,1,1,1]",0,44,44,44,1,1,1,,,0,FALSE,,,,,,,,,,,,,,,,,,,,,,,,,,,,,,,
,616c2e23cdae23ccf15ae162,627c6f4f4c8ad494b268f9d8,2022-05-12_04h26.05.370,classification_task,2021.2.3,Win32,48.56726566,627c6715c52fd12f31907bd0,,,,,,,,,,,,,,,,,,,,,,,a,1,3.1387,"[""0.159"",""0.682"",""0.603"",""0.975""]","[1,0,1,1]",0,45,45,45,1,0,0,,,0,FALSE,,,,,,,,,,,,,,,,,,,,,,,,,,,,,,,
,616c2e23cdae23ccf15ae162,627c6f4f4c8ad494b268f9d8,2022-05-12_04h26.05.370,classification_task,2021.2.3,Win32,48.56726566,627c6715c52fd12f31907bd0,,,,,,,,,,,,,,,,,,,,,,,l,1,2.1779,"[""0.025"",""0.331"",""0.680"",""0.801""]","[1,1,0,1]",0,46,46,46,1,1,0,,,0,FALSE,,,,,,,,,,,,,,,,,,,,,,,,,,,,,,,
,616c2e23cdae23ccf15ae162,627c6f4f4c8ad494b268f9d8,2022-05-12_04h26.05.370,classification_task,2021.2.3,Win32,48.56726566,627c6715c52fd12f31907bd0,,,,,,,,,,,,,,,,,,,,,,,l,0,3.0519,"[""0.159"",""0.564"",""0.424"",""0.975""]","[1,1,0,1]",0,47,47,47,1,0,0,,,0,FALSE,,,,,,,,,,,,,,,,,,,,,,,,,,,,,,,
,616c2e23cdae23ccf15ae162,627c6f4f4c8ad494b268f9d8,2022-05-12_04h26.05.370,classification_task,2021.2.3,Win32,48.56726566,627c6715c52fd12f31907bd0,,,,,,,,,,,,,,,,,,,,,,,l,1,3.4057,"[""0.682"",""0.331"",""0.516"",""0.801""]","[0,1,1,1]",0,48,48,48,1,1,0,,,0,FALSE,,,,,,,,,,,,,,,,,,,,,,,,,,,,,,,
,616c2e23cdae23ccf15ae162,627c6f4f4c8ad494b268f9d8,2022-05-12_04h26.05.370,classification_task,2021.2.3,Win32,48.56726566,627c6715c52fd12f31907bd0,,,,,,,,,,,,,,,,,,,,,,,a,0,2.7308,"[""0.025"",""0.331"",""0.516"",""0.429""]","[1,1,1,0]",0,49,49,49,1,1,0,,,0,FALSE,,,,,,,,,,,,,,,,,,,,,,,,,,,,,,,
,616c2e23cdae23ccf15ae162,627c6f4f4c8ad494b268f9d8,2022-05-12_04h26.05.370,classification_task,2021.2.3,Win32,48.56726566,627c6715c52fd12f31907bd0,,,,,,,,,,,,,,,,,,,,,,,a,1,3.7331,"[""0.199"",""0.478"",""0.857"",""0.074""]","[1,1,1,0]",0,50,50,50,1,0,1,,,0,FALSE,,,,,,,,,,,,,,,,,,,,,,,,,,,,,,,
,616c2e23cdae23ccf15ae162,627c6f4f4c8ad494b268f9d8,2022-05-12_04h26.05.370,classification_task,2021.2.3,Win32,48.56726566,627c6715c52fd12f31907bd0,,,,,,,,,,,,,,,,,,,,,,,a,1,1.4069,"[""0.402"",""0.564"",""0.603"",""0.975""]","[0,1,1,1]",0,51,51,51,1,0,0,,,0,FALSE,,,,,,,,,,,,,,,,,,,,,,,,,,,,,,,
,616c2e23cdae23ccf15ae162,627c6f4f4c8ad494b268f9d8,2022-05-12_04h26.05.370,classification_task,2021.2.3,Win32,48.56726566,627c6715c52fd12f31907bd0,,,,,,,,,,,,,,,,,,,,,,,l,1,3.5689,"[""0.402"",""0.242"",""0.646"",""0.755""]","[0,1,1,1]",0,52,52,52,1,1,1,,,0,FALSE,,,,,,,,,,,,,,,,,,,,,,,,,,,,,,,
,616c2e23cdae23ccf15ae162,627c6f4f4c8ad494b268f9d8,2022-05-12_04h26.05.370,classification_task,2021.2.3,Win32,48.56726566,627c6715c52fd12f31907bd0,,,,,,,,,,,,,,,,,,,,,,,a,0,2.8863,"[""0.114"",""0.424"",""0.646"",""0.755""]","[1,0,1,1]",0,53,53,53,1,1,1,,,0,FALSE,,,,,,,,,,,,,,,,,,,,,,,,,,,,,,,
,616c2e23cdae23ccf15ae162,627c6f4f4c8ad494b268f9d8,2022-05-12_04h26.05.370,classification_task,2021.2.3,Win32,48.56726566,627c6715c52fd12f31907bd0,,,,,,,,,,,,,,,,,,,,,,,a,1,3.7133,"[""0.199"",""0.424"",""0.857"",""0.927""]","[1,0,1,1]",0,54,54,54,1,0,1,,,0,FALSE,,,,,,,,,,,,,,,,,,,,,,,,,,,,,,,
,616c2e23cdae23ccf15ae162,627c6f4f4c8ad494b268f9d8,2022-05-12_04h26.05.370,classification_task,2021.2.3,Win32,48.56726566,627c6715c52fd12f31907bd0,,,,,,,,,,,,,,,,,,,,,,,l,0,2.1051,"[""0.372"",""0.478"",""0.857"",""0.927""]","[0,1,1,1]",0,55,55,55,1,0,1,,,0,FALSE,,,,,,,,,,,,,,,,,,,,,,,,,,,,,,,
,616c2e23cdae23ccf15ae162,627c6f4f4c8ad494b268f9d8,2022-05-12_04h26.05.370,classification_task,2021.2.3,Win32,48.56726566,627c6715c52fd12f31907bd0,,,,,,,,,,,,,,,,,,,,,,,l,1,1.77,"[""0.114"",""0.242"",""0.424"",""0.755""]","[1,1,0,1]",0,56,56,56,1,1,1,,,0,FALSE,,,,,,,,,,,,,,,,,,,,,,,,,,,,,,,
,616c2e23cdae23ccf15ae162,627c6f4f4c8ad494b268f9d8,2022-05-12_04h26.05.370,classification_task,2021.2.3,Win32,48.56726566,627c6715c52fd12f31907bd0,,,,,,,,,,,,,,,,,,,,,,,l,1,2.7073,"[""0.025"",""0.331"",""0.424"",""0.801""]","[1,1,0,1]",0,57,57,57,1,1,0,,,0,FALSE,,,,,,,,,,,,,,,,,,,,,,,,,,,,,,,
,616c2e23cdae23ccf15ae162,627c6f4f4c8ad494b268f9d8,2022-05-12_04h26.05.370,classification_task,2021.2.3,Win32,48.56726566,627c6715c52fd12f31907bd0,,,,,,,,,,,,,,,,,,,,,,,a,0,2.2839,"[""0.025"",""0.424"",""0.516"",""0.801""]","[1,0,1,1]",0,58,58,58,1,1,0,,,0,FALSE,,,,,,,,,,,,,,,,,,,,,,,,,,,,,,,
,616c2e23cdae23ccf15ae162,627c6f4f4c8ad494b268f9d8,2022-05-12_04h26.05.370,classification_task,2021.2.3,Win32,48.56726566,627c6715c52fd12f31907bd0,,,,,,,,,,,,,,,,,,,,,,,l,1,1.4263,"[""0.114"",""0.242"",""0.646"",""0.381""]","[1,1,1,0]",0,59,59,59,1,1,1,,,0,FALSE,,,,,,,,,,,,,,,,,,,,,,,,,,,,,,,
,616c2e23cdae23ccf15ae162,627c6f4f4c8ad494b268f9d8,2022-05-12_04h26.05.370,classification_task,2021.2.3,Win32,48.56726566,627c6715c52fd12f31907bd0,,,,,,,,,,,,,,,,,,,,,,,a,1,1.4141,"[""0.159"",""0.564"",""0.603"",""0.402""]","[1,1,1,0]",0,60,60,60,1,0,0,,,0,FALSE,,,,,,,,,,,,,,,,,,,,,,,,,,,,,,,
,616c2e23cdae23ccf15ae162,627c6f4f4c8ad494b268f9d8,2022-05-12_04h26.05.370,classification_task,2021.2.3,Win32,48.56726566,627c6715c52fd12f31907bd0,,,,,,,,,,,,,,,,,,,,,,,l,0,1.8665,"[""0.159"",""0.564"",""0.688"",""0.975""]","[1,1,0,1]",0,61,61,61,1,0,0,,,0,FALSE,,,,,,,,,,,,,,,,,,,,,,,,,,,,,,,
,616c2e23cdae23ccf15ae162,627c6f4f4c8ad494b268f9d8,2022-05-12_04h26.05.370,classification_task,2021.2.3,Win32,48.56726566,627c6715c52fd12f31907bd0,,,,,,,,,,,,,,,,,,,,,,,a,1,1.9878,"[""0.159"",""0.688"",""0.603"",""0.975""]","[1,0,1,1]",0,62,62,62,1,0,0,,,0,FALSE,,,,,,,,,,,,,,,,,,,,,,,,,,,,,,,
,616c2e23cdae23ccf15ae162,627c6f4f4c8ad494b268f9d8,2022-05-12_04h26.05.370,classification_task,2021.2.3,Win32,48.56726566,627c6715c52fd12f31907bd0,,,,,,,,,,,,,,,,,,,,,,,a,1,2.1755,"[""0.199"",""0.478"",""0.077"",""0.927""]","[1,1,0,1]",0,63,63,63,1,0,1,,,0,FALSE,,,,,,,,,,,,,,,,,,,,,,,,,,,,,,,
,616c2e23cdae23ccf15ae162,627c6f4f4c8ad494b268f9d8,2022-05-12_04h26.05.370,classification_task,2021.2.3,Win32,48.56726566,627c6715c52fd12f31907bd0,,,,,,,,,,,,,,,,,,,,,,,,,,,,,,,,,,,,,,,0, ,,0,8.257888265,882.5639,0,0,0,0,1,2,1,,,,,,,,,,,,,,,,,,
,616c2e23cdae23ccf15ae162,627c6f4f4c8ad494b268f9d8,2022-05-12_04h26.05.370,classification_task,2021.2.3,Win32,48.56726566,627c6715c52fd12f31907bd0,,,,,,,,,,,,,,,,,,,,,,,,,,,,,,,,,,,,,,,1,  ,,0,8.355870592,884.793,0,0,0,0,1,2,1,,,,,,,,,,,,,,,,,,
,616c2e23cdae23ccf15ae162,627c6f4f4c8ad494b268f9d8,2022-05-12_04h26.05.370,classification_task,2021.2.3,Win32,48.56726566,627c6715c52fd12f31907bd0,,,,,,,,,,,,,,,,,,,,,,,,,,,,,,,,,,,,,,,2,  ,,0,8.159905938,888.1474,0,0,0,0,1,2,1,,,,,,,,,,,,,,,,,,
,616c2e23cdae23ccf15ae162,627c6f4f4c8ad494b268f9d8,2022-05-12_04h26.05.370,classification_task,2021.2.3,Win32,48.56726566,627c6715c52fd12f31907bd0,,,,,,,,,,,,,,,,,,,,,,,,,,,,,,,,,,,,,,,,,,,,,0,0,0,0,1,,1,,,,,,,,,,,,,,,,,,
,616c2e23cdae23ccf15ae162,627c6f4f4c8ad494b268f9d8,2022-05-12_04h26.05.370,classification_task,2021.2.3,Win32,48.56726566,627c6715c52fd12f31907bd0,,,,,,,,,,,,,,,,,,,,,space,39.4141,a,0,3.8918,"[""0.682"",""0.242"",""0.646"",""0.755""]","[0,1,1,1]",0,0,0,0,1,1,1,,,0,FALSE,,,,,,,,,,,,,,,,,,,,,,,,,,,,,,,
,616c2e23cdae23ccf15ae162,627c6f4f4c8ad494b268f9d8,2022-05-12_04h26.05.370,classification_task,2021.2.3,Win32,48.56726566,627c6715c52fd12f31907bd0,,,,,,,,,,,,,,,,,,,,,,,l,1,3.0596,"[""0.025"",""0.331"",""0.516"",""0.381""]","[1,1,1,0]",0,1,1,1,1,1,0,,,0,FALSE,,,,,,,,,,,,,,,,,,,,,,,,,,,,,,,
,616c2e23cdae23ccf15ae162,627c6f4f4c8ad494b268f9d8,2022-05-12_04h26.05.370,classification_task,2021.2.3,Win32,48.56726566,627c6715c52fd12f31907bd0,,,,,,,,,,,,,,,,,,,,,,,a,1,1.163,"[""0.159"",""0.564"",""0.682"",""0.975""]","[1,1,0,1]",0,2,2,2,1,0,0,,,0,FALSE,,,,,,,,,,,,,,,,,,,,,,,,,,,,,,,
,616c2e23cdae23ccf15ae162,627c6f4f4c8ad494b268f9d8,2022-05-12_04h26.05.370,classification_task,2021.2.3,Win32,48.56726566,627c6715c52fd12f31907bd0,,,,,,,,,,,,,,,,,,,,,,,a,1,2.4553,"[""0.199"",""0.402"",""0.857"",""0.927""]","[1,0,1,1]",0,3,3,3,1,0,1,,,0,FALSE,,,,,,,,,,,,,,,,,,,,,,,,,,,,,,,
,616c2e23cdae23ccf15ae162,627c6f4f4c8ad494b268f9d8,2022-05-12_04h26.05.370,classification_task,2021.2.3,Win32,48.56726566,627c6715c52fd12f31907bd0,,,,,,,,,,,,,,,,,,,,,,,a,0,1.4161,"[""0.114"",""0.682"",""0.646"",""0.755""]","[1,0,1,1]",0,4,4,4,1,1,1,,,0,FALSE,,,,,,,,,,,,,,,,,,,,,,,,,,,,,,,
,616c2e23cdae23ccf15ae162,627c6f4f4c8ad494b268f9d8,2022-05-12_04h26.05.370,classification_task,2021.2.3,Win32,48.56726566,627c6715c52fd12f31907bd0,,,,,,,,,,,,,,,,,,,,,,,a,1,1.7034,"[""0.074"",""0.564"",""0.603"",""0.975""]","[0,1,1,1]",0,5,5,5,1,0,0,,,0,FALSE,,,,,,,,,,,,,,,,,,,,,,,,,,,,,,,
,616c2e23cdae23ccf15ae162,627c6f4f4c8ad494b268f9d8,2022-05-12_04h26.05.370,classification_task,2021.2.3,Win32,48.56726566,627c6715c52fd12f31907bd0,,,,,,,,,,,,,,,,,,,,,,,a,1,1.1022,"[""0.159"",""0.564"",""0.603"",""0.688""]","[1,1,1,0]",0,6,6,6,1,0,0,,,0,FALSE,,,,,,,,,,,,,,,,,,,,,,,,,,,,,,,
,616c2e23cdae23ccf15ae162,627c6f4f4c8ad494b268f9d8,2022-05-12_04h26.05.370,classification_task,2021.2.3,Win32,48.56726566,627c6715c52fd12f31907bd0,,,,,,,,,,,,,,,,,,,,,,,l,1,0.7096,"[""0.025"",""0.331"",""0.688"",""0.801""]","[1,1,0,1]",0,7,7,7,1,1,0,,,0,FALSE,,,,,,,,,,,,,,,,,,,,,,,,,,,,,,,
,616c2e23cdae23ccf15ae162,627c6f4f4c8ad494b268f9d8,2022-05-12_04h26.05.370,classification_task,2021.2.3,Win32,48.56726566,627c6715c52fd12f31907bd0,,,,,,,,,,,,,,,,,,,,,,,a,0,1.4942,"[""0.114"",""0.242"",""0.075"",""0.755""]","[1,1,0,1]",0,8,8,8,1,1,1,,,0,FALSE,,,,,,,,,,,,,,,,,,,,,,,,,,,,,,,
,616c2e23cdae23ccf15ae162,627c6f4f4c8ad494b268f9d8,2022-05-12_04h26.05.370,classification_task,2021.2.3,Win32,48.56726566,627c6715c52fd12f31907bd0,,,,,,,,,,,,,,,,,,,,,,,l,0,2.2675,"[""0.199"",""0.478"",""0.857"",""0.682""]","[1,1,1,0]",0,9,9,9,1,0,1,,,0,FALSE,,,,,,,,,,,,,,,,,,,,,,,,,,,,,,,
,616c2e23cdae23ccf15ae162,627c6f4f4c8ad494b268f9d8,2022-05-12_04h26.05.370,classification_task,2021.2.3,Win32,48.56726566,627c6715c52fd12f31907bd0,,,,,,,,,,,,,,,,,,,,,,,l,1,2.0402,"[""0.025"",""0.077"",""0.516"",""0.801""]","[1,0,1,1]",0,10,10,10,1,1,0,,,0,FALSE,,,,,,,,,,,,,,,,,,,,,,,,,,,,,,,
,616c2e23cdae23ccf15ae162,627c6f4f4c8ad494b268f9d8,2022-05-12_04h26.05.370,classification_task,2021.2.3,Win32,48.56726566,627c6715c52fd12f31907bd0,,,,,,,,,,,,,,,,,,,,,,,l,1,0.7688,"[""0.429"",""0.331"",""0.516"",""0.801""]","[0,1,1,1]",0,11,11,11,1,1,0,,,0,FALSE,,,,,,,,,,,,,,,,,,,,,,,,,,,,,,,
,616c2e23cdae23ccf15ae162,627c6f4f4c8ad494b268f9d8,2022-05-12_04h26.05.370,classification_task,2021.2.3,Win32,48.56726566,627c6715c52fd12f31907bd0,,,,,,,,,,,,,,,,,,,,,,,a,1,0.6424,"[""0.159"",""0.688"",""0.603"",""0.975""]","[1,0,1,1]",0,12,12,12,1,0,0,,,0,FALSE,,,,,,,,,,,,,,,,,,,,,,,,,,,,,,,
,616c2e23cdae23ccf15ae162,627c6f4f4c8ad494b268f9d8,2022-05-12_04h26.05.370,classification_task,2021.2.3,Win32,48.56726566,627c6715c52fd12f31907bd0,,,,,,,,,,,,,,,,,,,,,,,a,0,3.1845,"[""0.114"",""0.242"",""0.646"",""0.075""]","[1,1,1,0]",0,13,13,13,1,1,1,,,0,FALSE,,,,,,,,,,,,,,,,,,,,,,,,,,,,,,,
,616c2e23cdae23ccf15ae162,627c6f4f4c8ad494b268f9d8,2022-05-12_04h26.05.370,classification_task,2021.2.3,Win32,48.56726566,627c6715c52fd12f31907bd0,,,,,,,,,,,,,,,,,,,,,,,l,0,2.0187,"[""0.682"",""0.478"",""0.857"",""0.927""]","[0,1,1,1]",0,14,14,14,1,0,1,,,0,FALSE,,,,,,,,,,,,,,,,,,,,,,,,,,,,,,,
,616c2e23cdae23ccf15ae162,627c6f4f4c8ad494b268f9d8,2022-05-12_04h26.05.370,classification_task,2021.2.3,Win32,48.56726566,627c6715c52fd12f31907bd0,,,,,,,,,,,,,,,,,,,,,,,l,0,4.5822,"[""0.199"",""0.478"",""0.705"",""0.927""]","[1,1,0,1]",0,15,15,15,1,0,1,,,0,FALSE,,,,,,,,,,,,,,,,,,,,,,,,,,,,,,,
,616c2e23cdae23ccf15ae162,627c6f4f4c8ad494b268f9d8,2022-05-12_04h26.05.370,classification_task,2021.2.3,Win32,48.56726566,627c6715c52fd12f31907bd0,,,,,,,,,,,,,,,,,,,,,,,l,1,0.9927,"[""0.025"",""0.331"",""0.516"",""0.682""]","[1,1,1,0]",0,16,16,16,1,1,0,,,0,FALSE,,,,,,,,,,,,,,,,,,,,,,,,,,,,,,,
,616c2e23cdae23ccf15ae162,627c6f4f4c8ad494b268f9d8,2022-05-12_04h26.05.370,classification_task,2021.2.3,Win32,48.56726566,627c6715c52fd12f31907bd0,,,,,,,,,,,,,,,,,,,,,,,a,1,0.7683,"[""0.159"",""0.564"",""0.424"",""0.975""]","[1,1,0,1]",0,17,17,17,1,0,0,,,0,FALSE,,,,,,,,,,,,,,,,,,,,,,,,,,,,,,,
,616c2e23cdae23ccf15ae162,627c6f4f4c8ad494b268f9d8,2022-05-12_04h26.05.370,classification_task,2021.2.3,Win32,48.56726566,627c6715c52fd12f31907bd0,,,,,,,,,,,,,,,,,,,,,,,l,1,1.0825,"[""0.372"",""0.331"",""0.516"",""0.801""]","[0,1,1,1]",0,18,18,18,1,1,0,,,0,FALSE,,,,,,,,,,,,,,,,,,,,,,,,,,,,,,,
,616c2e23cdae23ccf15ae162,627c6f4f4c8ad494b268f9d8,2022-05-12_04h26.05.370,classification_task,2021.2.3,Win32,48.56726566,627c6715c52fd12f31907bd0,,,,,,,,,,,,,,,,,,,,,,,a,1,0.5399,"[""0.159"",""0.564"",""0.603"",""0.401""]","[1,1,1,0]",0,19,19,19,1,0,0,,,0,FALSE,,,,,,,,,,,,,,,,,,,,,,,,,,,,,,,
,616c2e23cdae23ccf15ae162,627c6f4f4c8ad494b268f9d8,2022-05-12_04h26.05.370,classification_task,2021.2.3,Win32,48.56726566,627c6715c52fd12f31907bd0,,,,,,,,,,,,,,,,,,,,,,,a,0,1.4541,"[""0.114"",""0.075"",""0.646"",""0.755""]","[1,0,1,1]",0,20,20,20,1,1,1,,,0,FALSE,,,,,,,,,,,,,,,,,,,,,,,,,,,,,,,
,616c2e23cdae23ccf15ae162,627c6f4f4c8ad494b268f9d8,2022-05-12_04h26.05.370,classification_task,2021.2.3,Win32,48.56726566,627c6715c52fd12f31907bd0,,,,,,,,,,,,,,,,,,,,,,,a,1,2.355,"[""0.199"",""0.381"",""0.857"",""0.927""]","[1,0,1,1]",0,21,21,21,1,0,1,,,0,FALSE,,,,,,,,,,,,,,,,,,,,,,,,,,,,,,,
,616c2e23cdae23ccf15ae162,627c6f4f4c8ad494b268f9d8,2022-05-12_04h26.05.370,classification_task,2021.2.3,Win32,48.56726566,627c6715c52fd12f31907bd0,,,,,,,,,,,,,,,,,,,,,,,l,1,1.8914,"[""0.025"",""0.331"",""0.682"",""0.801""]","[1,1,0,1]",0,22,22,22,1,1,0,,,0,FALSE,,,,,,,,,,,,,,,,,,,,,,,,,,,,,,,
,616c2e23cdae23ccf15ae162,627c6f4f4c8ad494b268f9d8,2022-05-12_04h26.05.370,classification_task,2021.2.3,Win32,48.56726566,627c6715c52fd12f31907bd0,,,,,,,,,,,,,,,,,,,,,,,a,0,2.1445,"[""0.114"",""0.242"",""0.646"",""0.682""]","[1,1,1,0]",0,23,23,23,1,1,1,,,0,FALSE,,,,,,,,,,,,,,,,,,,,,,,,,,,,,,,
,616c2e23cdae23ccf15ae162,627c6f4f4c8ad494b268f9d8,2022-05-12_04h26.05.370,classification_task,2021.2.3,Win32,48.56726566,627c6715c52fd12f31907bd0,,,,,,,,,,,,,,,,,,,,,,,a,1,2.894,"[""0.159"",""0.372"",""0.603"",""0.975""]","[1,0,1,1]",0,24,24,24,1,0,0,,,0,FALSE,,,,,,,,,,,,,,,,,,,,,,,,,,,,,,,
,616c2e23cdae23ccf15ae162,627c6f4f4c8ad494b268f9d8,2022-05-12_04h26.05.370,classification_task,2021.2.3,Win32,48.56726566,627c6715c52fd12f31907bd0,,,,,,,,,,,,,,,,,,,,,,,a,1,1.0617,"[""0.682"",""0.564"",""0.603"",""0.975""]","[0,1,1,1]",0,25,25,25,1,0,0,,,0,FALSE,,,,,,,,,,,,,,,,,,,,,,,,,,,,,,,
,616c2e23cdae23ccf15ae162,627c6f4f4c8ad494b268f9d8,2022-05-12_04h26.05.370,classification_task,2021.2.3,Win32,48.56726566,627c6715c52fd12f31907bd0,,,,,,,,,,,,,,,,,,,,,,,a,0,1.7661,"[""0.114"",""0.242"",""0.074"",""0.755""]","[1,1,0,1]",0,26,26,26,1,1,1,,,0,FALSE,,,,,,,,,,,,,,,,,,,,,,,,,,,,,,,
,616c2e23cdae23ccf15ae162,627c6f4f4c8ad494b268f9d8,2022-05-12_04h26.05.370,classification_task,2021.2.3,Win32,48.56726566,627c6715c52fd12f31907bd0,,,,,,,,,,,,,,,,,,,,,,,l,0,1.2303,"[""0.199"",""0.478"",""0.288"",""0.927""]","[1,1,0,1]",0,27,27,27,1,0,1,,,0,FALSE,,,,,,,,,,,,,,,,,,,,,,,,,,,,,,,
,616c2e23cdae23ccf15ae162,627c6f4f4c8ad494b268f9d8,2022-05-12_04h26.05.370,classification_task,2021.2.3,Win32,48.56726566,627c6715c52fd12f31907bd0,,,,,,,,,,,,,,,,,,,,,,,l,0,1.7055,"[""0.199"",""0.478"",""0.857"",""0.075""]","[1,1,1,0]",0,28,28,28,1,0,1,,,0,FALSE,,,,,,,,,,,,,,,,,,,,,,,,,,,,,,,
,616c2e23cdae23ccf15ae162,627c6f4f4c8ad494b268f9d8,2022-05-12_04h26.05.370,classification_task,2021.2.3,Win32,48.56726566,627c6715c52fd12f31907bd0,,,,,,,,,,,,,,,,,,,,,,,l,1,0.8102,"[""0.025"",""0.429"",""0.516"",""0.801""]","[1,0,1,1]",0,29,29,29,1,1,0,,,0,FALSE,,,,,,,,,,,,,,,,,,,,,,,,,,,,,,,
,616c2e23cdae23ccf15ae162,627c6f4f4c8ad494b268f9d8,2022-05-12_04h26.05.370,classification_task,2021.2.3,Win32,48.56726566,627c6715c52fd12f31907bd0,,,,,,,,,,,,,,,,,,,,,,,a,1,1.5401,"[""0.075"",""0.478"",""0.857"",""0.927""]","[0,1,1,1]",0,30,30,30,1,0,1,,,0,FALSE,,,,,,,,,,,,,,,,,,,,,,,,,,,,,,,
,616c2e23cdae23ccf15ae162,627c6f4f4c8ad494b268f9d8,2022-05-12_04h26.05.370,classification_task,2021.2.3,Win32,48.56726566,627c6715c52fd12f31907bd0,,,,,,,,,,,,,,,,,,,,,,,a,0,1.3697,"[""0.074"",""0.242"",""0.646"",""0.755""]","[0,1,1,1]",0,31,31,31,1,1,1,,,0,FALSE,,,,,,,,,,,,,,,,,,,,,,,,,,,,,,,
,616c2e23cdae23ccf15ae162,627c6f4f4c8ad494b268f9d8,2022-05-12_04h26.05.370,classification_task,2021.2.3,Win32,48.56726566,627c6715c52fd12f31907bd0,,,,,,,,,,,,,,,,,,,,,,,l,1,1.7267,"[""0.372"",""0.331"",""0.516"",""0.801""]","[0,1,1,1]",0,32,32,32,1,1,0,,,0,FALSE,,,,,,,,,,,,,,,,,,,,,,,,,,,,,,,
,616c2e23cdae23ccf15ae162,627c6f4f4c8ad494b268f9d8,2022-05-12_04h26.05.370,classification_task,2021.2.3,Win32,48.56726566,627c6715c52fd12f31907bd0,,,,,,,,,,,,,,,,,,,,,,,a,0,2.8915,"[""0.114"",""0.242"",""0.682"",""0.755""]","[1,1,0,1]",0,33,33,33,1,1,1,,,0,FALSE,,,,,,,,,,,,,,,,,,,,,,,,,,,,,,,
,616c2e23cdae23ccf15ae162,627c6f4f4c8ad494b268f9d8,2022-05-12_04h26.05.370,classification_task,2021.2.3,Win32,48.56726566,627c6715c52fd12f31907bd0,,,,,,,,,,,,,,,,,,,,,,,a,1,1.954,"[""0.199"",""0.429"",""0.857"",""0.927""]","[1,0,1,1]",0,34,34,34,1,0,1,,,0,FALSE,,,,,,,,,,,,,,,,,,,,,,,,,,,,,,,
,616c2e23cdae23ccf15ae162,627c6f4f4c8ad494b268f9d8,2022-05-12_04h26.05.370,classification_task,2021.2.3,Win32,48.56726566,627c6715c52fd12f31907bd0,,,,,,,,,,,,,,,,,,,,,,,a,1,2.1611,"[""0.199"",""0.478"",""0.429"",""0.927""]","[1,1,0,1]",0,35,35,35,1,0,1,,,0,FALSE,,,,,,,,,,,,,,,,,,,,,,,,,,,,,,,
,616c2e23cdae23ccf15ae162,627c6f4f4c8ad494b268f9d8,2022-05-12_04h26.05.370,classification_task,2021.2.3,Win32,48.56726566,627c6715c52fd12f31907bd0,,,,,,,,,,,,,,,,,,,,,,,a,0,1.1047,"[""0.114"",""0.242"",""0.646"",""0.682""]","[1,1,1,0]",0,36,36,36,1,1,1,,,0,FALSE,,,,,,,,,,,,,,,,,,,,,,,,,,,,,,,
,616c2e23cdae23ccf15ae162,627c6f4f4c8ad494b268f9d8,2022-05-12_04h26.05.370,classification_task,2021.2.3,Win32,48.56726566,627c6715c52fd12f31907bd0,,,,,,,,,,,,,,,,,,,,,,,a,1,2.6406,"[""0.159"",""0.564"",""0.603"",""0.682""]","[1,1,1,0]",0,37,37,37,1,0,0,,,0,FALSE,,,,,,,,,,,,,,,,,,,,,,,,,,,,,,,
,616c2e23cdae23ccf15ae162,627c6f4f4c8ad494b268f9d8,2022-05-12_04h26.05.370,classification_task,2021.2.3,Win32,48.56726566,627c6715c52fd12f31907bd0,,,,,,,,,,,,,,,,,,,,,,,l,1,0.8733,"[""0.025"",""0.075"",""0.516"",""0.801""]","[1,0,1,1]",0,38,38,38,1,1,0,,,0,FALSE,,,,,,,,,,,,,,,,,,,,,,,,,,,,,,,
,616c2e23cdae23ccf15ae162,627c6f4f4c8ad494b268f9d8,2022-05-12_04h26.05.370,classification_task,2021.2.3,Win32,48.56726566,627c6715c52fd12f31907bd0,,,,,,,,,,,,,,,,,,,,,,,l,1,3.3707,"[""0.114"",""0.381"",""0.646"",""0.755""]","[1,0,1,1]",0,39,39,39,1,1,1,,,0,FALSE,,,,,,,,,,,,,,,,,,,,,,,,,,,,,,,
,616c2e23cdae23ccf15ae162,627c6f4f4c8ad494b268f9d8,2022-05-12_04h26.05.370,classification_task,2021.2.3,Win32,48.56726566,627c6715c52fd12f31907bd0,,,,,,,,,,,,,,,,,,,,,,,l,1,1.1217,"[""0.025"",""0.331"",""0.074"",""0.801""]","[1,1,0,1]",0,40,40,40,1,1,0,,,0,FALSE,,,,,,,,,,,,,,,,,,,,,,,,,,,,,,,
,616c2e23cdae23ccf15ae162,627c6f4f4c8ad494b268f9d8,2022-05-12_04h26.05.370,classification_task,2021.2.3,Win32,48.56726566,627c6715c52fd12f31907bd0,,,,,,,,,,,,,,,,,,,,,,,a,1,0.8529,"[""0.159"",""0.564"",""0.401"",""0.975""]","[1,1,0,1]",0,41,41,41,1,0,0,,,0,FALSE,,,,,,,,,,,,,,,,,,,,,,,,,,,,,,,
,616c2e23cdae23ccf15ae162,627c6f4f4c8ad494b268f9d8,2022-05-12_04h26.05.370,classification_task,2021.2.3,Win32,48.56726566,627c6715c52fd12f31907bd0,,,,,,,,,,,,,,,,,,,,,,,l,0,2.2229,"[""0.199"",""0.478"",""0.857"",""0.074""]","[1,1,1,0]",0,42,42,42,1,0,1,,,0,FALSE,,,,,,,,,,,,,,,,,,,,,,,,,,,,,,,
,616c2e23cdae23ccf15ae162,627c6f4f4c8ad494b268f9d8,2022-05-12_04h26.05.370,classification_task,2021.2.3,Win32,48.56726566,627c6715c52fd12f31907bd0,,,,,,,,,,,,,,,,,,,,,,,l,1,2.7468,"[""0.075"",""0.242"",""0.646"",""0.755""]","[0,1,1,1]",0,43,43,43,1,1,1,,,0,FALSE,,,,,,,,,,,,,,,,,,,,,,,,,,,,,,,
,616c2e23cdae23ccf15ae162,627c6f4f4c8ad494b268f9d8,2022-05-12_04h26.05.370,classification_task,2021.2.3,Win32,48.56726566,627c6715c52fd12f31907bd0,,,,,,,,,,,,,,,,,,,,,,,a,1,1.1595,"[""0.159"",""0.424"",""0.603"",""0.975""]","[1,0,1,1]",0,44,44,44,1,0,0,,,0,FALSE,,,,,,,,,,,,,,,,,,,,,,,,,,,,,,,
,616c2e23cdae23ccf15ae162,627c6f4f4c8ad494b268f9d8,2022-05-12_04h26.05.370,classification_task,2021.2.3,Win32,48.56726566,627c6715c52fd12f31907bd0,,,,,,,,,,,,,,,,,,,,,,,a,1,0.6658,"[""0.682"",""0.564"",""0.603"",""0.975""]","[0,1,1,1]",0,45,45,45,1,0,0,,,0,FALSE,,,,,,,,,,,,,,,,,,,,,,,,,,,,,,,
,616c2e23cdae23ccf15ae162,627c6f4f4c8ad494b268f9d8,2022-05-12_04h26.05.370,classification_task,2021.2.3,Win32,48.56726566,627c6715c52fd12f31907bd0,,,,,,,,,,,,,,,,,,,,,,,l,0,1.9317,"[""0.401"",""0.478"",""0.857"",""0.927""]","[0,1,1,1]",0,46,46,46,1,0,1,,,0,FALSE,,,,,,,,,,,,,,,,,,,,,,,,,,,,,,,
,616c2e23cdae23ccf15ae162,627c6f4f4c8ad494b268f9d8,2022-05-12_04h26.05.370,classification_task,2021.2.3,Win32,48.56726566,627c6715c52fd12f31907bd0,,,,,,,,,,,,,,,,,,,,,,,l,1,2.6044,"[""0.025"",""0.331"",""0.516"",""0.401""]","[1,1,1,0]",0,47,47,47,1,1,0,,,0,FALSE,,,,,,,,,,,,,,,,,,,,,,,,,,,,,,,
,616c2e23cdae23ccf15ae162,627c6f4f4c8ad494b268f9d8,2022-05-12_04h26.05.370,classification_task,2021.2.3,Win32,48.56726566,627c6715c52fd12f31907bd0,,,,,,,,,,,,,,,,,,,,,,,l,1,2.2685,"[""0.025"",""0.331"",""0.688"",""0.801""]","[1,1,0,1]",0,48,48,48,1,1,0,,,0,FALSE,,,,,,,,,,,,,,,,,,,,,,,,,,,,,,,
,616c2e23cdae23ccf15ae162,627c6f4f4c8ad494b268f9d8,2022-05-12_04h26.05.370,classification_task,2021.2.3,Win32,48.56726566,627c6715c52fd12f31907bd0,,,,,,,,,,,,,,,,,,,,,,,a,0,1.7494,"[""0.074"",""0.242"",""0.646"",""0.755""]","[0,1,1,1]",0,49,49,49,1,1,1,,,0,FALSE,,,,,,,,,,,,,,,,,,,,,,,,,,,,,,,
,616c2e23cdae23ccf15ae162,627c6f4f4c8ad494b268f9d8,2022-05-12_04h26.05.370,classification_task,2021.2.3,Win32,48.56726566,627c6715c52fd12f31907bd0,,,,,,,,,,,,,,,,,,,,,,,a,0,2.206,"[""0.114"",""0.077"",""0.646"",""0.755""]","[1,0,1,1]",0,50,50,50,1,1,1,,,0,FALSE,,,,,,,,,,,,,,,,,,,,,,,,,,,,,,,
,616c2e23cdae23ccf15ae162,627c6f4f4c8ad494b268f9d8,2022-05-12_04h26.05.370,classification_task,2021.2.3,Win32,48.56726566,627c6715c52fd12f31907bd0,,,,,,,,,,,,,,,,,,,,,,,a,1,2.3082,"[""0.159"",""0.564"",""0.603"",""0.288""]","[1,1,1,0]",0,51,51,51,1,0,0,,,0,FALSE,,,,,,,,,,,,,,,,,,,,,,,,,,,,,,,
,616c2e23cdae23ccf15ae162,627c6f4f4c8ad494b268f9d8,2022-05-12_04h26.05.370,classification_task,2021.2.3,Win32,48.56726566,627c6715c52fd12f31907bd0,,,,,,,,,,,,,,,,,,,,,,,l,1,0.8324,"[""0.429"",""0.331"",""0.516"",""0.801""]","[0,1,1,1]",0,52,52,52,1,1,0,,,0,FALSE,,,,,,,,,,,,,,,,,,,,,,,,,,,,,,,
,616c2e23cdae23ccf15ae162,627c6f4f4c8ad494b268f9d8,2022-05-12_04h26.05.370,classification_task,2021.2.3,Win32,48.56726566,627c6715c52fd12f31907bd0,,,,,,,,,,,,,,,,,,,,,,,l,0,2.9969,"[""0.199"",""0.424"",""0.857"",""0.927""]","[1,0,1,1]",0,53,53,53,1,0,1,,,0,FALSE,,,,,,,,,,,,,,,,,,,,,,,,,,,,,,,
,616c2e23cdae23ccf15ae162,627c6f4f4c8ad494b268f9d8,2022-05-12_04h26.05.370,classification_task,2021.2.3,Win32,48.56726566,627c6715c52fd12f31907bd0,,,,,,,,,,,,,,,,,,,,,,,l,0,2.2934,"[""0.199"",""0.478"",""0.372"",""0.927""]","[1,1,0,1]",0,54,54,54,1,0,1,,,0,FALSE,,,,,,,,,,,,,,,,,,,,,,,,,,,,,,,
,616c2e23cdae23ccf15ae162,627c6f4f4c8ad494b268f9d8,2022-05-12_04h26.05.370,classification_task,2021.2.3,Win32,48.56726566,627c6715c52fd12f31907bd0,,,,,,,,,,,,,,,,,,,,,,,a,1,2.1853,"[""0.705"",""0.478"",""0.857"",""0.927""]","[0,1,1,1]",0,55,55,55,1,0,1,,,0,FALSE,,,,,,,,,,,,,,,,,,,,,,,,,,,,,,,
,616c2e23cdae23ccf15ae162,627c6f4f4c8ad494b268f9d8,2022-05-12_04h26.05.370,classification_task,2021.2.3,Win32,48.56726566,627c6715c52fd12f31907bd0,,,,,,,,,,,,,,,,,,,,,,,l,1,0.9771,"[""0.025"",""0.077"",""0.516"",""0.801""]","[1,0,1,1]",0,56,56,56,1,1,0,,,0,FALSE,,,,,,,,,,,,,,,,,,,,,,,,,,,,,,,
,616c2e23cdae23ccf15ae162,627c6f4f4c8ad494b268f9d8,2022-05-12_04h26.05.370,classification_task,2021.2.3,Win32,48.56726566,627c6715c52fd12f31907bd0,,,,,,,,,,,,,,,,,,,,,,,a,1,1.495,"[""0.199"",""0.478"",""0.857"",""0.682""]","[1,1,1,0]",0,57,57,57,1,0,1,,,0,FALSE,,,,,,,,,,,,,,,,,,,,,,,,,,,,,,,
,616c2e23cdae23ccf15ae162,627c6f4f4c8ad494b268f9d8,2022-05-12_04h26.05.370,classification_task,2021.2.3,Win32,48.56726566,627c6715c52fd12f31907bd0,,,,,,,,,,,,,,,,,,,,,,,l,1,0.9326,"[""0.025"",""0.331"",""0.516"",""0.688""]","[1,1,1,0]",0,58,58,58,1,1,0,,,0,FALSE,,,,,,,,,,,,,,,,,,,,,,,,,,,,,,,
,616c2e23cdae23ccf15ae162,627c6f4f4c8ad494b268f9d8,2022-05-12_04h26.05.370,classification_task,2021.2.3,Win32,48.56726566,627c6715c52fd12f31907bd0,,,,,,,,,,,,,,,,,,,,,,,a,0,1.3912,"[""0.114"",""0.242"",""0.646"",""0.381""]","[1,1,1,0]",0,59,59,59,1,1,1,,,0,FALSE,,,,,,,,,,,,,,,,,,,,,,,,,,,,,,,
,616c2e23cdae23ccf15ae162,627c6f4f4c8ad494b268f9d8,2022-05-12_04h26.05.370,classification_task,2021.2.3,Win32,48.56726566,627c6715c52fd12f31907bd0,,,,,,,,,,,,,,,,,,,,,,,a,1,1.3493,"[""0.705"",""0.564"",""0.603"",""0.975""]","[0,1,1,1]",0,60,60,60,1,0,0,,,0,FALSE,,,,,,,,,,,,,,,,,,,,,,,,,,,,,,,
,616c2e23cdae23ccf15ae162,627c6f4f4c8ad494b268f9d8,2022-05-12_04h26.05.370,classification_task,2021.2.3,Win32,48.56726566,627c6715c52fd12f31907bd0,,,,,,,,,,,,,,,,,,,,,,,a,1,0.768,"[""0.159"",""0.564"",""0.372"",""0.975""]","[1,1,0,1]",0,61,61,61,1,0,0,,,0,FALSE,,,,,,,,,,,,,,,,,,,,,,,,,,,,,,,
,616c2e23cdae23ccf15ae162,627c6f4f4c8ad494b268f9d8,2022-05-12_04h26.05.370,classification_task,2021.2.3,Win32,48.56726566,627c6715c52fd12f31907bd0,,,,,,,,,,,,,,,,,,,,,,,a,1,0.7261,"[""0.159"",""0.372"",""0.603"",""0.975""]","[1,0,1,1]",0,62,62,62,1,0,0,,,0,FALSE,,,,,,,,,,,,,,,,,,,,,,,,,,,,,,,
,616c2e23cdae23ccf15ae162,627c6f4f4c8ad494b268f9d8,2022-05-12_04h26.05.370,classification_task,2021.2.3,Win32,48.56726566,627c6715c52fd12f31907bd0,,,,,,,,,,,,,,,,,,,,,,,a,0,1.0825,"[""0.114"",""0.242"",""0.424"",""0.755""]","[1,1,0,1]",0,63,63,63,1,1,1,,,0,FALSE,,,,,,,,,,,,,,,,,,,,,,,,,,,,,,,
,616c2e23cdae23ccf15ae162,627c6f4f4c8ad494b268f9d8,2022-05-12_04h26.05.370,classification_task,2021.2.3,Win32,48.56726566,627c6715c52fd12f31907bd0,,,,,,,,,,,,,,,,,,,,,,,,,,,,,,,,,,,,,,,0, ,,0,4.534588993,235.2559,0,1,1,1,1,2,2,,,,,,,,,,,,,,,,,,
,616c2e23cdae23ccf15ae162,627c6f4f4c8ad494b268f9d8,2022-05-12_04h26.05.370,classification_task,2021.2.3,Win32,48.56726566,627c6715c52fd12f31907bd0,,,,,,,,,,,,,,,,,,,,,,,,,,,,,,,,,,,,,,,1,  ,,0,5.906330358,237.8341,0,1,1,1,1,2,2,,,,,,,,,,,,,,,,,,
,616c2e23cdae23ccf15ae162,627c6f4f4c8ad494b268f9d8,2022-05-12_04h26.05.370,classification_task,2021.2.3,Win32,48.56726566,627c6715c52fd12f31907bd0,,,,,,,,,,,,,,,,,,,,,,,,,,,,,,,,,,,,,,,2,  ,,0,8.67430923,244.0794,0,1,1,1,1,2,2,,,,,,,,,,,,,,,,,,
,616c2e23cdae23ccf15ae162,627c6f4f4c8ad494b268f9d8,2022-05-12_04h26.05.370,classification_task,2021.2.3,Win32,48.56726566,627c6715c52fd12f31907bd0,,,,,,,,,,,,,,,,,,,,,,,,,,,,,,,,,,,,,,,,,,,,,0,1,1,1,1,,2,,,,,,,,,,,,,,,,,,
,616c2e23cdae23ccf15ae162,627c6f4f4c8ad494b268f9d8,2022-05-12_04h26.05.370,classification_task,2021.2.3,Win32,48.56726566,627c6715c52fd12f31907bd0,,,,,,,,,,,,,,,,,,,,,space,14.1797,l,1,2.8067,"[""0.025"",""0.331"",""0.516"",""0.424""]","[1,1,1,0]",0,0,0,0,1,1,0,,,0,FALSE,,,,,,,,,,,,,,,,,,,,,,,,,,,,,,,
,616c2e23cdae23ccf15ae162,627c6f4f4c8ad494b268f9d8,2022-05-12_04h26.05.370,classification_task,2021.2.3,Win32,48.56726566,627c6715c52fd12f31907bd0,,,,,,,,,,,,,,,,,,,,,,,a,0,3.4389,"[""0.114"",""0.424"",""0.646"",""0.755""]","[1,0,1,1]",0,1,1,1,1,1,1,,,0,FALSE,,,,,,,,,,,,,,,,,,,,,,,,,,,,,,,
,616c2e23cdae23ccf15ae162,627c6f4f4c8ad494b268f9d8,2022-05-12_04h26.05.370,classification_task,2021.2.3,Win32,48.56726566,627c6715c52fd12f31907bd0,,,,,,,,,,,,,,,,,,,,,,,a,0,2.7439,"[""0.025"",""0.331"",""0.705"",""0.801""]","[1,1,0,1]",0,2,2,2,1,1,0,,,0,FALSE,,,,,,,,,,,,,,,,,,,,,,,,,,,,,,,
,616c2e23cdae23ccf15ae162,627c6f4f4c8ad494b268f9d8,2022-05-12_04h26.05.370,classification_task,2021.2.3,Win32,48.56726566,627c6715c52fd12f31907bd0,,,,,,,,,,,,,,,,,,,,,,,a,0,5.3159,"[""0.424"",""0.242"",""0.646"",""0.755""]","[0,1,1,1]",0,3,3,3,1,1,1,,,0,FALSE,,,,,,,,,,,,,,,,,,,,,,,,,,,,,,,
,616c2e23cdae23ccf15ae162,627c6f4f4c8ad494b268f9d8,2022-05-12_04h26.05.370,classification_task,2021.2.3,Win32,48.56726566,627c6715c52fd12f31907bd0,,,,,,,,,,,,,,,,,,,,,,,a,1,3.5447,"[""0.401"",""0.564"",""0.603"",""0.975""]","[0,1,1,1]",0,4,4,4,1,0,0,,,0,FALSE,,,,,,,,,,,,,,,,,,,,,,,,,,,,,,,
,616c2e23cdae23ccf15ae162,627c6f4f4c8ad494b268f9d8,2022-05-12_04h26.05.370,classification_task,2021.2.3,Win32,48.56726566,627c6715c52fd12f31907bd0,,,,,,,,,,,,,,,,,,,,,,,a,0,2.1132,"[""0.114"",""0.242"",""0.646"",""0.077""]","[1,1,1,0]",0,5,5,5,1,1,1,,,0,FALSE,,,,,,,,,,,,,,,,,,,,,,,,,,,,,,,
,616c2e23cdae23ccf15ae162,627c6f4f4c8ad494b268f9d8,2022-05-12_04h26.05.370,classification_task,2021.2.3,Win32,48.56726566,627c6715c52fd12f31907bd0,,,,,,,,,,,,,,,,,,,,,,,l,0,3.9824,"[""0.159"",""0.564"",""0.074"",""0.975""]","[1,1,0,1]",0,6,6,6,1,0,0,,,0,FALSE,,,,,,,,,,,,,,,,,,,,,,,,,,,,,,,
,616c2e23cdae23ccf15ae162,627c6f4f4c8ad494b268f9d8,2022-05-12_04h26.05.370,classification_task,2021.2.3,Win32,48.56726566,627c6715c52fd12f31907bd0,,,,,,,,,,,,,,,,,,,,,,,a,1,2.0238,"[""0.077"",""0.478"",""0.857"",""0.927""]","[0,1,1,1]",0,7,7,7,1,0,1,,,0,FALSE,,,,,,,,,,,,,,,,,,,,,,,,,,,,,,,
,616c2e23cdae23ccf15ae162,627c6f4f4c8ad494b268f9d8,2022-05-12_04h26.05.370,classification_task,2021.2.3,Win32,48.56726566,627c6715c52fd12f31907bd0,,,,,,,,,,,,,,,,,,,,,,,a,1,1.6737,"[""0.159"",""0.564"",""0.603"",""0.682""]","[1,1,1,0]",0,8,8,8,1,0,0,,,0,FALSE,,,,,,,,,,,,,,,,,,,,,,,,,,,,,,,
,616c2e23cdae23ccf15ae162,627c6f4f4c8ad494b268f9d8,2022-05-12_04h26.05.370,classification_task,2021.2.3,Win32,48.56726566,627c6715c52fd12f31907bd0,,,,,,,,,,,,,,,,,,,,,,,l,1,4.2147,"[""0.025"",""0.288"",""0.516"",""0.801""]","[1,0,1,1]",0,9,9,9,1,1,0,,,0,FALSE,,,,,,,,,,,,,,,,,,,,,,,,,,,,,,,
,616c2e23cdae23ccf15ae162,627c6f4f4c8ad494b268f9d8,2022-05-12_04h26.05.370,classification_task,2021.2.3,Win32,48.56726566,627c6715c52fd12f31907bd0,,,,,,,,,,,,,,,,,,,,,,,l,1,1.8484,"[""0.114"",""0.242"",""0.424"",""0.755""]","[1,1,0,1]",0,10,10,10,1,1,1,,,0,FALSE,,,,,,,,,,,,,,,,,,,,,,,,,,,,,,,
,616c2e23cdae23ccf15ae162,627c6f4f4c8ad494b268f9d8,2022-05-12_04h26.05.370,classification_task,2021.2.3,Win32,48.56726566,627c6715c52fd12f31907bd0,,,,,,,,,,,,,,,,,,,,,,,a,1,2.7728,"[""0.159"",""0.705"",""0.603"",""0.975""]","[1,0,1,1]",0,11,11,11,1,0,0,,,0,FALSE,,,,,,,,,,,,,,,,,,,,,,,,,,,,,,,
,616c2e23cdae23ccf15ae162,627c6f4f4c8ad494b268f9d8,2022-05-12_04h26.05.370,classification_task,2021.2.3,Win32,48.56726566,627c6715c52fd12f31907bd0,,,,,,,,,,,,,,,,,,,,,,,a,1,1.0414,"[""0.199"",""0.478"",""0.857"",""0.401""]","[1,1,1,0]",0,12,12,12,1,0,1,,,0,FALSE,,,,,,,,,,,,,,,,,,,,,,,,,,,,,,,
,616c2e23cdae23ccf15ae162,627c6f4f4c8ad494b268f9d8,2022-05-12_04h26.05.370,classification_task,2021.2.3,Win32,48.56726566,627c6715c52fd12f31907bd0,,,,,,,,,,,,,,,,,,,,,,,a,1,1.5566,"[""0.199"",""0.682"",""0.857"",""0.927""]","[1,0,1,1]",0,13,13,13,1,0,1,,,0,FALSE,,,,,,,,,,,,,,,,,,,,,,,,,,,,,,,
,616c2e23cdae23ccf15ae162,627c6f4f4c8ad494b268f9d8,2022-05-12_04h26.05.370,classification_task,2021.2.3,Win32,48.56726566,627c6715c52fd12f31907bd0,,,,,,,,,,,,,,,,,,,,,,,l,1,2.0806,"[""0.680"",""0.331"",""0.516"",""0.801""]","[0,1,1,1]",0,14,14,14,1,1,0,,,0,FALSE,,,,,,,,,,,,,,,,,,,,,,,,,,,,,,,
,616c2e23cdae23ccf15ae162,627c6f4f4c8ad494b268f9d8,2022-05-12_04h26.05.370,classification_task,2021.2.3,Win32,48.56726566,627c6715c52fd12f31907bd0,,,,,,,,,,,,,,,,,,,,,,,l,0,1.5243,"[""0.199"",""0.478"",""0.372"",""0.927""]","[1,1,0,1]",0,15,15,15,1,0,1,,,0,FALSE,,,,,,,,,,,,,,,,,,,,,,,,,,,,,,,
,616c2e23cdae23ccf15ae162,627c6f4f4c8ad494b268f9d8,2022-05-12_04h26.05.370,classification_task,2021.2.3,Win32,48.56726566,627c6715c52fd12f31907bd0,,,,,,,,,,,,,,,,,,,,,,,l,0,1.8711,"[""0.159"",""0.564"",""0.680"",""0.975""]","[1,1,0,1]",0,16,16,16,1,0,0,,,0,FALSE,,,,,,,,,,,,,,,,,,,,,,,,,,,,,,,
,616c2e23cdae23ccf15ae162,627c6f4f4c8ad494b268f9d8,2022-05-12_04h26.05.370,classification_task,2021.2.3,Win32,48.56726566,627c6715c52fd12f31907bd0,,,,,,,,,,,,,,,,,,,,,,,a,0,2.0798,"[""0.114"",""0.705"",""0.646"",""0.755""]","[1,0,1,1]",0,17,17,17,1,1,1,,,0,FALSE,,,,,,,,,,,,,,,,,,,,,,,,,,,,,,,
,616c2e23cdae23ccf15ae162,627c6f4f4c8ad494b268f9d8,2022-05-12_04h26.05.370,classification_task,2021.2.3,Win32,48.56726566,627c6715c52fd12f31907bd0,,,,,,,,,,,,,,,,,,,,,,,l,1,3.3947,"[""0.025"",""0.288"",""0.516"",""0.801""]","[1,0,1,1]",0,18,18,18,1,1,0,,,0,FALSE,,,,,,,,,,,,,,,,,,,,,,,,,,,,,,,
,616c2e23cdae23ccf15ae162,627c6f4f4c8ad494b268f9d8,2022-05-12_04h26.05.370,classification_task,2021.2.3,Win32,48.56726566,627c6715c52fd12f31907bd0,,,,,,,,,,,,,,,,,,,,,,,l,1,2.6247,"[""0.680"",""0.331"",""0.516"",""0.801""]","[0,1,1,1]",0,19,19,19,1,1,0,,,0,FALSE,,,,,,,,,,,,,,,,,,,,,,,,,,,,,,,
,616c2e23cdae23ccf15ae162,627c6f4f4c8ad494b268f9d8,2022-05-12_04h26.05.370,classification_task,2021.2.3,Win32,48.56726566,627c6715c52fd12f31907bd0,,,,,,,,,,,,,,,,,,,,,,,l,0,2.0361,"[""0.199"",""0.077"",""0.857"",""0.927""]","[1,0,1,1]",0,20,20,20,1,0,1,,,0,FALSE,,,,,,,,,,,,,,,,,,,,,,,,,,,,,,,
,616c2e23cdae23ccf15ae162,627c6f4f4c8ad494b268f9d8,2022-05-12_04h26.05.370,classification_task,2021.2.3,Win32,48.56726566,627c6715c52fd12f31907bd0,,,,,,,,,,,,,,,,,,,,,,,a,1,2.2961,"[""0.199"",""0.478"",""0.857"",""0.372""]","[1,1,1,0]",0,21,21,21,1,0,1,,,0,FALSE,,,,,,,,,,,,,,,,,,,,,,,,,,,,,,,
,616c2e23cdae23ccf15ae162,627c6f4f4c8ad494b268f9d8,2022-05-12_04h26.05.370,classification_task,2021.2.3,Win32,48.56726566,627c6715c52fd12f31907bd0,,,,,,,,,,,,,,,,,,,,,,,a,1,1.5446,"[""0.682"",""0.478"",""0.857"",""0.927""]","[0,1,1,1]",0,22,22,22,1,0,1,,,0,FALSE,,,,,,,,,,,,,,,,,,,,,,,,,,,,,,,
,616c2e23cdae23ccf15ae162,627c6f4f4c8ad494b268f9d8,2022-05-12_04h26.05.370,classification_task,2021.2.3,Win32,48.56726566,627c6715c52fd12f31907bd0,,,,,,,,,,,,,,,,,,,,,,,a,1,1.9251,"[""0.159"",""0.564"",""0.603"",""0.680""]","[1,1,1,0]",0,23,23,23,1,0,0,,,0,FALSE,,,,,,,,,,,,,,,,,,,,,,,,,,,,,,,
,616c2e23cdae23ccf15ae162,627c6f4f4c8ad494b268f9d8,2022-05-12_04h26.05.370,classification_task,2021.2.3,Win32,48.56726566,627c6715c52fd12f31907bd0,,,,,,,,,,,,,,,,,,,,,,,l,1,2.4206,"[""0.114"",""0.242"",""0.646"",""0.402""]","[1,1,1,0]",0,24,24,24,1,1,1,,,0,FALSE,,,,,,,,,,,,,,,,,,,,,,,,,,,,,,,
,616c2e23cdae23ccf15ae162,627c6f4f4c8ad494b268f9d8,2022-05-12_04h26.05.370,classification_task,2021.2.3,Win32,48.56726566,627c6715c52fd12f31907bd0,,,,,,,,,,,,,,,,,,,,,,,a,1,2.0967,"[""0.401"",""0.564"",""0.603"",""0.975""]","[0,1,1,1]",0,25,25,25,1,0,0,,,0,FALSE,,,,,,,,,,,,,,,,,,,,,,,,,,,,,,,
,616c2e23cdae23ccf15ae162,627c6f4f4c8ad494b268f9d8,2022-05-12_04h26.05.370,classification_task,2021.2.3,Win32,48.56726566,627c6715c52fd12f31907bd0,,,,,,,,,,,,,,,,,,,,,,,a,0,1.684,"[""0.114"",""0.242"",""0.075"",""0.755""]","[1,1,0,1]",0,26,26,26,1,1,1,,,0,FALSE,,,,,,,,,,,,,,,,,,,,,,,,,,,,,,,
,616c2e23cdae23ccf15ae162,627c6f4f4c8ad494b268f9d8,2022-05-12_04h26.05.370,classification_task,2021.2.3,Win32,48.56726566,627c6715c52fd12f31907bd0,,,,,,,,,,,,,,,,,,,,,,,l,0,1.8217,"[""0.199"",""0.478"",""0.372"",""0.927""]","[1,1,0,1]",0,27,27,27,1,0,1,,,0,FALSE,,,,,,,,,,,,,,,,,,,,,,,,,,,,,,,
,616c2e23cdae23ccf15ae162,627c6f4f4c8ad494b268f9d8,2022-05-12_04h26.05.370,classification_task,2021.2.3,Win32,48.56726566,627c6715c52fd12f31907bd0,,,,,,,,,,,,,,,,,,,,,,,l,0,1.162,"[""0.159"",""0.372"",""0.603"",""0.975""]","[1,0,1,1]",0,28,28,28,1,0,0,,,0,FALSE,,,,,,,,,,,,,,,,,,,,,,,,,,,,,,,
,616c2e23cdae23ccf15ae162,627c6f4f4c8ad494b268f9d8,2022-05-12_04h26.05.370,classification_task,2021.2.3,Win32,48.56726566,627c6715c52fd12f31907bd0,,,,,,,,,,,,,,,,,,,,,,,a,0,4.6842,"[""0.025"",""0.331"",""0.516"",""0.682""]","[1,1,1,0]",0,29,29,29,1,1,0,,,0,FALSE,,,,,,,,,,,,,,,,,,,,,,,,,,,,,,,
,616c2e23cdae23ccf15ae162,627c6f4f4c8ad494b268f9d8,2022-05-12_04h26.05.370,classification_task,2021.2.3,Win32,48.56726566,627c6715c52fd12f31907bd0,,,,,,,,,,,,,,,,,,,,,,,a,0,2.1667,"[""0.402"",""0.242"",""0.646"",""0.755""]","[0,1,1,1]",0,30,30,30,1,1,1,,,0,FALSE,,,,,,,,,,,,,,,,,,,,,,,,,,,,,,,
,616c2e23cdae23ccf15ae162,627c6f4f4c8ad494b268f9d8,2022-05-12_04h26.05.370,classification_task,2021.2.3,Win32,48.56726566,627c6715c52fd12f31907bd0,,,,,,,,,,,,,,,,,,,,,,,a,0,2.4426,"[""0.025"",""0.331"",""0.075"",""0.801""]","[1,1,0,1]",0,31,31,31,1,1,0,,,0,FALSE,,,,,,,,,,,,,,,,,,,,,,,,,,,,,,,
,616c2e23cdae23ccf15ae162,627c6f4f4c8ad494b268f9d8,2022-05-12_04h26.05.370,classification_task,2021.2.3,Win32,48.56726566,627c6715c52fd12f31907bd0,,,,,,,,,,,,,,,,,,,,,,,a,1,2.2656,"[""0.199"",""0.424"",""0.857"",""0.927""]","[1,0,1,1]",0,32,32,32,1,0,1,,,0,FALSE,,,,,,,,,,,,,,,,,,,,,,,,,,,,,,,
,616c2e23cdae23ccf15ae162,627c6f4f4c8ad494b268f9d8,2022-05-12_04h26.05.370,classification_task,2021.2.3,Win32,48.56726566,627c6715c52fd12f31907bd0,,,,,,,,,,,,,,,,,,,,,,,l,0,2.6403,"[""0.381"",""0.478"",""0.857"",""0.927""]","[0,1,1,1]",0,33,33,33,1,0,1,,,0,FALSE,,,,,,,,,,,,,,,,,,,,,,,,,,,,,,,
,616c2e23cdae23ccf15ae162,627c6f4f4c8ad494b268f9d8,2022-05-12_04h26.05.370,classification_task,2021.2.3,Win32,48.56726566,627c6715c52fd12f31907bd0,,,,,,,,,,,,,,,,,,,,,,,l,0,2.7723,"[""0.199"",""0.478"",""0.381"",""0.927""]","[1,1,0,1]",0,34,34,34,1,0,1,,,0,FALSE,,,,,,,,,,,,,,,,,,,,,,,,,,,,,,,
,616c2e23cdae23ccf15ae162,627c6f4f4c8ad494b268f9d8,2022-05-12_04h26.05.370,classification_task,2021.2.3,Win32,48.56726566,627c6715c52fd12f31907bd0,,,,,,,,,,,,,,,,,,,,,,,l,1,2.6464,"[""0.025"",""0.331"",""0.705"",""0.801""]","[1,1,0,1]",0,35,35,35,1,1,0,,,0,FALSE,,,,,,,,,,,,,,,,,,,,,,,,,,,,,,,
,616c2e23cdae23ccf15ae162,627c6f4f4c8ad494b268f9d8,2022-05-12_04h26.05.370,classification_task,2021.2.3,Win32,48.56726566,627c6715c52fd12f31907bd0,,,,,,,,,,,,,,,,,,,,,,,a,1,1.6472,"[""0.159"",""0.564"",""0.603"",""0.288""]","[1,1,1,0]",0,36,36,36,1,0,0,,,0,FALSE,,,,,,,,,,,,,,,,,,,,,,,,,,,,,,,
,616c2e23cdae23ccf15ae162,627c6f4f4c8ad494b268f9d8,2022-05-12_04h26.05.370,classification_task,2021.2.3,Win32,48.56726566,627c6715c52fd12f31907bd0,,,,,,,,,,,,,,,,,,,,,,,l,1,2.3306,"[""0.025"",""0.680"",""0.516"",""0.801""]","[1,0,1,1]",0,37,37,37,1,1,0,,,0,FALSE,,,,,,,,,,,,,,,,,,,,,,,,,,,,,,,
,616c2e23cdae23ccf15ae162,627c6f4f4c8ad494b268f9d8,2022-05-12_04h26.05.370,classification_task,2021.2.3,Win32,48.56726566,627c6715c52fd12f31907bd0,,,,,,,,,,,,,,,,,,,,,,,l,1,1.9376,"[""0.114"",""0.242"",""0.424"",""0.755""]","[1,1,0,1]",0,38,38,38,1,1,1,,,0,FALSE,,,,,,,,,,,,,,,,,,,,,,,,,,,,,,,
,616c2e23cdae23ccf15ae162,627c6f4f4c8ad494b268f9d8,2022-05-12_04h26.05.370,classification_task,2021.2.3,Win32,48.56726566,627c6715c52fd12f31907bd0,,,,,,,,,,,,,,,,,,,,,,,a,0,2.1239,"[""0.429"",""0.242"",""0.646"",""0.755""]","[0,1,1,1]",0,39,39,39,1,1,1,,,0,FALSE,,,,,,,,,,,,,,,,,,,,,,,,,,,,,,,
,616c2e23cdae23ccf15ae162,627c6f4f4c8ad494b268f9d8,2022-05-12_04h26.05.370,classification_task,2021.2.3,Win32,48.56726566,627c6715c52fd12f31907bd0,,,,,,,,,,,,,,,,,,,,,,,a,0,1.6038,"[""0.429"",""0.331"",""0.516"",""0.801""]","[0,1,1,1]",0,40,40,40,1,1,0,,,0,FALSE,,,,,,,,,,,,,,,,,,,,,,,,,,,,,,,
,616c2e23cdae23ccf15ae162,627c6f4f4c8ad494b268f9d8,2022-05-12_04h26.05.370,classification_task,2021.2.3,Win32,48.56726566,627c6715c52fd12f31907bd0,,,,,,,,,,,,,,,,,,,,,,,l,1,1.1004,"[""0.025"",""0.331"",""0.516"",""0.705""]","[1,1,1,0]",0,41,41,41,1,1,0,,,0,FALSE,,,,,,,,,,,,,,,,,,,,,,,,,,,,,,,
,616c2e23cdae23ccf15ae162,627c6f4f4c8ad494b268f9d8,2022-05-12_04h26.05.370,classification_task,2021.2.3,Win32,48.56726566,627c6715c52fd12f31907bd0,,,,,,,,,,,,,,,,,,,,,,,l,0,2.5395,"[""0.159"",""0.381"",""0.603"",""0.975""]","[1,0,1,1]",0,42,42,42,1,0,0,,,0,FALSE,,,,,,,,,,,,,,,,,,,,,,,,,,,,,,,
,616c2e23cdae23ccf15ae162,627c6f4f4c8ad494b268f9d8,2022-05-12_04h26.05.370,classification_task,2021.2.3,Win32,48.56726566,627c6715c52fd12f31907bd0,,,,,,,,,,,,,,,,,,,,,,,a,1,2.2305,"[""0.402"",""0.564"",""0.603"",""0.975""]","[0,1,1,1]",0,43,43,43,1,0,0,,,0,FALSE,,,,,,,,,,,,,,,,,,,,,,,,,,,,,,,
,616c2e23cdae23ccf15ae162,627c6f4f4c8ad494b268f9d8,2022-05-12_04h26.05.370,classification_task,2021.2.3,Win32,48.56726566,627c6715c52fd12f31907bd0,,,,,,,,,,,,,,,,,,,,,,,l,0,2.2286,"[""0.159"",""0.564"",""0.424"",""0.975""]","[1,1,0,1]",0,44,44,44,1,0,0,,,0,FALSE,,,,,,,,,,,,,,,,,,,,,,,,,,,,,,,
,616c2e23cdae23ccf15ae162,627c6f4f4c8ad494b268f9d8,2022-05-12_04h26.05.370,classification_task,2021.2.3,Win32,48.56726566,627c6715c52fd12f31907bd0,,,,,,,,,,,,,,,,,,,,,,,l,0,2.3326,"[""0.199"",""0.478"",""0.857"",""0.680""]","[1,1,1,0]",0,45,45,45,1,0,1,,,0,FALSE,,,,,,,,,,,,,,,,,,,,,,,,,,,,,,,
,616c2e23cdae23ccf15ae162,627c6f4f4c8ad494b268f9d8,2022-05-12_04h26.05.370,classification_task,2021.2.3,Win32,48.56726566,627c6715c52fd12f31907bd0,,,,,,,,,,,,,,,,,,,,,,,a,0,2.2707,"[""0.114"",""0.424"",""0.646"",""0.755""]","[1,0,1,1]",0,46,46,46,1,1,1,,,0,FALSE,,,,,,,,,,,,,,,,,,,,,,,,,,,,,,,
,616c2e23cdae23ccf15ae162,627c6f4f4c8ad494b268f9d8,2022-05-12_04h26.05.370,classification_task,2021.2.3,Win32,48.56726566,627c6715c52fd12f31907bd0,,,,,,,,,,,,,,,,,,,,,,,l,1,2.2065,"[""0.114"",""0.242"",""0.646"",""0.381""]","[1,1,1,0]",0,47,47,47,1,1,1,,,0,FALSE,,,,,,,,,,,,,,,,,,,,,,,,,,,,,,,
,616c2e23cdae23ccf15ae162,627c6f4f4c8ad494b268f9d8,2022-05-12_04h26.05.370,classification_task,2021.2.3,Win32,48.56726566,627c6715c52fd12f31907bd0,,,,,,,,,,,,,,,,,,,,,,,l,1,2.5807,"[""0.025"",""0.331"",""0.680"",""0.801""]","[1,1,0,1]",0,48,48,48,1,1,0,,,0,FALSE,,,,,,,,,,,,,,,,,,,,,,,,,,,,,,,
,616c2e23cdae23ccf15ae162,627c6f4f4c8ad494b268f9d8,2022-05-12_04h26.05.370,classification_task,2021.2.3,Win32,48.56726566,627c6715c52fd12f31907bd0,,,,,,,,,,,,,,,,,,,,,,,a,1,2.2279,"[""0.199"",""0.478"",""0.402"",""0.927""]","[1,1,0,1]",0,49,49,49,1,0,1,,,0,FALSE,,,,,,,,,,,,,,,,,,,,,,,,,,,,,,,
,616c2e23cdae23ccf15ae162,627c6f4f4c8ad494b268f9d8,2022-05-12_04h26.05.370,classification_task,2021.2.3,Win32,48.56726566,627c6715c52fd12f31907bd0,,,,,,,,,,,,,,,,,,,,,,,a,1,2.3317,"[""0.680"",""0.564"",""0.603"",""0.975""]","[0,1,1,1]",0,50,50,50,1,0,0,,,0,FALSE,,,,,,,,,,,,,,,,,,,,,,,,,,,,,,,
,616c2e23cdae23ccf15ae162,627c6f4f4c8ad494b268f9d8,2022-05-12_04h26.05.370,classification_task,2021.2.3,Win32,48.56726566,627c6715c52fd12f31907bd0,,,,,,,,,,,,,,,,,,,,,,,a,1,2.1904,"[""0.159"",""0.564"",""0.603"",""0.705""]","[1,1,1,0]",0,51,51,51,1,0,0,,,0,FALSE,,,,,,,,,,,,,,,,,,,,,,,,,,,,,,,
,616c2e23cdae23ccf15ae162,627c6f4f4c8ad494b268f9d8,2022-05-12_04h26.05.370,classification_task,2021.2.3,Win32,48.56726566,627c6715c52fd12f31907bd0,,,,,,,,,,,,,,,,,,,,,,,a,1,2.2727,"[""0.199"",""0.424"",""0.857"",""0.927""]","[1,0,1,1]",0,52,52,52,1,0,1,,,0,FALSE,,,,,,,,,,,,,,,,,,,,,,,,,,,,,,,
,616c2e23cdae23ccf15ae162,627c6f4f4c8ad494b268f9d8,2022-05-12_04h26.05.370,classification_task,2021.2.3,Win32,48.56726566,627c6715c52fd12f31907bd0,,,,,,,,,,,,,,,,,,,,,,,a,1,2.437,"[""0.705"",""0.478"",""0.857"",""0.927""]","[0,1,1,1]",0,53,53,53,1,0,1,,,0,FALSE,,,,,,,,,,,,,,,,,,,,,,,,,,,,,,,
,616c2e23cdae23ccf15ae162,627c6f4f4c8ad494b268f9d8,2022-05-12_04h26.05.370,classification_task,2021.2.3,Win32,48.56726566,627c6715c52fd12f31907bd0,,,,,,,,,,,,,,,,,,,,,,,l,0,2.248,"[""0.199"",""0.478"",""0.857"",""0.075""]","[1,1,1,0]",0,54,54,54,1,0,1,,,0,FALSE,,,,,,,,,,,,,,,,,,,,,,,,,,,,,,,
,616c2e23cdae23ccf15ae162,627c6f4f4c8ad494b268f9d8,2022-05-12_04h26.05.370,classification_task,2021.2.3,Win32,48.56726566,627c6715c52fd12f31907bd0,,,,,,,,,,,,,,,,,,,,,,,l,1,2.1878,"[""0.025"",""0.288"",""0.516"",""0.801""]","[1,0,1,1]",0,55,55,55,1,1,0,,,0,FALSE,,,,,,,,,,,,,,,,,,,,,,,,,,,,,,,
,616c2e23cdae23ccf15ae162,627c6f4f4c8ad494b268f9d8,2022-05-12_04h26.05.370,classification_task,2021.2.3,Win32,48.56726566,627c6715c52fd12f31907bd0,,,,,,,,,,,,,,,,,,,,,,,l,1,2.2901,"[""0.424"",""0.242"",""0.646"",""0.755""]","[0,1,1,1]",0,56,56,56,1,1,1,,,0,FALSE,,,,,,,,,,,,,,,,,,,,,,,,,,,,,,,
,616c2e23cdae23ccf15ae162,627c6f4f4c8ad494b268f9d8,2022-05-12_04h26.05.370,classification_task,2021.2.3,Win32,48.56726566,627c6715c52fd12f31907bd0,,,,,,,,,,,,,,,,,,,,,,,a,0,2.6456,"[""0.401"",""0.331"",""0.516"",""0.801""]","[0,1,1,1]",0,57,57,57,1,1,0,,,0,FALSE,,,,,,,,,,,,,,,,,,,,,,,,,,,,,,,
,616c2e23cdae23ccf15ae162,627c6f4f4c8ad494b268f9d8,2022-05-12_04h26.05.370,classification_task,2021.2.3,Win32,48.56726566,627c6715c52fd12f31907bd0,,,,,,,,,,,,,,,,,,,,,,,l,1,3.2101,"[""0.114"",""0.242"",""0.688"",""0.755""]","[1,1,0,1]",0,58,58,58,1,1,1,,,0,FALSE,,,,,,,,,,,,,,,,,,,,,,,,,,,,,,,
,616c2e23cdae23ccf15ae162,627c6f4f4c8ad494b268f9d8,2022-05-12_04h26.05.370,classification_task,2021.2.3,Win32,48.56726566,627c6715c52fd12f31907bd0,,,,,,,,,,,,,,,,,,,,,,,a,1,3.1453,"[""0.159"",""0.429"",""0.603"",""0.975""]","[1,0,1,1]",0,59,59,59,1,0,0,,,0,FALSE,,,,,,,,,,,,,,,,,,,,,,,,,,,,,,,
,616c2e23cdae23ccf15ae162,627c6f4f4c8ad494b268f9d8,2022-05-12_04h26.05.370,classification_task,2021.2.3,Win32,48.56726566,627c6715c52fd12f31907bd0,,,,,,,,,,,,,,,,,,,,,,,l,0,2.7102,"[""0.159"",""0.564"",""0.682"",""0.975""]","[1,1,0,1]",0,60,60,60,1,0,0,,,0,FALSE,,,,,,,,,,,,,,,,,,,,,,,,,,,,,,,
,616c2e23cdae23ccf15ae162,627c6f4f4c8ad494b268f9d8,2022-05-12_04h26.05.370,classification_task,2021.2.3,Win32,48.56726566,627c6715c52fd12f31907bd0,,,,,,,,,,,,,,,,,,,,,,,a,0,2.6447,"[""0.114"",""0.075"",""0.646"",""0.755""]","[1,0,1,1]",0,61,61,61,1,1,1,,,0,FALSE,,,,,,,,,,,,,,,,,,,,,,,,,,,,,,,
,616c2e23cdae23ccf15ae162,627c6f4f4c8ad494b268f9d8,2022-05-12_04h26.05.370,classification_task,2021.2.3,Win32,48.56726566,627c6715c52fd12f31907bd0,,,,,,,,,,,,,,,,,,,,,,,a,0,2.5627,"[""0.025"",""0.331"",""0.516"",""0.372""]","[1,1,1,0]",0,62,62,62,1,1,0,,,0,FALSE,,,,,,,,,,,,,,,,,,,,,,,,,,,,,,,
,616c2e23cdae23ccf15ae162,627c6f4f4c8ad494b268f9d8,2022-05-12_04h26.05.370,classification_task,2021.2.3,Win32,48.56726566,627c6715c52fd12f31907bd0,,,,,,,,,,,,,,,,,,,,,,,l,1,2.3755,"[""0.114"",""0.242"",""0.646"",""0.401""]","[1,1,1,0]",0,63,63,63,1,1,1,,,0,FALSE,,,,,,,,,,,,,,,,,,,,,,,,,,,,,,,
,616c2e23cdae23ccf15ae162,627c6f4f4c8ad494b268f9d8,2022-05-12_04h26.05.370,classification_task,2021.2.3,Win32,48.56726566,627c6715c52fd12f31907bd0,,,,,,,,,,,,,,,,,,,,,,,,,,,,,,,,,,,,,,,0, ,,0,2.721928277,266.1431,0,2,2,2,1,2,3,,,,,,,,,,,,,,,,,,
,616c2e23cdae23ccf15ae162,627c6f4f4c8ad494b268f9d8,2022-05-12_04h26.05.370,classification_task,2021.2.3,Win32,48.56726566,627c6715c52fd12f31907bd0,,,,,,,,,,,,,,,,,,,,,,,,,,,,,,,,,,,,,,,1,  ,,0,2.74642442,269.1258,0,2,2,2,1,2,3,,,,,,,,,,,,,,,,,,
,616c2e23cdae23ccf15ae162,627c6f4f4c8ad494b268f9d8,2022-05-12_04h26.05.370,classification_task,2021.2.3,Win32,48.56726566,627c6715c52fd12f31907bd0,,,,,,,,,,,,,,,,,,,,,,,,,,,,,,,,,,,,,,,2,  ,,0,10,263.4389,0,2,2,2,1,2,3,,,,,,,,,,,,,,,,,,
,616c2e23cdae23ccf15ae162,627c6f4f4c8ad494b268f9d8,2022-05-12_04h26.05.370,classification_task,2021.2.3,Win32,48.56726566,627c6715c52fd12f31907bd0,,,,,,,,,,,,,,,,,,,,,,,,,,,,,,,,,,,,,,,,,,,,,0,2,2,2,1,,3,,,,,,,,,,,,,,,,,,
,616c2e23cdae23ccf15ae162,627c6f4f4c8ad494b268f9d8,2022-05-12_04h26.05.370,classification_task,2021.2.3,Win32,48.56726566,627c6715c52fd12f31907bd0,,,,,,,,,,,,,,,,,,,,,,,,,,,,,,,,,,,,,,,,,,,,,,,,,,,,,I believe the aid is a competent performer,,0.7,0,5,1471.9785,0,0,0,0,1,0,,,,,
,616c2e23cdae23ccf15ae162,627c6f4f4c8ad494b268f9d8,2022-05-12_04h26.05.370,classification_task,2021.2.3,Win32,48.56726566,627c6715c52fd12f31907bd0,,,,,,,,,,,,,,,,,,,,,,,,,,,,,,,,,,,,,,,,,,,,,,,,,,,,,I trust the aid,,0.7,0,5,1466.8843,0,0,0,0,1,0,,,,,
,616c2e23cdae23ccf15ae162,627c6f4f4c8ad494b268f9d8,2022-05-12_04h26.05.370,classification_task,2021.2.3,Win32,48.56726566,627c6715c52fd12f31907bd0,,,,,,,,,,,,,,,,,,,,,,,,,,,,,,,,,,,,,,,,,,,,,,,,,,,,,I have confidence in the advice given by the aid,,0.7,0,5,1473.5059,0,0,0,0,1,0,,,,,
,616c2e23cdae23ccf15ae162,627c6f4f4c8ad494b268f9d8,2022-05-12_04h26.05.370,classification_task,2021.2.3,Win32,48.56726566,627c6715c52fd12f31907bd0,,,,,,,,,,,,,,,,,,,,,,,,,,,,,,,,,,,,,,,,,,,,,,,,,,,,,I can depend on the aid,,0.7,0,5,1475.4407,0,0,0,0,1,0,,,,,
,616c2e23cdae23ccf15ae162,627c6f4f4c8ad494b268f9d8,2022-05-12_04h26.05.370,classification_task,2021.2.3,Win32,48.56726566,627c6715c52fd12f31907bd0,,,,,,,,,,,,,,,,,,,,,,,,,,,,,,,,,,,,,,,,,,,,,,,,,,,,,I can rely on the aid to behave in consistent ways,,0.7,0,5,1479.6054,0,0,0,0,1,0,,,,,
,616c2e23cdae23ccf15ae162,627c6f4f4c8ad494b268f9d8,2022-05-12_04h26.05.370,classification_task,2021.2.3,Win32,48.56726566,627c6715c52fd12f31907bd0,,,,,,,,,,,,,,,,,,,,,,,,,,,,,,,,,,,,,,,,,,,,,,,,,,,,,I can rely on the aid to do its best every time I take its advice,,0.7,0,5,1485.8641,0,0,0,0,1,0,,,,,
,616c2e23cdae23ccf15ae162,627c6f4f4c8ad494b268f9d8,2022-05-12_04h26.05.370,classification_task,2021.2.3,Win32,48.56726566,627c6715c52fd12f31907bd0,,,,,,,,,,,,,,,,,,,,,,,,,,,,,,,,,,,,,,,,,,,,,,,,,,,,,"On trials you completed with assistance from the aid, how frequently did you think the aid was correct?",,0.7,0,99%,,0,0,0,0,1,0,,,,,
,616c2e23cdae23ccf15ae162,627c6f4f4c8ad494b268f9d8,2022-05-12_04h26.05.370,classification_task,2021.2.3,Win32,48.56726566,627c6715c52fd12f31907bd0,,,,,,,,,,,,,,,,,,,,,,,,,,,,,,,,,,,,,,,,,,,,,,,,,,,,,"On trials you completed without the aid, how frequently did you think you were correct?",,0.7,0,30%,,0,0,0,0,1,0,,,,,
,616c2e23cdae23ccf15ae162,627c6f4f4c8ad494b268f9d8,2022-05-12_04h26.05.370,classification_task,2021.2.3,Win32,48.56726566,627c6715c52fd12f31907bd0,,,,,,,,,,,,,,,,,,,,,,,,,,,,,,,,,,,,,,,,,,,,,,,,,,,,,,,,,,,0,0,0,0,1,,,,,,
,616c2e23cdae23ccf15ae162,627c6f4f4c8ad494b268f9d8,2022-05-12_04h26.05.370,classification_task,2021.2.3,Win32,48.56726566,627c6715c52fd12f31907bd0,,,,,,,,,,,,,,,,,,,,,,,,,,,,,,,,,,,,,,,,,,,,,,,,,,,,,,,,,,,,,,,,,space,13.7348,1533.1904,,
,616c2e23cdae23ccf15ae162,627c6f4f4c8ad494b268f9d8,2022-05-12_04h26.05.370,classification_task,2021.2.3,Win32,48.56726566,627c6715c52fd12f31907bd0,,,,,,,,,,,,,,,,,,,,,,,,,,,,,,,,,,,,,,,,,,,,,,,,,,,,,,,,,,,,,,,,,,,,"Mozilla/5.0 (Windows NT 10.0; Win64; x64) AppleWebKit/537.36 (KHTML, like Gecko) Chrome/97.0.4692.71 Safari/537.36",
,616c2e23cdae23ccf15ae162,627c6f4f4c8ad494b268f9d8,2022-05-12_04h26.05.370,classification_task,2021.2.3,Win32,48.56726566,627c6715c52fd12f31907bd0,,,,,,,,,,,,,,,,,,,,,,,,,,,,,,,,,,,,,,,,,,,,,,,,,,,,,,,,,,,,,,,,,,,,,FADING
