usingWebGL,participant,session,date,expName,psychopyVersion,OS,frameRate,study_id,signatures_friend,signatures_foe,band_ranges_top,band_ranges_bottom,formitemText,formtype,formundefined,formitemWidth,formindex,formresponse,formrt,key_resp_2.keys,key_resp_2.rt,tute_resp.keys,tute_resp.rt,tutorial.thisRepN,tutorial.thisTrialN,tutorial.thisN,tutorial.thisIndex,tutorial.ran,key_resp_4.keys,key_resp_4.rt,key_resp.keys,key_resp.corr,lines_presented,is_signal_presented,trials.thisRepN,trials.thisTrialN,trials.thisN,trials.thisIndex,trials.ran,vessel,active_band,lines,is_signal,supported_pos,catch_trial,key_resp.rt,debrief_formindex,debrief_formitemText,debrief_formtype,debrief_formitemWidth,debrief_formresponse,debrief_formrt,phases.thisRepN,phases.thisTrialN,phases.thisN,phases.thisIndex,phases.ran,phases.order,phase,key_resp_3.keys,trustitemText,trusttype,trustitemWidth,trustindex,trustresponse,trustrt,support_status.thisRepN,support_status.thisTrialN,support_status.thisN,support_status.thisIndex,support_status.ran,support_status.order,key_resp_5.keys,key_resp_5.rt,globalClockTime,userAgent,manualCondition
TRUE,616de7dd58e50154fe8baf24,627c6f69c4e16c9551ae7513,2022-05-11_19h29.40.861,classification_task,2021.2.3,Win32,59.79788315,627c6715c52fd12f31907bcf,,,,,,,,,,,,,,,,,,,,,,,,,,,,,,,,,,,,,,,,,,,,,,,,,,,,,,,,,,,,,,,,,,,,,
,616de7dd58e50154fe8baf24,627c6f69c4e16c9551ae7513,2022-05-11_19h29.40.861,classification_task,2021.2.3,Win32,59.79788315,627c6715c52fd12f31907bcf,"[[""0.216"",""0.432"",""0.879"",""0.951""],[""0.324"",""0.398"",""0.597"",""0.917""]]","[[""0.101"",""0.252"",""0.550"",""0.761""],[""0.047"",""0.164"",""0.469"",""0.832""]]","[1,10]","[100,1000]",Video game experience,,,0.7,0,,,,,,,,,,,,,,,,,,,,,,,,,,,,,,,,,,,,,,,,,,,,,,,,,,,,,,,,,,,,
,616de7dd58e50154fe8baf24,627c6f69c4e16c9551ae7513,2022-05-11_19h29.40.861,classification_task,2021.2.3,Win32,59.79788315,627c6715c52fd12f31907bcf,,,,,Approximately how many hours did you spend playing video games in the last week?,,,0.7,0,10,,,,,,,,,,,,,,,,,,,,,,,,,,,,,,,,,,,,,,,,,,,,,,,,,,,,,,,,,,,
,616de7dd58e50154fe8baf24,627c6f69c4e16c9551ae7513,2022-05-11_19h29.40.861,classification_task,2021.2.3,Win32,59.79788315,627c6715c52fd12f31907bcf,,,,,"Which game did you play the most this year? (Enter ""None"" if you didn't play any)",,,0.7,0,League of Legends,,,,,,,,,,,,,,,,,,,,,,,,,,,,,,,,,,,,,,,,,,,,,,,,,,,,,,,,,,,
,616de7dd58e50154fe8baf24,627c6f69c4e16c9551ae7513,2022-05-11_19h29.40.861,classification_task,2021.2.3,Win32,59.79788315,627c6715c52fd12f31907bcf,,,,,Visual perception,,,0.7,0,,,,,,,,,,,,,,,,,,,,,,,,,,,,,,,,,,,,,,,,,,,,,,,,,,,,,,,,,,,,
,616de7dd58e50154fe8baf24,627c6f69c4e16c9551ae7513,2022-05-11_19h29.40.861,classification_task,2021.2.3,Win32,59.79788315,627c6715c52fd12f31907bcf,,,,,Do you have any form of color blindness?,,,0.7,0,No,14.842,,,,,,,,,,,,,,,,,,,,,,,,,,,,,,,,,,,,,,,,,,,,,,,,,,,,,,,,,,
,616de7dd58e50154fe8baf24,627c6f69c4e16c9551ae7513,2022-05-11_19h29.40.861,classification_task,2021.2.3,Win32,59.79788315,627c6715c52fd12f31907bcf,,,,,Do you use software to change the colour temperature of your screen (e.g. f.lux)?,,,0.7,0,Yes,21.4204,,,,,,,,,,,,,,,,,,,,,,,,,,,,,,,,,,,,,,,,,,,,,,,,,,,,,,,,,,
,616de7dd58e50154fe8baf24,627c6f69c4e16c9551ae7513,2022-05-11_19h29.40.861,classification_task,2021.2.3,Win32,59.79788315,627c6715c52fd12f31907bcf,,,,,,,,,,,,space,13.8523,space,9.2941,0,0,0,0,1,,,,,,,,,,,,,,,,,,,,,,,,,,,,,,,,,,,,,,,,,,,,,,,,,
,616de7dd58e50154fe8baf24,627c6f69c4e16c9551ae7513,2022-05-11_19h29.40.861,classification_task,2021.2.3,Win32,59.79788315,627c6715c52fd12f31907bcf,,,,,,,,,,,,,,space,10.9986,1,0,1,0,1,,,,,,,,,,,,,,,,,,,,,,,,,,,,,,,,,,,,,,,,,,,,,,,,,
,616de7dd58e50154fe8baf24,627c6f69c4e16c9551ae7513,2022-05-11_19h29.40.861,classification_task,2021.2.3,Win32,59.79788315,627c6715c52fd12f31907bcf,,,,,,,,,,,,,,space,23.8722,2,0,2,0,1,,,,,,,,,,,,,,,,,,,,,,,,,,,,,,,,,,,,,,,,,,,,,,,,,
,616de7dd58e50154fe8baf24,627c6f69c4e16c9551ae7513,2022-05-11_19h29.40.861,classification_task,2021.2.3,Win32,59.79788315,627c6715c52fd12f31907bcf,,,,,,,,,,,,,,space,24.2105,3,0,3,0,1,,,,,,,,,,,,,,,,,,,,,,,,,,,,,,,,,,,,,,,,,,,,,,,,,
,616de7dd58e50154fe8baf24,627c6f69c4e16c9551ae7513,2022-05-11_19h29.40.861,classification_task,2021.2.3,Win32,59.79788315,627c6715c52fd12f31907bcf,,,,,,,,,,,,,,space,12.6982,4,0,4,0,1,,,,,,,,,,,,,,,,,,,,,,,,,,,,,,,,,,,,,,,,,,,,,,,,,
,616de7dd58e50154fe8baf24,627c6f69c4e16c9551ae7513,2022-05-11_19h29.40.861,classification_task,2021.2.3,Win32,59.79788315,627c6715c52fd12f31907bcf,,,,,,,,,,,,,,,,,,,,,space,5.8275,,0,"[""0.652"",""0.252"",""0.550"",""0.761""]","[0,1,1,1]",0,0,0,0,1,1,0,,,1,FALSE,,,,,,,,,,,,,,,,,,,,,,,,,,,,,,,,
,616de7dd58e50154fe8baf24,627c6f69c4e16c9551ae7513,2022-05-11_19h29.40.861,classification_task,2021.2.3,Win32,59.79788315,627c6715c52fd12f31907bcf,,,,,,,,,,,,,,,,,,,,,,,l,1,"[""0.649"",""0.164"",""0.469"",""0.832""]","[0,1,1,1]",0,1,1,1,1,1,1,,,1,FALSE,3.5407,,,,,,,,,,,,,,,,,,,,,,,,,,,,,,,
,616de7dd58e50154fe8baf24,627c6f69c4e16c9551ae7513,2022-05-11_19h29.40.861,classification_task,2021.2.3,Win32,59.79788315,627c6715c52fd12f31907bcf,,,,,,,,,,,,,,,,,,,,,,,a,1,"[""0.216"",""0.432"",""0.650"",""0.951""]","[1,1,0,1]",0,2,2,2,1,0,0,,,1,FALSE,3.4536,,,,,,,,,,,,,,,,,,,,,,,,,,,,,,,
,616de7dd58e50154fe8baf24,627c6f69c4e16c9551ae7513,2022-05-11_19h29.40.861,classification_task,2021.2.3,Win32,59.79788315,627c6715c52fd12f31907bcf,,,,,,,,,,,,,,,,,,,,,,,a,1,"[""0.324"",""0.398"",""0.650"",""0.917""]","[1,1,0,1]",0,3,3,3,1,0,1,,,1,FALSE,3.6673,,,,,,,,,,,,,,,,,,,,,,,,,,,,,,,
,616de7dd58e50154fe8baf24,627c6f69c4e16c9551ae7513,2022-05-11_19h29.40.861,classification_task,2021.2.3,Win32,59.79788315,627c6715c52fd12f31907bcf,,,,,,,,,,,,,,,,,,,,,,,l,1,"[""0.101"",""0.252"",""0.287"",""0.761""]","[1,1,0,1]",0,4,4,4,1,1,0,,,1,FALSE,2.8173,,,,,,,,,,,,,,,,,,,,,,,,,,,,,,,
,616de7dd58e50154fe8baf24,627c6f69c4e16c9551ae7513,2022-05-11_19h29.40.861,classification_task,2021.2.3,Win32,59.79788315,627c6715c52fd12f31907bcf,,,,,,,,,,,,,,,,,,,,,,,l,0,"[""0.360"",""0.398"",""0.597"",""0.917""]","[0,1,1,1]",0,5,5,5,1,0,1,,,1,FALSE,3.0388,,,,,,,,,,,,,,,,,,,,,,,,,,,,,,,
,616de7dd58e50154fe8baf24,627c6f69c4e16c9551ae7513,2022-05-11_19h29.40.861,classification_task,2021.2.3,Win32,59.79788315,627c6715c52fd12f31907bcf,,,,,,,,,,,,,,,,,,,,,,,l,0,"[""0.650"",""0.432"",""0.879"",""0.951""]","[0,1,1,1]",0,6,6,6,1,0,0,,,1,FALSE,2.8903,,,,,,,,,,,,,,,,,,,,,,,,,,,,,,,
,616de7dd58e50154fe8baf24,627c6f69c4e16c9551ae7513,2022-05-11_19h29.40.861,classification_task,2021.2.3,Win32,59.79788315,627c6715c52fd12f31907bcf,,,,,,,,,,,,,,,,,,,,,,,a,1,"[""0.324"",""0.645"",""0.597"",""0.917""]","[1,0,1,1]",0,7,7,7,1,0,1,,,1,FALSE,4.2349,,,,,,,,,,,,,,,,,,,,,,,,,,,,,,,
,616de7dd58e50154fe8baf24,627c6f69c4e16c9551ae7513,2022-05-11_19h29.40.861,classification_task,2021.2.3,Win32,59.79788315,627c6715c52fd12f31907bcf,,,,,,,,,,,,,,,,,,,,,,,l,1,"[""0.047"",""0.287"",""0.469"",""0.832""]","[1,0,1,1]",0,8,8,8,1,1,1,,,1,FALSE,2.0289,,,,,,,,,,,,,,,,,,,,,,,,,,,,,,,
,616de7dd58e50154fe8baf24,627c6f69c4e16c9551ae7513,2022-05-11_19h29.40.861,classification_task,2021.2.3,Win32,59.79788315,627c6715c52fd12f31907bcf,,,,,,,,,,,,,,,,,,,,,,,l,1,"[""0.101"",""0.252"",""0.550"",""0.674""]","[1,1,1,0]",0,9,9,9,1,1,0,,,1,FALSE,3.6134,,,,,,,,,,,,,,,,,,,,,,,,,,,,,,,
,616de7dd58e50154fe8baf24,627c6f69c4e16c9551ae7513,2022-05-11_19h29.40.861,classification_task,2021.2.3,Win32,59.79788315,627c6715c52fd12f31907bcf,,,,,,,,,,,,,,,,,,,,,,,l,0,"[""0.216"",""0.357"",""0.879"",""0.951""]","[1,0,1,1]",0,10,10,10,1,0,0,,,1,FALSE,3.8654,,,,,,,,,,,,,,,,,,,,,,,,,,,,,,,
,616de7dd58e50154fe8baf24,627c6f69c4e16c9551ae7513,2022-05-11_19h29.40.861,classification_task,2021.2.3,Win32,59.79788315,627c6715c52fd12f31907bcf,,,,,,,,,,,,,,,,,,,,,,,l,1,"[""0.047"",""0.164"",""0.642"",""0.832""]","[1,1,0,1]",0,11,11,11,1,1,1,,,1,FALSE,2.1609,,,,,,,,,,,,,,,,,,,,,,,,,,,,,,,
,616de7dd58e50154fe8baf24,627c6f69c4e16c9551ae7513,2022-05-11_19h29.40.861,classification_task,2021.2.3,Win32,59.79788315,627c6715c52fd12f31907bcf,,,,,,,,,,,,,,,,,,,,,,,a,1,"[""0.216"",""0.432"",""0.879"",""0.357""]","[1,1,1,0]",0,12,12,12,1,0,0,,,1,FALSE,6.9059,,,,,,,,,,,,,,,,,,,,,,,,,,,,,,,
,616de7dd58e50154fe8baf24,627c6f69c4e16c9551ae7513,2022-05-11_19h29.40.861,classification_task,2021.2.3,Win32,59.79788315,627c6715c52fd12f31907bcf,,,,,,,,,,,,,,,,,,,,,,,a,1,"[""0.324"",""0.398"",""0.597"",""0.644""]","[1,1,1,0]",0,13,13,13,1,0,1,,,1,FALSE,3.4021,,,,,,,,,,,,,,,,,,,,,,,,,,,,,,,
,616de7dd58e50154fe8baf24,627c6f69c4e16c9551ae7513,2022-05-11_19h29.40.861,classification_task,2021.2.3,Win32,59.79788315,627c6715c52fd12f31907bcf,,,,,,,,,,,,,,,,,,,,,,,l,1,"[""0.047"",""0.164"",""0.469"",""0.644""]","[1,1,1,0]",0,14,14,14,1,1,1,,,1,FALSE,3.5779,,,,,,,,,,,,,,,,,,,,,,,,,,,,,,,
,616de7dd58e50154fe8baf24,627c6f69c4e16c9551ae7513,2022-05-11_19h29.40.861,classification_task,2021.2.3,Win32,59.79788315,627c6715c52fd12f31907bcf,,,,,,,,,,,,,,,,,,,,,,,l,1,"[""0.101"",""0.360"",""0.550"",""0.761""]","[1,0,1,1]",0,15,15,15,1,1,0,,,1,FALSE,4.6901,,,,,,,,,,,,,,,,,,,,,,,,,,,,,,,
,616de7dd58e50154fe8baf24,627c6f69c4e16c9551ae7513,2022-05-11_19h29.40.861,classification_task,2021.2.3,Win32,59.79788315,627c6715c52fd12f31907bcf,,,,,,,,,,,,,,,,,,,,,,,a,1,"[""0.216"",""0.432"",""0.644"",""0.951""]","[1,1,0,1]",0,16,16,16,1,0,0,,,1,FALSE,2.4423,,,,,,,,,,,,,,,,,,,,,,,,,,,,,,,
,616de7dd58e50154fe8baf24,627c6f69c4e16c9551ae7513,2022-05-11_19h29.40.861,classification_task,2021.2.3,Win32,59.79788315,627c6715c52fd12f31907bcf,,,,,,,,,,,,,,,,,,,,,,,l,1,"[""0.101"",""0.252"",""0.360"",""0.761""]","[1,1,0,1]",0,17,17,17,1,1,0,,,1,FALSE,2.8827,,,,,,,,,,,,,,,,,,,,,,,,,,,,,,,
,616de7dd58e50154fe8baf24,627c6f69c4e16c9551ae7513,2022-05-11_19h29.40.861,classification_task,2021.2.3,Win32,59.79788315,627c6715c52fd12f31907bcf,,,,,,,,,,,,,,,,,,,,,,,l,1,"[""0.644"",""0.252"",""0.550"",""0.761""]","[0,1,1,1]",0,18,18,18,1,1,0,,,1,FALSE,3.1633,,,,,,,,,,,,,,,,,,,,,,,,,,,,,,,
,616de7dd58e50154fe8baf24,627c6f69c4e16c9551ae7513,2022-05-11_19h29.40.861,classification_task,2021.2.3,Win32,59.79788315,627c6715c52fd12f31907bcf,,,,,,,,,,,,,,,,,,,,,,,a,1,"[""0.216"",""0.432"",""0.879"",""0.360""]","[1,1,1,0]",0,19,19,19,1,0,0,,,1,FALSE,1.3691,,,,,,,,,,,,,,,,,,,,,,,,,,,,,,,
,616de7dd58e50154fe8baf24,627c6f69c4e16c9551ae7513,2022-05-11_19h29.40.861,classification_task,2021.2.3,Win32,59.79788315,627c6715c52fd12f31907bcf,,,,,,,,,,,,,,,,,,,,,,,a,1,"[""0.324"",""0.398"",""0.642"",""0.917""]","[1,1,0,1]",0,20,20,20,1,0,1,,,1,FALSE,2.0151,,,,,,,,,,,,,,,,,,,,,,,,,,,,,,,
,616de7dd58e50154fe8baf24,627c6f69c4e16c9551ae7513,2022-05-11_19h29.40.861,classification_task,2021.2.3,Win32,59.79788315,627c6715c52fd12f31907bcf,,,,,,,,,,,,,,,,,,,,,,,l,1,"[""0.667"",""0.164"",""0.469"",""0.832""]","[0,1,1,1]",0,21,21,21,1,1,1,,,1,FALSE,1.9567,,,,,,,,,,,,,,,,,,,,,,,,,,,,,,,
,616de7dd58e50154fe8baf24,627c6f69c4e16c9551ae7513,2022-05-11_19h29.40.861,classification_task,2021.2.3,Win32,59.79788315,627c6715c52fd12f31907bcf,,,,,,,,,,,,,,,,,,,,,,,l,1,"[""0.101"",""0.714"",""0.550"",""0.761""]","[1,0,1,1]",0,22,22,22,1,1,0,,,1,FALSE,2.0784,,,,,,,,,,,,,,,,,,,,,,,,,,,,,,,
,616de7dd58e50154fe8baf24,627c6f69c4e16c9551ae7513,2022-05-11_19h29.40.861,classification_task,2021.2.3,Win32,59.79788315,627c6715c52fd12f31907bcf,,,,,,,,,,,,,,,,,,,,,,,a,1,"[""0.324"",""0.398"",""0.597"",""0.504""]","[1,1,1,0]",0,23,23,23,1,0,1,,,1,FALSE,1.6541,,,,,,,,,,,,,,,,,,,,,,,,,,,,,,,
,616de7dd58e50154fe8baf24,627c6f69c4e16c9551ae7513,2022-05-11_19h29.40.861,classification_task,2021.2.3,Win32,59.79788315,627c6715c52fd12f31907bcf,,,,,,,,,,,,,,,,,,,,,,,l,0,"[""0.710"",""0.432"",""0.879"",""0.951""]","[0,1,1,1]",0,24,24,24,1,0,0,,,1,FALSE,1.9408,,,,,,,,,,,,,,,,,,,,,,,,,,,,,,,
,616de7dd58e50154fe8baf24,627c6f69c4e16c9551ae7513,2022-05-11_19h29.40.861,classification_task,2021.2.3,Win32,59.79788315,627c6715c52fd12f31907bcf,,,,,,,,,,,,,,,,,,,,,,,l,1,"[""0.047"",""0.164"",""0.469"",""0.645""]","[1,1,1,0]",0,25,25,25,1,1,1,,,1,FALSE,2.0867,,,,,,,,,,,,,,,,,,,,,,,,,,,,,,,
,616de7dd58e50154fe8baf24,627c6f69c4e16c9551ae7513,2022-05-11_19h29.40.861,classification_task,2021.2.3,Win32,59.79788315,627c6715c52fd12f31907bcf,,,,,,,,,,,,,,,,,,,,,,,a,1,"[""0.216"",""0.360"",""0.879"",""0.951""]","[1,0,1,1]",0,26,26,26,1,0,0,,,1,FALSE,1.7585,,,,,,,,,,,,,,,,,,,,,,,,,,,,,,,
,616de7dd58e50154fe8baf24,627c6f69c4e16c9551ae7513,2022-05-11_19h29.40.861,classification_task,2021.2.3,Win32,59.79788315,627c6715c52fd12f31907bcf,,,,,,,,,,,,,,,,,,,,,,,l,1,"[""0.047"",""0.164"",""0.714"",""0.832""]","[1,1,0,1]",0,27,27,27,1,1,1,,,1,FALSE,3.4855,,,,,,,,,,,,,,,,,,,,,,,,,,,,,,,
,616de7dd58e50154fe8baf24,627c6f69c4e16c9551ae7513,2022-05-11_19h29.40.861,classification_task,2021.2.3,Win32,59.79788315,627c6715c52fd12f31907bcf,,,,,,,,,,,,,,,,,,,,,,,a,1,"[""0.324"",""0.710"",""0.597"",""0.917""]","[1,0,1,1]",0,28,28,28,1,0,1,,,1,FALSE,1.8286,,,,,,,,,,,,,,,,,,,,,,,,,,,,,,,
,616de7dd58e50154fe8baf24,627c6f69c4e16c9551ae7513,2022-05-11_19h29.40.861,classification_task,2021.2.3,Win32,59.79788315,627c6715c52fd12f31907bcf,,,,,,,,,,,,,,,,,,,,,,,l,0,"[""0.645"",""0.398"",""0.597"",""0.917""]","[0,1,1,1]",0,29,29,29,1,0,1,,,1,FALSE,1.9963,,,,,,,,,,,,,,,,,,,,,,,,,,,,,,,
,616de7dd58e50154fe8baf24,627c6f69c4e16c9551ae7513,2022-05-11_19h29.40.861,classification_task,2021.2.3,Win32,59.79788315,627c6715c52fd12f31907bcf,,,,,,,,,,,,,,,,,,,,,,,l,1,"[""0.101"",""0.252"",""0.550"",""0.649""]","[1,1,1,0]",0,30,30,30,1,1,0,,,1,FALSE,2.5156,,,,,,,,,,,,,,,,,,,,,,,,,,,,,,,
,616de7dd58e50154fe8baf24,627c6f69c4e16c9551ae7513,2022-05-11_19h29.40.861,classification_task,2021.2.3,Win32,59.79788315,627c6715c52fd12f31907bcf,,,,,,,,,,,,,,,,,,,,,,,l,1,"[""0.047"",""0.710"",""0.469"",""0.832""]","[1,0,1,1]",0,31,31,31,1,1,1,,,1,FALSE,1.8247,,,,,,,,,,,,,,,,,,,,,,,,,,,,,,,
,616de7dd58e50154fe8baf24,627c6f69c4e16c9551ae7513,2022-05-11_19h29.40.861,classification_task,2021.2.3,Win32,59.79788315,627c6715c52fd12f31907bcf,,,,,,,,,,,,,,,,,,,,,,,a,0,"[""0.650"",""0.164"",""0.469"",""0.832""]","[0,1,1,1]",0,32,32,32,1,1,1,,,1,FALSE,3.0241,,,,,,,,,,,,,,,,,,,,,,,,,,,,,,,
,616de7dd58e50154fe8baf24,627c6f69c4e16c9551ae7513,2022-05-11_19h29.40.861,classification_task,2021.2.3,Win32,59.79788315,627c6715c52fd12f31907bcf,,,,,,,,,,,,,,,,,,,,,,,a,1,"[""0.216"",""0.432"",""0.360"",""0.951""]","[1,1,0,1]",0,33,33,33,1,0,0,,,1,FALSE,2.2653,,,,,,,,,,,,,,,,,,,,,,,,,,,,,,,
,616de7dd58e50154fe8baf24,627c6f69c4e16c9551ae7513,2022-05-11_19h29.40.861,classification_task,2021.2.3,Win32,59.79788315,627c6715c52fd12f31907bcf,,,,,,,,,,,,,,,,,,,,,,,a,1,"[""0.216"",""0.432"",""0.879"",""0.650""]","[1,1,1,0]",0,34,34,34,1,0,0,,,1,FALSE,1.142,,,,,,,,,,,,,,,,,,,,,,,,,,,,,,,
,616de7dd58e50154fe8baf24,627c6f69c4e16c9551ae7513,2022-05-11_19h29.40.861,classification_task,2021.2.3,Win32,59.79788315,627c6715c52fd12f31907bcf,,,,,,,,,,,,,,,,,,,,,,,l,0,"[""0.324"",""0.398"",""0.504"",""0.917""]","[1,1,0,1]",0,35,35,35,1,0,1,,,1,FALSE,1.7931,,,,,,,,,,,,,,,,,,,,,,,,,,,,,,,
,616de7dd58e50154fe8baf24,627c6f69c4e16c9551ae7513,2022-05-11_19h29.40.861,classification_task,2021.2.3,Win32,59.79788315,627c6715c52fd12f31907bcf,,,,,,,,,,,,,,,,,,,,,,,l,1,"[""0.504"",""0.252"",""0.550"",""0.761""]","[0,1,1,1]",0,36,36,36,1,1,0,,,1,FALSE,2.1107,,,,,,,,,,,,,,,,,,,,,,,,,,,,,,,
,616de7dd58e50154fe8baf24,627c6f69c4e16c9551ae7513,2022-05-11_19h29.40.861,classification_task,2021.2.3,Win32,59.79788315,627c6715c52fd12f31907bcf,,,,,,,,,,,,,,,,,,,,,,,a,0,"[""0.047"",""0.164"",""0.469"",""0.645""]","[1,1,1,0]",0,37,37,37,1,1,1,,,1,FALSE,1.4396,,,,,,,,,,,,,,,,,,,,,,,,,,,,,,,
,616de7dd58e50154fe8baf24,627c6f69c4e16c9551ae7513,2022-05-11_19h29.40.861,classification_task,2021.2.3,Win32,59.79788315,627c6715c52fd12f31907bcf,,,,,,,,,,,,,,,,,,,,,,,a,1,"[""0.324"",""0.398"",""0.597"",""0.644""]","[1,1,1,0]",0,38,38,38,1,0,1,,,1,FALSE,0.9371,,,,,,,,,,,,,,,,,,,,,,,,,,,,,,,
,616de7dd58e50154fe8baf24,627c6f69c4e16c9551ae7513,2022-05-11_19h29.40.861,classification_task,2021.2.3,Win32,59.79788315,627c6715c52fd12f31907bcf,,,,,,,,,,,,,,,,,,,,,,,l,1,"[""0.047"",""0.164"",""0.674"",""0.832""]","[1,1,0,1]",0,39,39,39,1,1,1,,,1,FALSE,1.2125,,,,,,,,,,,,,,,,,,,,,,,,,,,,,,,
,616de7dd58e50154fe8baf24,627c6f69c4e16c9551ae7513,2022-05-11_19h29.40.861,classification_task,2021.2.3,Win32,59.79788315,627c6715c52fd12f31907bcf,,,,,,,,,,,,,,,,,,,,,,,a,1,"[""0.324"",""0.652"",""0.597"",""0.917""]","[1,0,1,1]",0,40,40,40,1,0,1,,,1,FALSE,1.147,,,,,,,,,,,,,,,,,,,,,,,,,,,,,,,
,616de7dd58e50154fe8baf24,627c6f69c4e16c9551ae7513,2022-05-11_19h29.40.861,classification_task,2021.2.3,Win32,59.79788315,627c6715c52fd12f31907bcf,,,,,,,,,,,,,,,,,,,,,,,a,1,"[""0.714"",""0.398"",""0.597"",""0.917""]","[0,1,1,1]",0,41,41,41,1,0,1,,,1,FALSE,1.2988,,,,,,,,,,,,,,,,,,,,,,,,,,,,,,,
,616de7dd58e50154fe8baf24,627c6f69c4e16c9551ae7513,2022-05-11_19h29.40.861,classification_task,2021.2.3,Win32,59.79788315,627c6715c52fd12f31907bcf,,,,,,,,,,,,,,,,,,,,,,,l,0,"[""0.645"",""0.432"",""0.879"",""0.951""]","[0,1,1,1]",0,42,42,42,1,0,0,,,1,FALSE,0.9436,,,,,,,,,,,,,,,,,,,,,,,,,,,,,,,
,616de7dd58e50154fe8baf24,627c6f69c4e16c9551ae7513,2022-05-11_19h29.40.861,classification_task,2021.2.3,Win32,59.79788315,627c6715c52fd12f31907bcf,,,,,,,,,,,,,,,,,,,,,,,l,1,"[""0.101"",""0.252"",""0.357"",""0.761""]","[1,1,0,1]",0,43,43,43,1,1,0,,,1,FALSE,1.8474,,,,,,,,,,,,,,,,,,,,,,,,,,,,,,,
,616de7dd58e50154fe8baf24,627c6f69c4e16c9551ae7513,2022-05-11_19h29.40.861,classification_task,2021.2.3,Win32,59.79788315,627c6715c52fd12f31907bcf,,,,,,,,,,,,,,,,,,,,,,,l,1,"[""0.047"",""0.652"",""0.469"",""0.832""]","[1,0,1,1]",0,44,44,44,1,1,1,,,1,FALSE,1.9829,,,,,,,,,,,,,,,,,,,,,,,,,,,,,,,
,616de7dd58e50154fe8baf24,627c6f69c4e16c9551ae7513,2022-05-11_19h29.40.861,classification_task,2021.2.3,Win32,59.79788315,627c6715c52fd12f31907bcf,,,,,,,,,,,,,,,,,,,,,,,l,1,"[""0.101"",""0.252"",""0.550"",""0.650""]","[1,1,1,0]",0,45,45,45,1,1,0,,,1,FALSE,1.4573,,,,,,,,,,,,,,,,,,,,,,,,,,,,,,,
,616de7dd58e50154fe8baf24,627c6f69c4e16c9551ae7513,2022-05-11_19h29.40.861,classification_task,2021.2.3,Win32,59.79788315,627c6715c52fd12f31907bcf,,,,,,,,,,,,,,,,,,,,,,,a,1,"[""0.216"",""0.357"",""0.879"",""0.951""]","[1,0,1,1]",0,46,46,46,1,0,0,,,1,FALSE,0.9069,,,,,,,,,,,,,,,,,,,,,,,,,,,,,,,
,616de7dd58e50154fe8baf24,627c6f69c4e16c9551ae7513,2022-05-11_19h29.40.861,classification_task,2021.2.3,Win32,59.79788315,627c6715c52fd12f31907bcf,,,,,,,,,,,,,,,,,,,,,,,l,1,"[""0.101"",""0.674"",""0.550"",""0.761""]","[1,0,1,1]",0,47,47,47,1,1,0,,,1,FALSE,3.0736,,,,,,,,,,,,,,,,,,,,,,,,,,,,,,,
,616de7dd58e50154fe8baf24,627c6f69c4e16c9551ae7513,2022-05-11_19h29.40.861,classification_task,2021.2.3,Win32,59.79788315,627c6715c52fd12f31907bcf,,,,,,,,,,,,,,,,,,,,,,,a,0,"[""0.101"",""0.252"",""0.550"",""0.645""]","[1,1,1,0]",0,48,48,48,1,1,0,,,1,FALSE,1.2392,,,,,,,,,,,,,,,,,,,,,,,,,,,,,,,
,616de7dd58e50154fe8baf24,627c6f69c4e16c9551ae7513,2022-05-11_19h29.40.861,classification_task,2021.2.3,Win32,59.79788315,627c6715c52fd12f31907bcf,,,,,,,,,,,,,,,,,,,,,,,l,0,"[""0.642"",""0.398"",""0.597"",""0.917""]","[0,1,1,1]",0,49,49,49,1,0,1,,,1,FALSE,1.1804,,,,,,,,,,,,,,,,,,,,,,,,,,,,,,,
,616de7dd58e50154fe8baf24,627c6f69c4e16c9551ae7513,2022-05-11_19h29.40.861,classification_task,2021.2.3,Win32,59.79788315,627c6715c52fd12f31907bcf,,,,,,,,,,,,,,,,,,,,,,,a,0,"[""0.650"",""0.164"",""0.469"",""0.832""]","[0,1,1,1]",0,50,50,50,1,1,1,,,1,FALSE,1.4116,,,,,,,,,,,,,,,,,,,,,,,,,,,,,,,
,616de7dd58e50154fe8baf24,627c6f69c4e16c9551ae7513,2022-05-11_19h29.40.861,classification_task,2021.2.3,Win32,59.79788315,627c6715c52fd12f31907bcf,,,,,,,,,,,,,,,,,,,,,,,l,1,"[""0.047"",""0.642"",""0.469"",""0.832""]","[1,0,1,1]",0,51,51,51,1,1,1,,,1,FALSE,0.911,,,,,,,,,,,,,,,,,,,,,,,,,,,,,,,
,616de7dd58e50154fe8baf24,627c6f69c4e16c9551ae7513,2022-05-11_19h29.40.861,classification_task,2021.2.3,Win32,59.79788315,627c6715c52fd12f31907bcf,,,,,,,,,,,,,,,,,,,,,,,l,0,"[""0.324"",""0.398"",""0.597"",""0.674""]","[1,1,1,0]",0,52,52,52,1,0,1,,,1,FALSE,1.9799,,,,,,,,,,,,,,,,,,,,,,,,,,,,,,,
,616de7dd58e50154fe8baf24,627c6f69c4e16c9551ae7513,2022-05-11_19h29.40.861,classification_task,2021.2.3,Win32,59.79788315,627c6715c52fd12f31907bcf,,,,,,,,,,,,,,,,,,,,,,,a,1,"[""0.216"",""0.642"",""0.879"",""0.951""]","[1,0,1,1]",0,53,53,53,1,0,0,,,1,FALSE,1.5126,,,,,,,,,,,,,,,,,,,,,,,,,,,,,,,
,616de7dd58e50154fe8baf24,627c6f69c4e16c9551ae7513,2022-05-11_19h29.40.861,classification_task,2021.2.3,Win32,59.79788315,627c6715c52fd12f31907bcf,,,,,,,,,,,,,,,,,,,,,,,a,1,"[""0.324"",""0.398"",""0.644"",""0.917""]","[1,1,0,1]",0,54,54,54,1,0,1,,,1,FALSE,0.9461,,,,,,,,,,,,,,,,,,,,,,,,,,,,,,,
,616de7dd58e50154fe8baf24,627c6f69c4e16c9551ae7513,2022-05-11_19h29.40.861,classification_task,2021.2.3,Win32,59.79788315,627c6715c52fd12f31907bcf,,,,,,,,,,,,,,,,,,,,,,,a,1,"[""0.216"",""0.432"",""0.504"",""0.951""]","[1,1,0,1]",0,55,55,55,1,0,0,,,1,FALSE,1.0711,,,,,,,,,,,,,,,,,,,,,,,,,,,,,,,
,616de7dd58e50154fe8baf24,627c6f69c4e16c9551ae7513,2022-05-11_19h29.40.861,classification_task,2021.2.3,Win32,59.79788315,627c6715c52fd12f31907bcf,,,,,,,,,,,,,,,,,,,,,,,l,1,"[""0.101"",""0.252"",""0.357"",""0.761""]","[1,1,0,1]",0,56,56,56,1,1,0,,,1,FALSE,0.9927,,,,,,,,,,,,,,,,,,,,,,,,,,,,,,,
,616de7dd58e50154fe8baf24,627c6f69c4e16c9551ae7513,2022-05-11_19h29.40.861,classification_task,2021.2.3,Win32,59.79788315,627c6715c52fd12f31907bcf,,,,,,,,,,,,,,,,,,,,,,,l,1,"[""0.047"",""0.164"",""0.469"",""0.360""]","[1,1,1,0]",0,57,57,57,1,1,1,,,1,FALSE,1.6053,,,,,,,,,,,,,,,,,,,,,,,,,,,,,,,
,616de7dd58e50154fe8baf24,627c6f69c4e16c9551ae7513,2022-05-11_19h29.40.861,classification_task,2021.2.3,Win32,59.79788315,627c6715c52fd12f31907bcf,,,,,,,,,,,,,,,,,,,,,,,a,1,"[""0.324"",""0.644"",""0.597"",""0.917""]","[1,0,1,1]",0,58,58,58,1,0,1,,,1,FALSE,1.0467,,,,,,,,,,,,,,,,,,,,,,,,,,,,,,,
,616de7dd58e50154fe8baf24,627c6f69c4e16c9551ae7513,2022-05-11_19h29.40.861,classification_task,2021.2.3,Win32,59.79788315,627c6715c52fd12f31907bcf,,,,,,,,,,,,,,,,,,,,,,,l,0,"[""0.650"",""0.432"",""0.879"",""0.951""]","[0,1,1,1]",0,59,59,59,1,0,0,,,1,FALSE,1.1424,,,,,,,,,,,,,,,,,,,,,,,,,,,,,,,
,616de7dd58e50154fe8baf24,627c6f69c4e16c9551ae7513,2022-05-11_19h29.40.861,classification_task,2021.2.3,Win32,59.79788315,627c6715c52fd12f31907bcf,,,,,,,,,,,,,,,,,,,,,,,l,1,"[""0.101"",""0.710"",""0.550"",""0.761""]","[1,0,1,1]",0,60,60,60,1,1,0,,,1,FALSE,2.0419,,,,,,,,,,,,,,,,,,,,,,,,,,,,,,,
,616de7dd58e50154fe8baf24,627c6f69c4e16c9551ae7513,2022-05-11_19h29.40.861,classification_task,2021.2.3,Win32,59.79788315,627c6715c52fd12f31907bcf,,,,,,,,,,,,,,,,,,,,,,,l,1,"[""0.047"",""0.164"",""0.504"",""0.832""]","[1,1,0,1]",0,61,61,61,1,1,1,,,1,FALSE,1.3233,,,,,,,,,,,,,,,,,,,,,,,,,,,,,,,
,616de7dd58e50154fe8baf24,627c6f69c4e16c9551ae7513,2022-05-11_19h29.40.861,classification_task,2021.2.3,Win32,59.79788315,627c6715c52fd12f31907bcf,,,,,,,,,,,,,,,,,,,,,,,a,0,"[""0.710"",""0.252"",""0.550"",""0.761""]","[0,1,1,1]",0,62,62,62,1,1,0,,,1,FALSE,0.7048,,,,,,,,,,,,,,,,,,,,,,,,,,,,,,,
,616de7dd58e50154fe8baf24,627c6f69c4e16c9551ae7513,2022-05-11_19h29.40.861,classification_task,2021.2.3,Win32,59.79788315,627c6715c52fd12f31907bcf,,,,,,,,,,,,,,,,,,,,,,,a,1,"[""0.216"",""0.432"",""0.879"",""0.674""]","[1,1,1,0]",0,63,63,63,1,0,0,,,1,FALSE,0.8448,,,,,,,,,,,,,,,,,,,,,,,,,,,,,,,
,616de7dd58e50154fe8baf24,627c6f69c4e16c9551ae7513,2022-05-11_19h29.40.861,classification_task,2021.2.3,Win32,59.79788315,627c6715c52fd12f31907bcf,,,,,,,,,,,,,,,,,,,,,,,,,,,,,,,,,,,,,,,0, ,,0,5.080532805,423.6796,0,0,0,0,1,2,1,,,,,,,,,,,,,,,,,,
,616de7dd58e50154fe8baf24,627c6f69c4e16c9551ae7513,2022-05-11_19h29.40.861,classification_task,2021.2.3,Win32,59.79788315,627c6715c52fd12f31907bcf,,,,,,,,,,,,,,,,,,,,,,,,,,,,,,,,,,,,,,,1,  ,,0,8.342111409,439.7353,0,0,0,0,1,2,1,,,,,,,,,,,,,,,,,,
,616de7dd58e50154fe8baf24,627c6f69c4e16c9551ae7513,2022-05-11_19h29.40.861,classification_task,2021.2.3,Win32,59.79788315,627c6715c52fd12f31907bcf,,,,,,,,,,,,,,,,,,,,,,,,,,,,,,,,,,,,,,,2,  ,,0,3.429610302,436.8492,0,0,0,0,1,2,1,,,,,,,,,,,,,,,,,,
,616de7dd58e50154fe8baf24,627c6f69c4e16c9551ae7513,2022-05-11_19h29.40.861,classification_task,2021.2.3,Win32,59.79788315,627c6715c52fd12f31907bcf,,,,,,,,,,,,,,,,,,,,,,,,,,,,,,,,,,,,,,,,,,,,,0,0,0,0,1,,1,,,,,,,,,,,,,,,,,,
,616de7dd58e50154fe8baf24,627c6f69c4e16c9551ae7513,2022-05-11_19h29.40.861,classification_task,2021.2.3,Win32,59.79788315,627c6715c52fd12f31907bcf,,,,,,,,,,,,,,,,,,,,,space,12.8605,l,1,"[""0.504"",""0.164"",""0.469"",""0.832""]","[0,1,1,1]",0,0,0,0,1,1,1,,,1,FALSE,4.1772,,,,,,,,,,,,,,,,,,,,,,,,,,,,,,,
,616de7dd58e50154fe8baf24,627c6f69c4e16c9551ae7513,2022-05-11_19h29.40.861,classification_task,2021.2.3,Win32,59.79788315,627c6715c52fd12f31907bcf,,,,,,,,,,,,,,,,,,,,,,,l,0,"[""0.324"",""0.398"",""0.649"",""0.917""]","[1,1,0,1]",0,1,1,1,1,0,1,,,1,FALSE,1.1943,,,,,,,,,,,,,,,,,,,,,,,,,,,,,,,
,616de7dd58e50154fe8baf24,627c6f69c4e16c9551ae7513,2022-05-11_19h29.40.861,classification_task,2021.2.3,Win32,59.79788315,627c6715c52fd12f31907bcf,,,,,,,,,,,,,,,,,,,,,,,a,1,"[""0.216"",""0.432"",""0.504"",""0.951""]","[1,1,0,1]",0,2,2,2,1,0,0,,,1,FALSE,1.9611,,,,,,,,,,,,,,,,,,,,,,,,,,,,,,,
,616de7dd58e50154fe8baf24,627c6f69c4e16c9551ae7513,2022-05-11_19h29.40.861,classification_task,2021.2.3,Win32,59.79788315,627c6715c52fd12f31907bcf,,,,,,,,,,,,,,,,,,,,,,,l,0,"[""0.649"",""0.432"",""0.879"",""0.951""]","[0,1,1,1]",0,3,3,3,1,0,0,,,1,FALSE,1.4902,,,,,,,,,,,,,,,,,,,,,,,,,,,,,,,
,616de7dd58e50154fe8baf24,627c6f69c4e16c9551ae7513,2022-05-11_19h29.40.861,classification_task,2021.2.3,Win32,59.79788315,627c6715c52fd12f31907bcf,,,,,,,,,,,,,,,,,,,,,,,a,0,"[""0.101"",""0.252"",""0.550"",""0.287""]","[1,1,1,0]",0,4,4,4,1,1,0,,,1,FALSE,1.7653,,,,,,,,,,,,,,,,,,,,,,,,,,,,,,,
,616de7dd58e50154fe8baf24,627c6f69c4e16c9551ae7513,2022-05-11_19h29.40.861,classification_task,2021.2.3,Win32,59.79788315,627c6715c52fd12f31907bcf,,,,,,,,,,,,,,,,,,,,,,,l,0,"[""0.324"",""0.398"",""0.597"",""0.652""]","[1,1,1,0]",0,5,5,5,1,0,1,,,1,FALSE,1.8504,,,,,,,,,,,,,,,,,,,,,,,,,,,,,,,
,616de7dd58e50154fe8baf24,627c6f69c4e16c9551ae7513,2022-05-11_19h29.40.861,classification_task,2021.2.3,Win32,59.79788315,627c6715c52fd12f31907bcf,,,,,,,,,,,,,,,,,,,,,,,a,0,"[""0.357"",""0.252"",""0.550"",""0.761""]","[0,1,1,1]",0,6,6,6,1,1,0,,,1,FALSE,1.5554,,,,,,,,,,,,,,,,,,,,,,,,,,,,,,,
,616de7dd58e50154fe8baf24,627c6f69c4e16c9551ae7513,2022-05-11_19h29.40.861,classification_task,2021.2.3,Win32,59.79788315,627c6715c52fd12f31907bcf,,,,,,,,,,,,,,,,,,,,,,,l,1,"[""0.047"",""0.644"",""0.469"",""0.832""]","[1,0,1,1]",0,7,7,7,1,1,1,,,1,FALSE,1.8815,,,,,,,,,,,,,,,,,,,,,,,,,,,,,,,
,616de7dd58e50154fe8baf24,627c6f69c4e16c9551ae7513,2022-05-11_19h29.40.861,classification_task,2021.2.3,Win32,59.79788315,627c6715c52fd12f31907bcf,,,,,,,,,,,,,,,,,,,,,,,a,1,"[""0.216"",""0.652"",""0.879"",""0.951""]","[1,0,1,1]",0,8,8,8,1,0,0,,,1,FALSE,1.2657,,,,,,,,,,,,,,,,,,,,,,,,,,,,,,,
,616de7dd58e50154fe8baf24,627c6f69c4e16c9551ae7513,2022-05-11_19h29.40.861,classification_task,2021.2.3,Win32,59.79788315,627c6715c52fd12f31907bcf,,,,,,,,,,,,,,,,,,,,,,,a,1,"[""0.216"",""0.432"",""0.879"",""0.642""]","[1,1,1,0]",0,9,9,9,1,0,0,,,1,FALSE,0.8593,,,,,,,,,,,,,,,,,,,,,,,,,,,,,,,
,616de7dd58e50154fe8baf24,627c6f69c4e16c9551ae7513,2022-05-11_19h29.40.861,classification_task,2021.2.3,Win32,59.79788315,627c6715c52fd12f31907bcf,,,,,,,,,,,,,,,,,,,,,,,a,0,"[""0.101"",""0.252"",""0.645"",""0.761""]","[1,1,0,1]",0,10,10,10,1,1,0,,,1,FALSE,0.8706,,,,,,,,,,,,,,,,,,,,,,,,,,,,,,,
,616de7dd58e50154fe8baf24,627c6f69c4e16c9551ae7513,2022-05-11_19h29.40.861,classification_task,2021.2.3,Win32,59.79788315,627c6715c52fd12f31907bcf,,,,,,,,,,,,,,,,,,,,,,,l,1,"[""0.101"",""0.649"",""0.550"",""0.761""]","[1,0,1,1]",0,11,11,11,1,1,0,,,1,FALSE,1.3852,,,,,,,,,,,,,,,,,,,,,,,,,,,,,,,
,616de7dd58e50154fe8baf24,627c6f69c4e16c9551ae7513,2022-05-11_19h29.40.861,classification_task,2021.2.3,Win32,59.79788315,627c6715c52fd12f31907bcf,,,,,,,,,,,,,,,,,,,,,,,a,1,"[""0.324"",""0.357"",""0.597"",""0.917""]","[1,0,1,1]",0,12,12,12,1,0,1,,,1,FALSE,1.2581,,,,,,,,,,,,,,,,,,,,,,,,,,,,,,,
,616de7dd58e50154fe8baf24,627c6f69c4e16c9551ae7513,2022-05-11_19h29.40.861,classification_task,2021.2.3,Win32,59.79788315,627c6715c52fd12f31907bcf,,,,,,,,,,,,,,,,,,,,,,,l,1,"[""0.047"",""0.164"",""0.504"",""0.832""]","[1,1,0,1]",0,13,13,13,1,1,1,,,1,FALSE,1.2039,,,,,,,,,,,,,,,,,,,,,,,,,,,,,,,
,616de7dd58e50154fe8baf24,627c6f69c4e16c9551ae7513,2022-05-11_19h29.40.861,classification_task,2021.2.3,Win32,59.79788315,627c6715c52fd12f31907bcf,,,,,,,,,,,,,,,,,,,,,,,l,1,"[""0.047"",""0.164"",""0.469"",""0.642""]","[1,1,1,0]",0,14,14,14,1,1,1,,,1,FALSE,1.2537,,,,,,,,,,,,,,,,,,,,,,,,,,,,,,,
,616de7dd58e50154fe8baf24,627c6f69c4e16c9551ae7513,2022-05-11_19h29.40.861,classification_task,2021.2.3,Win32,59.79788315,627c6715c52fd12f31907bcf,,,,,,,,,,,,,,,,,,,,,,,a,1,"[""0.644"",""0.398"",""0.597"",""0.917""]","[0,1,1,1]",0,15,15,15,1,0,1,,,1,FALSE,1.1484,,,,,,,,,,,,,,,,,,,,,,,,,,,,,,,
,616de7dd58e50154fe8baf24,627c6f69c4e16c9551ae7513,2022-05-11_19h29.40.861,classification_task,2021.2.3,Win32,59.79788315,627c6715c52fd12f31907bcf,,,,,,,,,,,,,,,,,,,,,,,l,1,"[""0.101"",""0.645"",""0.550"",""0.761""]","[1,0,1,1]",0,16,16,16,1,1,0,,,1,FALSE,1.7619,,,,,,,,,,,,,,,,,,,,,,,,,,,,,,,
,616de7dd58e50154fe8baf24,627c6f69c4e16c9551ae7513,2022-05-11_19h29.40.861,classification_task,2021.2.3,Win32,59.79788315,627c6715c52fd12f31907bcf,,,,,,,,,,,,,,,,,,,,,,,a,1,"[""0.644"",""0.398"",""0.597"",""0.917""]","[0,1,1,1]",0,17,17,17,1,0,1,,,1,FALSE,1.7251,,,,,,,,,,,,,,,,,,,,,,,,,,,,,,,
,616de7dd58e50154fe8baf24,627c6f69c4e16c9551ae7513,2022-05-11_19h29.40.861,classification_task,2021.2.3,Win32,59.79788315,627c6715c52fd12f31907bcf,,,,,,,,,,,,,,,,,,,,,,,l,0,"[""0.324"",""0.398"",""0.644"",""0.917""]","[1,1,0,1]",0,18,18,18,1,0,1,,,1,FALSE,1.0296,,,,,,,,,,,,,,,,,,,,,,,,,,,,,,,
,616de7dd58e50154fe8baf24,627c6f69c4e16c9551ae7513,2022-05-11_19h29.40.861,classification_task,2021.2.3,Win32,59.79788315,627c6715c52fd12f31907bcf,,,,,,,,,,,,,,,,,,,,,,,l,0,"[""0.645"",""0.432"",""0.879"",""0.951""]","[0,1,1,1]",0,19,19,19,1,0,0,,,1,FALSE,2.013,,,,,,,,,,,,,,,,,,,,,,,,,,,,,,,
,616de7dd58e50154fe8baf24,627c6f69c4e16c9551ae7513,2022-05-11_19h29.40.861,classification_task,2021.2.3,Win32,59.79788315,627c6715c52fd12f31907bcf,,,,,,,,,,,,,,,,,,,,,,,l,1,"[""0.047"",""0.164"",""0.469"",""0.667""]","[1,1,1,0]",0,20,20,20,1,1,1,,,1,FALSE,1.3869,,,,,,,,,,,,,,,,,,,,,,,,,,,,,,,
,616de7dd58e50154fe8baf24,627c6f69c4e16c9551ae7513,2022-05-11_19h29.40.861,classification_task,2021.2.3,Win32,59.79788315,627c6715c52fd12f31907bcf,,,,,,,,,,,,,,,,,,,,,,,a,1,"[""0.216"",""0.432"",""0.360"",""0.951""]","[1,1,0,1]",0,21,21,21,1,0,0,,,1,FALSE,0.7687,,,,,,,,,,,,,,,,,,,,,,,,,,,,,,,
,616de7dd58e50154fe8baf24,627c6f69c4e16c9551ae7513,2022-05-11_19h29.40.861,classification_task,2021.2.3,Win32,59.79788315,627c6715c52fd12f31907bcf,,,,,,,,,,,,,,,,,,,,,,,l,0,"[""0.324"",""0.398"",""0.597"",""0.714""]","[1,1,1,0]",0,22,22,22,1,0,1,,,1,FALSE,1.1829,,,,,,,,,,,,,,,,,,,,,,,,,,,,,,,
,616de7dd58e50154fe8baf24,627c6f69c4e16c9551ae7513,2022-05-11_19h29.40.861,classification_task,2021.2.3,Win32,59.79788315,627c6715c52fd12f31907bcf,,,,,,,,,,,,,,,,,,,,,,,a,1,"[""0.324"",""0.287"",""0.597"",""0.917""]","[1,0,1,1]",0,23,23,23,1,0,1,,,1,FALSE,1.342,,,,,,,,,,,,,,,,,,,,,,,,,,,,,,,
,616de7dd58e50154fe8baf24,627c6f69c4e16c9551ae7513,2022-05-11_19h29.40.861,classification_task,2021.2.3,Win32,59.79788315,627c6715c52fd12f31907bcf,,,,,,,,,,,,,,,,,,,,,,,l,1,"[""0.101"",""0.252"",""0.550"",""0.357""]","[1,1,1,0]",0,24,24,24,1,1,0,,,1,FALSE,1.5008,,,,,,,,,,,,,,,,,,,,,,,,,,,,,,,
,616de7dd58e50154fe8baf24,627c6f69c4e16c9551ae7513,2022-05-11_19h29.40.861,classification_task,2021.2.3,Win32,59.79788315,627c6715c52fd12f31907bcf,,,,,,,,,,,,,,,,,,,,,,,a,1,"[""0.216"",""0.360"",""0.879"",""0.951""]","[1,0,1,1]",0,25,25,25,1,0,0,,,1,FALSE,1.395,,,,,,,,,,,,,,,,,,,,,,,,,,,,,,,
,616de7dd58e50154fe8baf24,627c6f69c4e16c9551ae7513,2022-05-11_19h29.40.861,classification_task,2021.2.3,Win32,59.79788315,627c6715c52fd12f31907bcf,,,,,,,,,,,,,,,,,,,,,,,a,0,"[""0.642"",""0.164"",""0.469"",""0.832""]","[0,1,1,1]",0,26,26,26,1,1,1,,,1,FALSE,1.8296,,,,,,,,,,,,,,,,,,,,,,,,,,,,,,,
,616de7dd58e50154fe8baf24,627c6f69c4e16c9551ae7513,2022-05-11_19h29.40.861,classification_task,2021.2.3,Win32,59.79788315,627c6715c52fd12f31907bcf,,,,,,,,,,,,,,,,,,,,,,,a,1,"[""0.216"",""0.432"",""0.879"",""0.357""]","[1,1,1,0]",0,27,27,27,1,0,0,,,1,FALSE,0.792,,,,,,,,,,,,,,,,,,,,,,,,,,,,,,,
,616de7dd58e50154fe8baf24,627c6f69c4e16c9551ae7513,2022-05-11_19h29.40.861,classification_task,2021.2.3,Win32,59.79788315,627c6715c52fd12f31907bcf,,,,,,,,,,,,,,,,,,,,,,,a,0,"[""0.714"",""0.252"",""0.550"",""0.761""]","[0,1,1,1]",0,28,28,28,1,1,0,,,1,FALSE,0.742,,,,,,,,,,,,,,,,,,,,,,,,,,,,,,,
,616de7dd58e50154fe8baf24,627c6f69c4e16c9551ae7513,2022-05-11_19h29.40.861,classification_task,2021.2.3,Win32,59.79788315,627c6715c52fd12f31907bcf,,,,,,,,,,,,,,,,,,,,,,,l,1,"[""0.047"",""0.164"",""0.652"",""0.832""]","[1,1,0,1]",0,29,29,29,1,1,1,,,1,FALSE,1.1756,,,,,,,,,,,,,,,,,,,,,,,,,,,,,,,
,616de7dd58e50154fe8baf24,627c6f69c4e16c9551ae7513,2022-05-11_19h29.40.861,classification_task,2021.2.3,Win32,59.79788315,627c6715c52fd12f31907bcf,,,,,,,,,,,,,,,,,,,,,,,a,0,"[""0.101"",""0.252"",""0.357"",""0.761""]","[1,1,0,1]",0,30,30,30,1,1,0,,,1,FALSE,0.9204,,,,,,,,,,,,,,,,,,,,,,,,,,,,,,,
,616de7dd58e50154fe8baf24,627c6f69c4e16c9551ae7513,2022-05-11_19h29.40.861,classification_task,2021.2.3,Win32,59.79788315,627c6715c52fd12f31907bcf,,,,,,,,,,,,,,,,,,,,,,,l,1,"[""0.047"",""0.714"",""0.469"",""0.832""]","[1,0,1,1]",0,31,31,31,1,1,1,,,1,FALSE,1.1829,,,,,,,,,,,,,,,,,,,,,,,,,,,,,,,
,616de7dd58e50154fe8baf24,627c6f69c4e16c9551ae7513,2022-05-11_19h29.40.861,classification_task,2021.2.3,Win32,59.79788315,627c6715c52fd12f31907bcf,,,,,,,,,,,,,,,,,,,,,,,l,1,"[""0.101"",""0.504"",""0.550"",""0.761""]","[1,0,1,1]",0,32,32,32,1,1,0,,,1,FALSE,1.3578,,,,,,,,,,,,,,,,,,,,,,,,,,,,,,,
,616de7dd58e50154fe8baf24,627c6f69c4e16c9551ae7513,2022-05-11_19h29.40.861,classification_task,2021.2.3,Win32,59.79788315,627c6715c52fd12f31907bcf,,,,,,,,,,,,,,,,,,,,,,,l,1,"[""0.047"",""0.164"",""0.469"",""0.674""]","[1,1,1,0]",0,33,33,33,1,1,1,,,1,FALSE,1.1965,,,,,,,,,,,,,,,,,,,,,,,,,,,,,,,
,616de7dd58e50154fe8baf24,627c6f69c4e16c9551ae7513,2022-05-11_19h29.40.861,classification_task,2021.2.3,Win32,59.79788315,627c6715c52fd12f31907bcf,,,,,,,,,,,,,,,,,,,,,,,a,1,"[""0.357"",""0.432"",""0.879"",""0.951""]","[0,1,1,1]",0,34,34,34,1,0,0,,,1,FALSE,1.1132,,,,,,,,,,,,,,,,,,,,,,,,,,,,,,,
,616de7dd58e50154fe8baf24,627c6f69c4e16c9551ae7513,2022-05-11_19h29.40.861,classification_task,2021.2.3,Win32,59.79788315,627c6715c52fd12f31907bcf,,,,,,,,,,,,,,,,,,,,,,,a,0,"[""0.642"",""0.252"",""0.550"",""0.761""]","[0,1,1,1]",0,35,35,35,1,1,0,,,1,FALSE,1.0477,,,,,,,,,,,,,,,,,,,,,,,,,,,,,,,
,616de7dd58e50154fe8baf24,627c6f69c4e16c9551ae7513,2022-05-11_19h29.40.861,classification_task,2021.2.3,Win32,59.79788315,627c6715c52fd12f31907bcf,,,,,,,,,,,,,,,,,,,,,,,a,1,"[""0.324"",""0.398"",""0.597"",""0.644""]","[1,1,1,0]",0,36,36,36,1,0,1,,,1,FALSE,1.067,,,,,,,,,,,,,,,,,,,,,,,,,,,,,,,
,616de7dd58e50154fe8baf24,627c6f69c4e16c9551ae7513,2022-05-11_19h29.40.861,classification_task,2021.2.3,Win32,59.79788315,627c6715c52fd12f31907bcf,,,,,,,,,,,,,,,,,,,,,,,l,1,"[""0.504"",""0.164"",""0.469"",""0.832""]","[0,1,1,1]",0,37,37,37,1,1,1,,,1,FALSE,1.8242,,,,,,,,,,,,,,,,,,,,,,,,,,,,,,,
,616de7dd58e50154fe8baf24,627c6f69c4e16c9551ae7513,2022-05-11_19h29.40.861,classification_task,2021.2.3,Win32,59.79788315,627c6715c52fd12f31907bcf,,,,,,,,,,,,,,,,,,,,,,,a,1,"[""0.324"",""0.645"",""0.597"",""0.917""]","[1,0,1,1]",0,38,38,38,1,0,1,,,1,FALSE,2.1636,,,,,,,,,,,,,,,,,,,,,,,,,,,,,,,
,616de7dd58e50154fe8baf24,627c6f69c4e16c9551ae7513,2022-05-11_19h29.40.861,classification_task,2021.2.3,Win32,59.79788315,627c6715c52fd12f31907bcf,,,,,,,,,,,,,,,,,,,,,,,l,1,"[""0.047"",""0.164"",""0.360"",""0.832""]","[1,1,0,1]",0,39,39,39,1,1,1,,,1,FALSE,1.6556,,,,,,,,,,,,,,,,,,,,,,,,,,,,,,,
,616de7dd58e50154fe8baf24,627c6f69c4e16c9551ae7513,2022-05-11_19h29.40.861,classification_task,2021.2.3,Win32,59.79788315,627c6715c52fd12f31907bcf,,,,,,,,,,,,,,,,,,,,,,,a,1,"[""0.324"",""0.398"",""0.642"",""0.917""]","[1,1,0,1]",0,40,40,40,1,0,1,,,1,FALSE,0.8963,,,,,,,,,,,,,,,,,,,,,,,,,,,,,,,
,616de7dd58e50154fe8baf24,627c6f69c4e16c9551ae7513,2022-05-11_19h29.40.861,classification_task,2021.2.3,Win32,59.79788315,627c6715c52fd12f31907bcf,,,,,,,,,,,,,,,,,,,,,,,a,0,"[""0.101"",""0.252"",""0.550"",""0.642""]","[1,1,1,0]",0,41,41,41,1,1,0,,,1,FALSE,2.1113,,,,,,,,,,,,,,,,,,,,,,,,,,,,,,,
,616de7dd58e50154fe8baf24,627c6f69c4e16c9551ae7513,2022-05-11_19h29.40.861,classification_task,2021.2.3,Win32,59.79788315,627c6715c52fd12f31907bcf,,,,,,,,,,,,,,,,,,,,,,,l,1,"[""0.047"",""0.644"",""0.469"",""0.832""]","[1,0,1,1]",0,42,42,42,1,1,1,,,1,FALSE,1.4444,,,,,,,,,,,,,,,,,,,,,,,,,,,,,,,
,616de7dd58e50154fe8baf24,627c6f69c4e16c9551ae7513,2022-05-11_19h29.40.861,classification_task,2021.2.3,Win32,59.79788315,627c6715c52fd12f31907bcf,,,,,,,,,,,,,,,,,,,,,,,a,1,"[""0.216"",""0.432"",""0.642"",""0.951""]","[1,1,0,1]",0,43,43,43,1,0,0,,,1,FALSE,0.8844,,,,,,,,,,,,,,,,,,,,,,,,,,,,,,,
,616de7dd58e50154fe8baf24,627c6f69c4e16c9551ae7513,2022-05-11_19h29.40.861,classification_task,2021.2.3,Win32,59.79788315,627c6715c52fd12f31907bcf,,,,,,,,,,,,,,,,,,,,,,,l,0,"[""0.644"",""0.398"",""0.597"",""0.917""]","[0,1,1,1]",0,44,44,44,1,0,1,,,1,FALSE,1.6297,,,,,,,,,,,,,,,,,,,,,,,,,,,,,,,
,616de7dd58e50154fe8baf24,627c6f69c4e16c9551ae7513,2022-05-11_19h29.40.861,classification_task,2021.2.3,Win32,59.79788315,627c6715c52fd12f31907bcf,,,,,,,,,,,,,,,,,,,,,,,a,1,"[""0.216"",""0.645"",""0.879"",""0.951""]","[1,0,1,1]",0,45,45,45,1,0,0,,,1,FALSE,0.6875,,,,,,,,,,,,,,,,,,,,,,,,,,,,,,,
,616de7dd58e50154fe8baf24,627c6f69c4e16c9551ae7513,2022-05-11_19h29.40.861,classification_task,2021.2.3,Win32,59.79788315,627c6715c52fd12f31907bcf,,,,,,,,,,,,,,,,,,,,,,,a,1,"[""0.216"",""0.432"",""0.879"",""0.287""]","[1,1,1,0]",0,46,46,46,1,0,0,,,1,FALSE,0.7277,,,,,,,,,,,,,,,,,,,,,,,,,,,,,,,
,616de7dd58e50154fe8baf24,627c6f69c4e16c9551ae7513,2022-05-11_19h29.40.861,classification_task,2021.2.3,Win32,59.79788315,627c6715c52fd12f31907bcf,,,,,,,,,,,,,,,,,,,,,,,a,0,"[""0.101"",""0.252"",""0.357"",""0.761""]","[1,1,0,1]",0,47,47,47,1,1,0,,,1,FALSE,1.3261,,,,,,,,,,,,,,,,,,,,,,,,,,,,,,,
,616de7dd58e50154fe8baf24,627c6f69c4e16c9551ae7513,2022-05-11_19h29.40.861,classification_task,2021.2.3,Win32,59.79788315,627c6715c52fd12f31907bcf,,,,,,,,,,,,,,,,,,,,,,,a,1,"[""0.324"",""0.360"",""0.597"",""0.917""]","[1,0,1,1]",0,48,48,48,1,0,1,,,1,FALSE,1.0156,,,,,,,,,,,,,,,,,,,,,,,,,,,,,,,
,616de7dd58e50154fe8baf24,627c6f69c4e16c9551ae7513,2022-05-11_19h29.40.861,classification_task,2021.2.3,Win32,59.79788315,627c6715c52fd12f31907bcf,,,,,,,,,,,,,,,,,,,,,,,a,1,"[""0.216"",""0.432"",""0.645"",""0.951""]","[1,1,0,1]",0,49,49,49,1,0,0,,,1,FALSE,0.8494,,,,,,,,,,,,,,,,,,,,,,,,,,,,,,,
,616de7dd58e50154fe8baf24,627c6f69c4e16c9551ae7513,2022-05-11_19h29.40.861,classification_task,2021.2.3,Win32,59.79788315,627c6715c52fd12f31907bcf,,,,,,,,,,,,,,,,,,,,,,,a,1,"[""0.324"",""0.398"",""0.710"",""0.917""]","[1,1,0,1]",0,50,50,50,1,0,1,,,1,FALSE,0.9923,,,,,,,,,,,,,,,,,,,,,,,,,,,,,,,
,616de7dd58e50154fe8baf24,627c6f69c4e16c9551ae7513,2022-05-11_19h29.40.861,classification_task,2021.2.3,Win32,59.79788315,627c6715c52fd12f31907bcf,,,,,,,,,,,,,,,,,,,,,,,l,1,"[""0.047"",""0.710"",""0.469"",""0.832""]","[1,0,1,1]",0,51,51,51,1,1,1,,,1,FALSE,0.7914,,,,,,,,,,,,,,,,,,,,,,,,,,,,,,,
,616de7dd58e50154fe8baf24,627c6f69c4e16c9551ae7513,2022-05-11_19h29.40.861,classification_task,2021.2.3,Win32,59.79788315,627c6715c52fd12f31907bcf,,,,,,,,,,,,,,,,,,,,,,,a,1,"[""0.216"",""0.432"",""0.879"",""0.504""]","[1,1,1,0]",0,52,52,52,1,0,0,,,1,FALSE,0.926,,,,,,,,,,,,,,,,,,,,,,,,,,,,,,,
,616de7dd58e50154fe8baf24,627c6f69c4e16c9551ae7513,2022-05-11_19h29.40.861,classification_task,2021.2.3,Win32,59.79788315,627c6715c52fd12f31907bcf,,,,,,,,,,,,,,,,,,,,,,,l,1,"[""0.047"",""0.164"",""0.357"",""0.832""]","[1,1,0,1]",0,53,53,53,1,1,1,,,1,FALSE,1.3415,,,,,,,,,,,,,,,,,,,,,,,,,,,,,,,
,616de7dd58e50154fe8baf24,627c6f69c4e16c9551ae7513,2022-05-11_19h29.40.861,classification_task,2021.2.3,Win32,59.79788315,627c6715c52fd12f31907bcf,,,,,,,,,,,,,,,,,,,,,,,l,0,"[""0.644"",""0.432"",""0.879"",""0.951""]","[0,1,1,1]",0,54,54,54,1,0,0,,,1,FALSE,1.2258,,,,,,,,,,,,,,,,,,,,,,,,,,,,,,,
,616de7dd58e50154fe8baf24,627c6f69c4e16c9551ae7513,2022-05-11_19h29.40.861,classification_task,2021.2.3,Win32,59.79788315,627c6715c52fd12f31907bcf,,,,,,,,,,,,,,,,,,,,,,,a,0,"[""0.101"",""0.252"",""0.644"",""0.761""]","[1,1,0,1]",0,55,55,55,1,1,0,,,1,FALSE,0.8054,,,,,,,,,,,,,,,,,,,,,,,,,,,,,,,
,616de7dd58e50154fe8baf24,627c6f69c4e16c9551ae7513,2022-05-11_19h29.40.861,classification_task,2021.2.3,Win32,59.79788315,627c6715c52fd12f31907bcf,,,,,,,,,,,,,,,,,,,,,,,a,0,"[""0.101"",""0.252"",""0.550"",""0.287""]","[1,1,1,0]",0,56,56,56,1,1,0,,,1,FALSE,0.7236,,,,,,,,,,,,,,,,,,,,,,,,,,,,,,,
,616de7dd58e50154fe8baf24,627c6f69c4e16c9551ae7513,2022-05-11_19h29.40.861,classification_task,2021.2.3,Win32,59.79788315,627c6715c52fd12f31907bcf,,,,,,,,,,,,,,,,,,,,,,,a,0,"[""0.645"",""0.252"",""0.550"",""0.761""]","[0,1,1,1]",0,57,57,57,1,1,0,,,1,FALSE,0.6928,,,,,,,,,,,,,,,,,,,,,,,,,,,,,,,
,616de7dd58e50154fe8baf24,627c6f69c4e16c9551ae7513,2022-05-11_19h29.40.861,classification_task,2021.2.3,Win32,59.79788315,627c6715c52fd12f31907bcf,,,,,,,,,,,,,,,,,,,,,,,l,1,"[""0.710"",""0.164"",""0.469"",""0.832""]","[0,1,1,1]",0,58,58,58,1,1,1,,,1,FALSE,1.04,,,,,,,,,,,,,,,,,,,,,,,,,,,,,,,
,616de7dd58e50154fe8baf24,627c6f69c4e16c9551ae7513,2022-05-11_19h29.40.861,classification_task,2021.2.3,Win32,59.79788315,627c6715c52fd12f31907bcf,,,,,,,,,,,,,,,,,,,,,,,a,1,"[""0.216"",""0.650"",""0.879"",""0.951""]","[1,0,1,1]",0,59,59,59,1,0,0,,,1,FALSE,0.8489,,,,,,,,,,,,,,,,,,,,,,,,,,,,,,,
,616de7dd58e50154fe8baf24,627c6f69c4e16c9551ae7513,2022-05-11_19h29.40.861,classification_task,2021.2.3,Win32,59.79788315,627c6715c52fd12f31907bcf,,,,,,,,,,,,,,,,,,,,,,,l,1,"[""0.047"",""0.164"",""0.469"",""0.644""]","[1,1,1,0]",0,60,60,60,1,1,1,,,1,FALSE,0.9452,,,,,,,,,,,,,,,,,,,,,,,,,,,,,,,
,616de7dd58e50154fe8baf24,627c6f69c4e16c9551ae7513,2022-05-11_19h29.40.861,classification_task,2021.2.3,Win32,59.79788315,627c6715c52fd12f31907bcf,,,,,,,,,,,,,,,,,,,,,,,l,1,"[""0.101"",""0.645"",""0.550"",""0.761""]","[1,0,1,1]",0,61,61,61,1,1,0,,,1,FALSE,1.0159,,,,,,,,,,,,,,,,,,,,,,,,,,,,,,,
,616de7dd58e50154fe8baf24,627c6f69c4e16c9551ae7513,2022-05-11_19h29.40.861,classification_task,2021.2.3,Win32,59.79788315,627c6715c52fd12f31907bcf,,,,,,,,,,,,,,,,,,,,,,,a,1,"[""0.324"",""0.398"",""0.597"",""0.645""]","[1,1,1,0]",0,62,62,62,1,0,1,,,1,FALSE,0.9867,,,,,,,,,,,,,,,,,,,,,,,,,,,,,,,
,616de7dd58e50154fe8baf24,627c6f69c4e16c9551ae7513,2022-05-11_19h29.40.861,classification_task,2021.2.3,Win32,59.79788315,627c6715c52fd12f31907bcf,,,,,,,,,,,,,,,,,,,,,,,l,0,"[""0.667"",""0.398"",""0.597"",""0.917""]","[0,1,1,1]",0,63,63,63,1,0,1,,,1,FALSE,1.0628,,,,,,,,,,,,,,,,,,,,,,,,,,,,,,,
,616de7dd58e50154fe8baf24,627c6f69c4e16c9551ae7513,2022-05-11_19h29.40.861,classification_task,2021.2.3,Win32,59.79788315,627c6715c52fd12f31907bcf,,,,,,,,,,,,,,,,,,,,,,,,,,,,,,,,,,,,,,,0, ,,0,4.798667987,164.2919,0,1,1,1,1,2,2,,,,,,,,,,,,,,,,,,
,616de7dd58e50154fe8baf24,627c6f69c4e16c9551ae7513,2022-05-11_19h29.40.861,classification_task,2021.2.3,Win32,59.79788315,627c6715c52fd12f31907bcf,,,,,,,,,,,,,,,,,,,,,,,,,,,,,,,,,,,,,,,1,  ,,0,6.811988113,168.79,0,1,1,1,1,2,2,,,,,,,,,,,,,,,,,,
,616de7dd58e50154fe8baf24,627c6f69c4e16c9551ae7513,2022-05-11_19h29.40.861,classification_task,2021.2.3,Win32,59.79788315,627c6715c52fd12f31907bcf,,,,,,,,,,,,,,,,,,,,,,,,,,,,,,,,,,,,,,,2,  ,,0,6.973053723,174.2181,0,1,1,1,1,2,2,,,,,,,,,,,,,,,,,,
,616de7dd58e50154fe8baf24,627c6f69c4e16c9551ae7513,2022-05-11_19h29.40.861,classification_task,2021.2.3,Win32,59.79788315,627c6715c52fd12f31907bcf,,,,,,,,,,,,,,,,,,,,,,,,,,,,,,,,,,,,,,,,,,,,,0,1,1,1,1,,2,,,,,,,,,,,,,,,,,,
,616de7dd58e50154fe8baf24,627c6f69c4e16c9551ae7513,2022-05-11_19h29.40.861,classification_task,2021.2.3,Win32,59.79788315,627c6715c52fd12f31907bcf,,,,,,,,,,,,,,,,,,,,,space,8.8878,a,1,"[""0.216"",""0.432"",""0.287"",""0.951""]","[1,1,0,1]",0,0,0,0,1,0,0,,,1,FALSE,1.7605,,,,,,,,,,,,,,,,,,,,,,,,,,,,,,,
,616de7dd58e50154fe8baf24,627c6f69c4e16c9551ae7513,2022-05-11_19h29.40.861,classification_task,2021.2.3,Win32,59.79788315,627c6715c52fd12f31907bcf,,,,,,,,,,,,,,,,,,,,,,,a,1,"[""0.216"",""0.432"",""0.879"",""0.645""]","[1,1,1,0]",0,1,1,1,1,0,0,,,1,FALSE,0.963,,,,,,,,,,,,,,,,,,,,,,,,,,,,,,,
,616de7dd58e50154fe8baf24,627c6f69c4e16c9551ae7513,2022-05-11_19h29.40.861,classification_task,2021.2.3,Win32,59.79788315,627c6715c52fd12f31907bcf,,,,,,,,,,,,,,,,,,,,,,,l,1,"[""0.101"",""0.252"",""0.550"",""0.674""]","[1,1,1,0]",0,2,2,2,1,1,0,,,1,FALSE,1.6781,,,,,,,,,,,,,,,,,,,,,,,,,,,,,,,
,616de7dd58e50154fe8baf24,627c6f69c4e16c9551ae7513,2022-05-11_19h29.40.861,classification_task,2021.2.3,Win32,59.79788315,627c6715c52fd12f31907bcf,,,,,,,,,,,,,,,,,,,,,,,a,0,"[""0.644"",""0.252"",""0.550"",""0.761""]","[0,1,1,1]",0,3,3,3,1,1,0,,,1,FALSE,0.7217,,,,,,,,,,,,,,,,,,,,,,,,,,,,,,,
,616de7dd58e50154fe8baf24,627c6f69c4e16c9551ae7513,2022-05-11_19h29.40.861,classification_task,2021.2.3,Win32,59.79788315,627c6715c52fd12f31907bcf,,,,,,,,,,,,,,,,,,,,,,,l,0,"[""0.645"",""0.398"",""0.597"",""0.917""]","[0,1,1,1]",0,4,4,4,1,0,1,,,1,FALSE,2.0826,,,,,,,,,,,,,,,,,,,,,,,,,,,,,,,
,616de7dd58e50154fe8baf24,627c6f69c4e16c9551ae7513,2022-05-11_19h29.40.861,classification_task,2021.2.3,Win32,59.79788315,627c6715c52fd12f31907bcf,,,,,,,,,,,,,,,,,,,,,,,l,1,"[""0.047"",""0.164"",""0.360"",""0.832""]","[1,1,0,1]",0,5,5,5,1,1,1,,,1,FALSE,1.0694,,,,,,,,,,,,,,,,,,,,,,,,,,,,,,,
,616de7dd58e50154fe8baf24,627c6f69c4e16c9551ae7513,2022-05-11_19h29.40.861,classification_task,2021.2.3,Win32,59.79788315,627c6715c52fd12f31907bcf,,,,,,,,,,,,,,,,,,,,,,,a,1,"[""0.324"",""0.674"",""0.597"",""0.917""]","[1,0,1,1]",0,6,6,6,1,0,1,,,1,FALSE,1.2553,,,,,,,,,,,,,,,,,,,,,,,,,,,,,,,
,616de7dd58e50154fe8baf24,627c6f69c4e16c9551ae7513,2022-05-11_19h29.40.861,classification_task,2021.2.3,Win32,59.79788315,627c6715c52fd12f31907bcf,,,,,,,,,,,,,,,,,,,,,,,a,1,"[""0.324"",""0.398"",""0.597"",""0.504""]","[1,1,1,0]",0,7,7,7,1,0,1,,,1,FALSE,0.8274,,,,,,,,,,,,,,,,,,,,,,,,,,,,,,,
,616de7dd58e50154fe8baf24,627c6f69c4e16c9551ae7513,2022-05-11_19h29.40.861,classification_task,2021.2.3,Win32,59.79788315,627c6715c52fd12f31907bcf,,,,,,,,,,,,,,,,,,,,,,,l,1,"[""0.287"",""0.164"",""0.469"",""0.832""]","[0,1,1,1]",0,8,8,8,1,1,1,,,1,FALSE,1.4463,,,,,,,,,,,,,,,,,,,,,,,,,,,,,,,
,616de7dd58e50154fe8baf24,627c6f69c4e16c9551ae7513,2022-05-11_19h29.40.861,classification_task,2021.2.3,Win32,59.79788315,627c6715c52fd12f31907bcf,,,,,,,,,,,,,,,,,,,,,,,l,0,"[""0.644"",""0.432"",""0.879"",""0.951""]","[0,1,1,1]",0,9,9,9,1,0,0,,,1,FALSE,1.7047,,,,,,,,,,,,,,,,,,,,,,,,,,,,,,,
,616de7dd58e50154fe8baf24,627c6f69c4e16c9551ae7513,2022-05-11_19h29.40.861,classification_task,2021.2.3,Win32,59.79788315,627c6715c52fd12f31907bcf,,,,,,,,,,,,,,,,,,,,,,,l,1,"[""0.101"",""0.252"",""0.649"",""0.761""]","[1,1,0,1]",0,10,10,10,1,1,0,,,1,FALSE,0.9345,,,,,,,,,,,,,,,,,,,,,,,,,,,,,,,
,616de7dd58e50154fe8baf24,627c6f69c4e16c9551ae7513,2022-05-11_19h29.40.861,classification_task,2021.2.3,Win32,59.79788315,627c6715c52fd12f31907bcf,,,,,,,,,,,,,,,,,,,,,,,l,1,"[""0.101"",""0.504"",""0.550"",""0.761""]","[1,0,1,1]",0,11,11,11,1,1,0,,,1,FALSE,0.9131,,,,,,,,,,,,,,,,,,,,,,,,,,,,,,,
,616de7dd58e50154fe8baf24,627c6f69c4e16c9551ae7513,2022-05-11_19h29.40.861,classification_task,2021.2.3,Win32,59.79788315,627c6715c52fd12f31907bcf,,,,,,,,,,,,,,,,,,,,,,,a,1,"[""0.216"",""0.504"",""0.879"",""0.951""]","[1,0,1,1]",0,12,12,12,1,0,0,,,1,FALSE,0.9486,,,,,,,,,,,,,,,,,,,,,,,,,,,,,,,
,616de7dd58e50154fe8baf24,627c6f69c4e16c9551ae7513,2022-05-11_19h29.40.861,classification_task,2021.2.3,Win32,59.79788315,627c6715c52fd12f31907bcf,,,,,,,,,,,,,,,,,,,,,,,a,1,"[""0.324"",""0.398"",""0.650"",""0.917""]","[1,1,0,1]",0,13,13,13,1,0,1,,,1,FALSE,1.2857,,,,,,,,,,,,,,,,,,,,,,,,,,,,,,,
,616de7dd58e50154fe8baf24,627c6f69c4e16c9551ae7513,2022-05-11_19h29.40.861,classification_task,2021.2.3,Win32,59.79788315,627c6715c52fd12f31907bcf,,,,,,,,,,,,,,,,,,,,,,,l,1,"[""0.047"",""0.164"",""0.469"",""0.504""]","[1,1,1,0]",0,14,14,14,1,1,1,,,1,FALSE,0.7668,,,,,,,,,,,,,,,,,,,,,,,,,,,,,,,
,616de7dd58e50154fe8baf24,627c6f69c4e16c9551ae7513,2022-05-11_19h29.40.861,classification_task,2021.2.3,Win32,59.79788315,627c6715c52fd12f31907bcf,,,,,,,,,,,,,,,,,,,,,,,l,1,"[""0.047"",""0.710"",""0.469"",""0.832""]","[1,0,1,1]",0,15,15,15,1,1,1,,,1,FALSE,1.0147,,,,,,,,,,,,,,,,,,,,,,,,,,,,,,,
,616de7dd58e50154fe8baf24,627c6f69c4e16c9551ae7513,2022-05-11_19h29.40.861,classification_task,2021.2.3,Win32,59.79788315,627c6715c52fd12f31907bcf,,,,,,,,,,,,,,,,,,,,,,,l,0,"[""0.324"",""0.398"",""0.645"",""0.917""]","[1,1,0,1]",0,16,16,16,1,0,1,,,1,FALSE,2.5092,,,,,,,,,,,,,,,,,,,,,,,,,,,,,,,
,616de7dd58e50154fe8baf24,627c6f69c4e16c9551ae7513,2022-05-11_19h29.40.861,classification_task,2021.2.3,Win32,59.79788315,627c6715c52fd12f31907bcf,,,,,,,,,,,,,,,,,,,,,,,l,0,"[""0.360"",""0.398"",""0.597"",""0.917""]","[0,1,1,1]",0,17,17,17,1,0,1,,,1,FALSE,1.2089,,,,,,,,,,,,,,,,,,,,,,,,,,,,,,,
,616de7dd58e50154fe8baf24,627c6f69c4e16c9551ae7513,2022-05-11_19h29.40.861,classification_task,2021.2.3,Win32,59.79788315,627c6715c52fd12f31907bcf,,,,,,,,,,,,,,,,,,,,,,,l,0,"[""0.667"",""0.432"",""0.879"",""0.951""]","[0,1,1,1]",0,18,18,18,1,0,0,,,1,FALSE,0.9844,,,,,,,,,,,,,,,,,,,,,,,,,,,,,,,
,616de7dd58e50154fe8baf24,627c6f69c4e16c9551ae7513,2022-05-11_19h29.40.861,classification_task,2021.2.3,Win32,59.79788315,627c6715c52fd12f31907bcf,,,,,,,,,,,,,,,,,,,,,,,l,1,"[""0.047"",""0.164"",""0.360"",""0.832""]","[1,1,0,1]",0,19,19,19,1,1,1,,,1,FALSE,1.1842,,,,,,,,,,,,,,,,,,,,,,,,,,,,,,,
,616de7dd58e50154fe8baf24,627c6f69c4e16c9551ae7513,2022-05-11_19h29.40.861,classification_task,2021.2.3,Win32,59.79788315,627c6715c52fd12f31907bcf,,,,,,,,,,,,,,,,,,,,,,,l,1,"[""0.101"",""0.252"",""0.550"",""0.667""]","[1,1,1,0]",0,20,20,20,1,1,0,,,1,FALSE,1.78,,,,,,,,,,,,,,,,,,,,,,,,,,,,,,,
,616de7dd58e50154fe8baf24,627c6f69c4e16c9551ae7513,2022-05-11_19h29.40.861,classification_task,2021.2.3,Win32,59.79788315,627c6715c52fd12f31907bcf,,,,,,,,,,,,,,,,,,,,,,,a,1,"[""0.216"",""0.650"",""0.879"",""0.951""]","[1,0,1,1]",0,21,21,21,1,0,0,,,1,FALSE,0.6177,,,,,,,,,,,,,,,,,,,,,,,,,,,,,,,
,616de7dd58e50154fe8baf24,627c6f69c4e16c9551ae7513,2022-05-11_19h29.40.861,classification_task,2021.2.3,Win32,59.79788315,627c6715c52fd12f31907bcf,,,,,,,,,,,,,,,,,,,,,,,l,1,"[""0.101"",""0.674"",""0.550"",""0.761""]","[1,0,1,1]",0,22,22,22,1,1,0,,,1,FALSE,1.2318,,,,,,,,,,,,,,,,,,,,,,,,,,,,,,,
,616de7dd58e50154fe8baf24,627c6f69c4e16c9551ae7513,2022-05-11_19h29.40.861,classification_task,2021.2.3,Win32,59.79788315,627c6715c52fd12f31907bcf,,,,,,,,,,,,,,,,,,,,,,,a,1,"[""0.324"",""0.398"",""0.597"",""0.652""]","[1,1,1,0]",0,23,23,23,1,0,1,,,1,FALSE,1.084,,,,,,,,,,,,,,,,,,,,,,,,,,,,,,,
,616de7dd58e50154fe8baf24,627c6f69c4e16c9551ae7513,2022-05-11_19h29.40.861,classification_task,2021.2.3,Win32,59.79788315,627c6715c52fd12f31907bcf,,,,,,,,,,,,,,,,,,,,,,,l,1,"[""0.047"",""0.645"",""0.469"",""0.832""]","[1,0,1,1]",0,24,24,24,1,1,1,,,1,FALSE,1.2043,,,,,,,,,,,,,,,,,,,,,,,,,,,,,,,
,616de7dd58e50154fe8baf24,627c6f69c4e16c9551ae7513,2022-05-11_19h29.40.861,classification_task,2021.2.3,Win32,59.79788315,627c6715c52fd12f31907bcf,,,,,,,,,,,,,,,,,,,,,,,l,1,"[""0.101"",""0.252"",""0.674"",""0.761""]","[1,1,0,1]",0,25,25,25,1,1,0,,,1,FALSE,1.4411,,,,,,,,,,,,,,,,,,,,,,,,,,,,,,,
,616de7dd58e50154fe8baf24,627c6f69c4e16c9551ae7513,2022-05-11_19h29.40.861,classification_task,2021.2.3,Win32,59.79788315,627c6715c52fd12f31907bcf,,,,,,,,,,,,,,,,,,,,,,,a,0,"[""0.710"",""0.252"",""0.550"",""0.761""]","[0,1,1,1]",0,26,26,26,1,1,0,,,1,FALSE,0.6594,,,,,,,,,,,,,,,,,,,,,,,,,,,,,,,
,616de7dd58e50154fe8baf24,627c6f69c4e16c9551ae7513,2022-05-11_19h29.40.861,classification_task,2021.2.3,Win32,59.79788315,627c6715c52fd12f31907bcf,,,,,,,,,,,,,,,,,,,,,,,l,1,"[""0.645"",""0.164"",""0.469"",""0.832""]","[0,1,1,1]",0,27,27,27,1,1,1,,,1,FALSE,1.2392,,,,,,,,,,,,,,,,,,,,,,,,,,,,,,,
,616de7dd58e50154fe8baf24,627c6f69c4e16c9551ae7513,2022-05-11_19h29.40.861,classification_task,2021.2.3,Win32,59.79788315,627c6715c52fd12f31907bcf,,,,,,,,,,,,,,,,,,,,,,,l,1,"[""0.047"",""0.164"",""0.469"",""0.645""]","[1,1,1,0]",0,28,28,28,1,1,1,,,1,FALSE,1.5974,,,,,,,,,,,,,,,,,,,,,,,,,,,,,,,
,616de7dd58e50154fe8baf24,627c6f69c4e16c9551ae7513,2022-05-11_19h29.40.861,classification_task,2021.2.3,Win32,59.79788315,627c6715c52fd12f31907bcf,,,,,,,,,,,,,,,,,,,,,,,a,1,"[""0.324"",""0.710"",""0.597"",""0.917""]","[1,0,1,1]",0,29,29,29,1,0,1,,,1,FALSE,2.2401,,,,,,,,,,,,,,,,,,,,,,,,,,,,,,,
,616de7dd58e50154fe8baf24,627c6f69c4e16c9551ae7513,2022-05-11_19h29.40.861,classification_task,2021.2.3,Win32,59.79788315,627c6715c52fd12f31907bcf,,,,,,,,,,,,,,,,,,,,,,,a,1,"[""0.216"",""0.432"",""0.879"",""0.650""]","[1,1,1,0]",0,30,30,30,1,0,0,,,1,FALSE,0.7949,,,,,,,,,,,,,,,,,,,,,,,,,,,,,,,
,616de7dd58e50154fe8baf24,627c6f69c4e16c9551ae7513,2022-05-11_19h29.40.861,classification_task,2021.2.3,Win32,59.79788315,627c6715c52fd12f31907bcf,,,,,,,,,,,,,,,,,,,,,,,l,0,"[""0.216"",""0.432"",""0.287"",""0.951""]","[1,1,0,1]",0,31,31,31,1,0,0,,,1,FALSE,0.8887,,,,,,,,,,,,,,,,,,,,,,,,,,,,,,,
,616de7dd58e50154fe8baf24,627c6f69c4e16c9551ae7513,2022-05-11_19h29.40.861,classification_task,2021.2.3,Win32,59.79788315,627c6715c52fd12f31907bcf,,,,,,,,,,,,,,,,,,,,,,,l,1,"[""0.650"",""0.164"",""0.469"",""0.832""]","[0,1,1,1]",0,32,32,32,1,1,1,,,1,FALSE,0.9563,,,,,,,,,,,,,,,,,,,,,,,,,,,,,,,
,616de7dd58e50154fe8baf24,627c6f69c4e16c9551ae7513,2022-05-11_19h29.40.861,classification_task,2021.2.3,Win32,59.79788315,627c6715c52fd12f31907bcf,,,,,,,,,,,,,,,,,,,,,,,l,1,"[""0.047"",""0.164"",""0.469"",""0.357""]","[1,1,1,0]",0,33,33,33,1,1,1,,,1,FALSE,0.8461,,,,,,,,,,,,,,,,,,,,,,,,,,,,,,,
,616de7dd58e50154fe8baf24,627c6f69c4e16c9551ae7513,2022-05-11_19h29.40.861,classification_task,2021.2.3,Win32,59.79788315,627c6715c52fd12f31907bcf,,,,,,,,,,,,,,,,,,,,,,,a,0,"[""0.645"",""0.252"",""0.550"",""0.761""]","[0,1,1,1]",0,34,34,34,1,1,0,,,1,FALSE,1.2751,,,,,,,,,,,,,,,,,,,,,,,,,,,,,,,
,616de7dd58e50154fe8baf24,627c6f69c4e16c9551ae7513,2022-05-11_19h29.40.861,classification_task,2021.2.3,Win32,59.79788315,627c6715c52fd12f31907bcf,,,,,,,,,,,,,,,,,,,,,,,l,1,"[""0.101"",""0.252"",""0.357"",""0.761""]","[1,1,0,1]",0,35,35,35,1,1,0,,,1,FALSE,0.8454,,,,,,,,,,,,,,,,,,,,,,,,,,,,,,,
,616de7dd58e50154fe8baf24,627c6f69c4e16c9551ae7513,2022-05-11_19h29.40.861,classification_task,2021.2.3,Win32,59.79788315,627c6715c52fd12f31907bcf,,,,,,,,,,,,,,,,,,,,,,,l,0,"[""0.714"",""0.398"",""0.597"",""0.917""]","[0,1,1,1]",0,36,36,36,1,0,1,,,1,FALSE,1.2843,,,,,,,,,,,,,,,,,,,,,,,,,,,,,,,
,616de7dd58e50154fe8baf24,627c6f69c4e16c9551ae7513,2022-05-11_19h29.40.861,classification_task,2021.2.3,Win32,59.79788315,627c6715c52fd12f31907bcf,,,,,,,,,,,,,,,,,,,,,,,a,1,"[""0.216"",""0.642"",""0.879"",""0.951""]","[1,0,1,1]",0,37,37,37,1,0,0,,,1,FALSE,0.6135,,,,,,,,,,,,,,,,,,,,,,,,,,,,,,,
,616de7dd58e50154fe8baf24,627c6f69c4e16c9551ae7513,2022-05-11_19h29.40.861,classification_task,2021.2.3,Win32,59.79788315,627c6715c52fd12f31907bcf,,,,,,,,,,,,,,,,,,,,,,,a,1,"[""0.324"",""0.398"",""0.597"",""0.644""]","[1,1,1,0]",0,38,38,38,1,0,1,,,1,FALSE,1.1602,,,,,,,,,,,,,,,,,,,,,,,,,,,,,,,
,616de7dd58e50154fe8baf24,627c6f69c4e16c9551ae7513,2022-05-11_19h29.40.861,classification_task,2021.2.3,Win32,59.79788315,627c6715c52fd12f31907bcf,,,,,,,,,,,,,,,,,,,,,,,l,1,"[""0.047"",""0.504"",""0.469"",""0.832""]","[1,0,1,1]",0,39,39,39,1,1,1,,,1,FALSE,0.783,,,,,,,,,,,,,,,,,,,,,,,,,,,,,,,
,616de7dd58e50154fe8baf24,627c6f69c4e16c9551ae7513,2022-05-11_19h29.40.861,classification_task,2021.2.3,Win32,59.79788315,627c6715c52fd12f31907bcf,,,,,,,,,,,,,,,,,,,,,,,l,0,"[""0.644"",""0.432"",""0.879"",""0.951""]","[0,1,1,1]",0,40,40,40,1,0,0,,,1,FALSE,0.9958,,,,,,,,,,,,,,,,,,,,,,,,,,,,,,,
,616de7dd58e50154fe8baf24,627c6f69c4e16c9551ae7513,2022-05-11_19h29.40.861,classification_task,2021.2.3,Win32,59.79788315,627c6715c52fd12f31907bcf,,,,,,,,,,,,,,,,,,,,,,,a,1,"[""0.216"",""0.432"",""0.652"",""0.951""]","[1,1,0,1]",0,41,41,41,1,0,0,,,1,FALSE,0.7093,,,,,,,,,,,,,,,,,,,,,,,,,,,,,,,
,616de7dd58e50154fe8baf24,627c6f69c4e16c9551ae7513,2022-05-11_19h29.40.861,classification_task,2021.2.3,Win32,59.79788315,627c6715c52fd12f31907bcf,,,,,,,,,,,,,,,,,,,,,,,l,1,"[""0.047"",""0.164"",""0.644"",""0.832""]","[1,1,0,1]",0,42,42,42,1,1,1,,,1,FALSE,0.7149,,,,,,,,,,,,,,,,,,,,,,,,,,,,,,,
,616de7dd58e50154fe8baf24,627c6f69c4e16c9551ae7513,2022-05-11_19h29.40.861,classification_task,2021.2.3,Win32,59.79788315,627c6715c52fd12f31907bcf,,,,,,,,,,,,,,,,,,,,,,,l,0,"[""0.324"",""0.398"",""0.644"",""0.917""]","[1,1,0,1]",0,43,43,43,1,0,1,,,1,FALSE,2.065,,,,,,,,,,,,,,,,,,,,,,,,,,,,,,,
,616de7dd58e50154fe8baf24,627c6f69c4e16c9551ae7513,2022-05-11_19h29.40.861,classification_task,2021.2.3,Win32,59.79788315,627c6715c52fd12f31907bcf,,,,,,,,,,,,,,,,,,,,,,,l,1,"[""0.101"",""0.252"",""0.550"",""0.360""]","[1,1,1,0]",0,44,44,44,1,1,0,,,1,FALSE,0.812,,,,,,,,,,,,,,,,,,,,,,,,,,,,,,,
,616de7dd58e50154fe8baf24,627c6f69c4e16c9551ae7513,2022-05-11_19h29.40.861,classification_task,2021.2.3,Win32,59.79788315,627c6715c52fd12f31907bcf,,,,,,,,,,,,,,,,,,,,,,,a,1,"[""0.324"",""0.650"",""0.597"",""0.917""]","[1,0,1,1]",0,45,45,45,1,0,1,,,1,FALSE,0.6393,,,,,,,,,,,,,,,,,,,,,,,,,,,,,,,
,616de7dd58e50154fe8baf24,627c6f69c4e16c9551ae7513,2022-05-11_19h29.40.861,classification_task,2021.2.3,Win32,59.79788315,627c6715c52fd12f31907bcf,,,,,,,,,,,,,,,,,,,,,,,l,1,"[""0.101"",""0.714"",""0.550"",""0.761""]","[1,0,1,1]",0,46,46,46,1,1,0,,,1,FALSE,0.7704,,,,,,,,,,,,,,,,,,,,,,,,,,,,,,,
,616de7dd58e50154fe8baf24,627c6f69c4e16c9551ae7513,2022-05-11_19h29.40.861,classification_task,2021.2.3,Win32,59.79788315,627c6715c52fd12f31907bcf,,,,,,,,,,,,,,,,,,,,,,,a,1,"[""0.216"",""0.432"",""0.879"",""0.650""]","[1,1,1,0]",0,47,47,47,1,0,0,,,1,FALSE,0.8629,,,,,,,,,,,,,,,,,,,,,,,,,,,,,,,
,616de7dd58e50154fe8baf24,627c6f69c4e16c9551ae7513,2022-05-11_19h29.40.861,classification_task,2021.2.3,Win32,59.79788315,627c6715c52fd12f31907bcf,,,,,,,,,,,,,,,,,,,,,,,l,1,"[""0.047"",""0.164"",""0.652"",""0.832""]","[1,1,0,1]",0,48,48,48,1,1,1,,,1,FALSE,0.7274,,,,,,,,,,,,,,,,,,,,,,,,,,,,,,,
,616de7dd58e50154fe8baf24,627c6f69c4e16c9551ae7513,2022-05-11_19h29.40.861,classification_task,2021.2.3,Win32,59.79788315,627c6715c52fd12f31907bcf,,,,,,,,,,,,,,,,,,,,,,,l,1,"[""0.101"",""0.252"",""0.550"",""0.710""]","[1,1,1,0]",0,49,49,49,1,1,0,,,1,FALSE,0.8745,,,,,,,,,,,,,,,,,,,,,,,,,,,,,,,
,616de7dd58e50154fe8baf24,627c6f69c4e16c9551ae7513,2022-05-11_19h29.40.861,classification_task,2021.2.3,Win32,59.79788315,627c6715c52fd12f31907bcf,,,,,,,,,,,,,,,,,,,,,,,l,1,"[""0.047"",""0.164"",""0.469"",""0.644""]","[1,1,1,0]",0,50,50,50,1,1,1,,,1,FALSE,0.7046,,,,,,,,,,,,,,,,,,,,,,,,,,,,,,,
,616de7dd58e50154fe8baf24,627c6f69c4e16c9551ae7513,2022-05-11_19h29.40.861,classification_task,2021.2.3,Win32,59.79788315,627c6715c52fd12f31907bcf,,,,,,,,,,,,,,,,,,,,,,,a,0,"[""0.645"",""0.164"",""0.469"",""0.832""]","[0,1,1,1]",0,51,51,51,1,1,1,,,1,FALSE,2.9872,,,,,,,,,,,,,,,,,,,,,,,,,,,,,,,
,616de7dd58e50154fe8baf24,627c6f69c4e16c9551ae7513,2022-05-11_19h29.40.861,classification_task,2021.2.3,Win32,59.79788315,627c6715c52fd12f31907bcf,,,,,,,,,,,,,,,,,,,,,,,l,1,"[""0.101"",""0.252"",""0.644"",""0.761""]","[1,1,0,1]",0,52,52,52,1,1,0,,,1,FALSE,0.691,,,,,,,,,,,,,,,,,,,,,,,,,,,,,,,
,616de7dd58e50154fe8baf24,627c6f69c4e16c9551ae7513,2022-05-11_19h29.40.861,classification_task,2021.2.3,Win32,59.79788315,627c6715c52fd12f31907bcf,,,,,,,,,,,,,,,,,,,,,,,a,1,"[""0.216"",""0.432"",""0.504"",""0.951""]","[1,1,0,1]",0,53,53,53,1,0,0,,,1,FALSE,0.7016,,,,,,,,,,,,,,,,,,,,,,,,,,,,,,,
,616de7dd58e50154fe8baf24,627c6f69c4e16c9551ae7513,2022-05-11_19h29.40.861,classification_task,2021.2.3,Win32,59.79788315,627c6715c52fd12f31907bcf,,,,,,,,,,,,,,,,,,,,,,,a,1,"[""0.216"",""0.360"",""0.879"",""0.951""]","[1,0,1,1]",0,54,54,54,1,0,0,,,1,FALSE,0.9267,,,,,,,,,,,,,,,,,,,,,,,,,,,,,,,
,616de7dd58e50154fe8baf24,627c6f69c4e16c9551ae7513,2022-05-11_19h29.40.861,classification_task,2021.2.3,Win32,59.79788315,627c6715c52fd12f31907bcf,,,,,,,,,,,,,,,,,,,,,,,l,0,"[""0.645"",""0.432"",""0.879"",""0.951""]","[0,1,1,1]",0,55,55,55,1,0,0,,,1,FALSE,0.729,,,,,,,,,,,,,,,,,,,,,,,,,,,,,,,
,616de7dd58e50154fe8baf24,627c6f69c4e16c9551ae7513,2022-05-11_19h29.40.861,classification_task,2021.2.3,Win32,59.79788315,627c6715c52fd12f31907bcf,,,,,,,,,,,,,,,,,,,,,,,l,0,"[""0.324"",""0.398"",""0.650"",""0.917""]","[1,1,0,1]",0,56,56,56,1,0,1,,,1,FALSE,1.2248,,,,,,,,,,,,,,,,,,,,,,,,,,,,,,,
,616de7dd58e50154fe8baf24,627c6f69c4e16c9551ae7513,2022-05-11_19h29.40.861,classification_task,2021.2.3,Win32,59.79788315,627c6715c52fd12f31907bcf,,,,,,,,,,,,,,,,,,,,,,,l,0,"[""0.324"",""0.398"",""0.597"",""0.287""]","[1,1,1,0]",0,57,57,57,1,0,1,,,1,FALSE,0.7586,,,,,,,,,,,,,,,,,,,,,,,,,,,,,,,
,616de7dd58e50154fe8baf24,627c6f69c4e16c9551ae7513,2022-05-11_19h29.40.861,classification_task,2021.2.3,Win32,59.79788315,627c6715c52fd12f31907bcf,,,,,,,,,,,,,,,,,,,,,,,a,0,"[""0.645"",""0.252"",""0.550"",""0.761""]","[0,1,1,1]",0,58,58,58,1,1,0,,,1,FALSE,0.7502,,,,,,,,,,,,,,,,,,,,,,,,,,,,,,,
,616de7dd58e50154fe8baf24,627c6f69c4e16c9551ae7513,2022-05-11_19h29.40.861,classification_task,2021.2.3,Win32,59.79788315,627c6715c52fd12f31907bcf,,,,,,,,,,,,,,,,,,,,,,,l,0,"[""0.650"",""0.398"",""0.597"",""0.917""]","[0,1,1,1]",0,59,59,59,1,0,1,,,1,FALSE,0.8461,,,,,,,,,,,,,,,,,,,,,,,,,,,,,,,
,616de7dd58e50154fe8baf24,627c6f69c4e16c9551ae7513,2022-05-11_19h29.40.861,classification_task,2021.2.3,Win32,59.79788315,627c6715c52fd12f31907bcf,,,,,,,,,,,,,,,,,,,,,,,l,1,"[""0.101"",""0.644"",""0.550"",""0.761""]","[1,0,1,1]",0,60,60,60,1,1,0,,,1,FALSE,1.0346,,,,,,,,,,,,,,,,,,,,,,,,,,,,,,,
,616de7dd58e50154fe8baf24,627c6f69c4e16c9551ae7513,2022-05-11_19h29.40.861,classification_task,2021.2.3,Win32,59.79788315,627c6715c52fd12f31907bcf,,,,,,,,,,,,,,,,,,,,,,,a,1,"[""0.216"",""0.432"",""0.879"",""0.360""]","[1,1,1,0]",0,61,61,61,1,0,0,,,1,FALSE,0.5852,,,,,,,,,,,,,,,,,,,,,,,,,,,,,,,
,616de7dd58e50154fe8baf24,627c6f69c4e16c9551ae7513,2022-05-11_19h29.40.861,classification_task,2021.2.3,Win32,59.79788315,627c6715c52fd12f31907bcf,,,,,,,,,,,,,,,,,,,,,,,l,1,"[""0.047"",""0.650"",""0.469"",""0.832""]","[1,0,1,1]",0,62,62,62,1,1,1,,,1,FALSE,0.6945,,,,,,,,,,,,,,,,,,,,,,,,,,,,,,,
,616de7dd58e50154fe8baf24,627c6f69c4e16c9551ae7513,2022-05-11_19h29.40.861,classification_task,2021.2.3,Win32,59.79788315,627c6715c52fd12f31907bcf,,,,,,,,,,,,,,,,,,,,,,,l,0,"[""0.324"",""0.287"",""0.597"",""0.917""]","[1,0,1,1]",0,63,63,63,1,0,1,,,1,FALSE,0.8445,,,,,,,,,,,,,,,,,,,,,,,,,,,,,,,
,616de7dd58e50154fe8baf24,627c6f69c4e16c9551ae7513,2022-05-11_19h29.40.861,classification_task,2021.2.3,Win32,59.79788315,627c6715c52fd12f31907bcf,,,,,,,,,,,,,,,,,,,,,,,,,,,,,,,,,,,,,,,0, ,,0,3.590675912,154.4999,0,2,2,2,1,2,3,,,,,,,,,,,,,,,,,,
,616de7dd58e50154fe8baf24,627c6f69c4e16c9551ae7513,2022-05-11_19h29.40.861,classification_task,2021.2.3,Win32,59.79788315,627c6715c52fd12f31907bcf,,,,,,,,,,,,,,,,,,,,,,,,,,,,,,,,,,,,,,,1,  ,,0,8.503177019,157.0031,0,2,2,2,1,2,3,,,,,,,,,,,,,,,,,,
,616de7dd58e50154fe8baf24,627c6f69c4e16c9551ae7513,2022-05-11_19h29.40.861,classification_task,2021.2.3,Win32,59.79788315,627c6715c52fd12f31907bcf,,,,,,,,,,,,,,,,,,,,,,,,,,,,,,,,,,,,,,,2,  ,,0,9.348771472,159.8813,0,2,2,2,1,2,3,,,,,,,,,,,,,,,,,,
,616de7dd58e50154fe8baf24,627c6f69c4e16c9551ae7513,2022-05-11_19h29.40.861,classification_task,2021.2.3,Win32,59.79788315,627c6715c52fd12f31907bcf,,,,,,,,,,,,,,,,,,,,,,,,,,,,,,,,,,,,,,,,,,,,,0,2,2,2,1,,3,,,,,,,,,,,,,,,,,,
,616de7dd58e50154fe8baf24,627c6f69c4e16c9551ae7513,2022-05-11_19h29.40.861,classification_task,2021.2.3,Win32,59.79788315,627c6715c52fd12f31907bcf,,,,,,,,,,,,,,,,,,,,,,,,,,,,,,,,,,,,,,,,,,,,,,,,,,,,,I believe the aid is a competent performer,,0.7,0,3,799.7274,0,0,0,0,1,0,,,,,
,616de7dd58e50154fe8baf24,627c6f69c4e16c9551ae7513,2022-05-11_19h29.40.861,classification_task,2021.2.3,Win32,59.79788315,627c6715c52fd12f31907bcf,,,,,,,,,,,,,,,,,,,,,,,,,,,,,,,,,,,,,,,,,,,,,,,,,,,,,I trust the aid,,0.7,0,3,814.1654,0,0,0,0,1,0,,,,,
,616de7dd58e50154fe8baf24,627c6f69c4e16c9551ae7513,2022-05-11_19h29.40.861,classification_task,2021.2.3,Win32,59.79788315,627c6715c52fd12f31907bcf,,,,,,,,,,,,,,,,,,,,,,,,,,,,,,,,,,,,,,,,,,,,,,,,,,,,,I have confidence in the advice given by the aid,,0.7,0,2,810.098,0,0,0,0,1,0,,,,,
,616de7dd58e50154fe8baf24,627c6f69c4e16c9551ae7513,2022-05-11_19h29.40.861,classification_task,2021.2.3,Win32,59.79788315,627c6715c52fd12f31907bcf,,,,,,,,,,,,,,,,,,,,,,,,,,,,,,,,,,,,,,,,,,,,,,,,,,,,,I can depend on the aid,,0.7,0,2,802.7786,0,0,0,0,1,0,,,,,
,616de7dd58e50154fe8baf24,627c6f69c4e16c9551ae7513,2022-05-11_19h29.40.861,classification_task,2021.2.3,Win32,59.79788315,627c6715c52fd12f31907bcf,,,,,,,,,,,,,,,,,,,,,,,,,,,,,,,,,,,,,,,,,,,,,,,,,,,,,I can rely on the aid to behave in consistent ways,,0.7,0,3,823.4189,0,0,0,0,1,0,,,,,
,616de7dd58e50154fe8baf24,627c6f69c4e16c9551ae7513,2022-05-11_19h29.40.861,classification_task,2021.2.3,Win32,59.79788315,627c6715c52fd12f31907bcf,,,,,,,,,,,,,,,,,,,,,,,,,,,,,,,,,,,,,,,,,,,,,,,,,,,,,I can rely on the aid to do its best every time I take its advice,,0.7,0,2,819.1776,0,0,0,0,1,0,,,,,
,616de7dd58e50154fe8baf24,627c6f69c4e16c9551ae7513,2022-05-11_19h29.40.861,classification_task,2021.2.3,Win32,59.79788315,627c6715c52fd12f31907bcf,,,,,,,,,,,,,,,,,,,,,,,,,,,,,,,,,,,,,,,,,,,,,,,,,,,,,"On trials you completed with assistance from the aid, how frequently did you think the aid was correct?",,0.7,0,75%,,0,0,0,0,1,0,,,,,
,616de7dd58e50154fe8baf24,627c6f69c4e16c9551ae7513,2022-05-11_19h29.40.861,classification_task,2021.2.3,Win32,59.79788315,627c6715c52fd12f31907bcf,,,,,,,,,,,,,,,,,,,,,,,,,,,,,,,,,,,,,,,,,,,,,,,,,,,,,"On trials you completed without the aid, how frequently did you think you were correct?",,0.7,0,60%,,0,0,0,0,1,0,,,,,
,616de7dd58e50154fe8baf24,627c6f69c4e16c9551ae7513,2022-05-11_19h29.40.861,classification_task,2021.2.3,Win32,59.79788315,627c6715c52fd12f31907bcf,,,,,,,,,,,,,,,,,,,,,,,,,,,,,,,,,,,,,,,,,,,,,,,,,,,,,,,,,,,0,0,0,0,1,,,,,,
,616de7dd58e50154fe8baf24,627c6f69c4e16c9551ae7513,2022-05-11_19h29.40.861,classification_task,2021.2.3,Win32,59.79788315,627c6715c52fd12f31907bcf,,,,,,,,,,,,,,,,,,,,,,,,,,,,,,,,,,,,,,,,,,,,,,,,,,,,,,,,,,,,,,,,,space,10.7757,858.5896,,
,616de7dd58e50154fe8baf24,627c6f69c4e16c9551ae7513,2022-05-11_19h29.40.861,classification_task,2021.2.3,Win32,59.79788315,627c6715c52fd12f31907bcf,,,,,,,,,,,,,,,,,,,,,,,,,,,,,,,,,,,,,,,,,,,,,,,,,,,,,,,,,,,,,,,,,,,,"Mozilla/5.0 (Windows NT 10.0; Win64; x64) AppleWebKit/537.36 (KHTML, like Gecko) Chrome/101.0.4951.54 Safari/537.36 Edg/101.0.1210.39",
,616de7dd58e50154fe8baf24,627c6f69c4e16c9551ae7513,2022-05-11_19h29.40.861,classification_task,2021.2.3,Win32,59.79788315,627c6715c52fd12f31907bcf,,,,,,,,,,,,,,,,,,,,,,,,,,,,,,,,,,,,,,,,,,,,,,,,,,,,,,,,,,,,,,,,,,,,,LOWLIGHT
