usingWebGL,participant,session,date,expName,psychopyVersion,OS,frameRate,study_id,signatures_friend,signatures_foe,band_ranges_top,band_ranges_bottom,formitemText,formtype,formundefined,formitemWidth,formindex,formresponse,formrt,key_resp_2.keys,key_resp_2.rt,tute_resp.keys,tute_resp.rt,tutorial.thisRepN,tutorial.thisTrialN,tutorial.thisN,tutorial.thisIndex,tutorial.ran,key_resp_4.keys,key_resp_4.rt,key_resp.keys,key_resp.corr,key_resp.rt,lines_presented,is_signal_presented,trials.thisRepN,trials.thisTrialN,trials.thisN,trials.thisIndex,trials.ran,vessel,active_band,lines,is_signal,supported_pos,catch_trial,debrief_formindex,debrief_formitemText,debrief_formtype,debrief_formitemWidth,debrief_formresponse,debrief_formrt,phases.thisRepN,phases.thisTrialN,phases.thisN,phases.thisIndex,phases.ran,phases.order,phase,key_resp_3.keys,trustitemText,trusttype,trustitemWidth,trustindex,trustresponse,trustrt,support_status.thisRepN,support_status.thisTrialN,support_status.thisN,support_status.thisIndex,support_status.ran,support_status.order,key_resp_5.keys,key_resp_5.rt,globalClockTime,userAgent,manualCondition
TRUE,616dea1ca454941d90877b73,627c698d974f31a5b4d7f915,2022-05-11_21h01.24.697,classification_task,2021.2.3,Win32,47.47436384,627c6715c52fd12f31907bd0,,,,,,,,,,,,,,,,,,,,,,,,,,,,,,,,,,,,,,,,,,,,,,,,,,,,,,,,,,,,,,,,,,,,,
,616dea1ca454941d90877b73,627c698d974f31a5b4d7f915,2022-05-11_21h01.24.697,classification_task,2021.2.3,Win32,47.47436384,627c6715c52fd12f31907bd0,"[[""0.208"",""0.464"",""0.788"",""0.888""],[""0.302"",""0.396"",""0.597"",""0.943""]]","[[""0.094"",""0.360"",""0.521"",""0.721""],[""0.142"",""0.247"",""0.633"",""0.685""]]","[1,10]","[100,1000]",Video game experience,,,0.7,0,,,,,,,,,,,,,,,,,,,,,,,,,,,,,,,,,,,,,,,,,,,,,,,,,,,,,,,,,,,,
,616dea1ca454941d90877b73,627c698d974f31a5b4d7f915,2022-05-11_21h01.24.697,classification_task,2021.2.3,Win32,47.47436384,627c6715c52fd12f31907bd0,,,,,Approximately how many hours did you spend playing video games in the last week?,,,0.7,0,0,,,,,,,,,,,,,,,,,,,,,,,,,,,,,,,,,,,,,,,,,,,,,,,,,,,,,,,,,,,
,616dea1ca454941d90877b73,627c698d974f31a5b4d7f915,2022-05-11_21h01.24.697,classification_task,2021.2.3,Win32,47.47436384,627c6715c52fd12f31907bd0,,,,,"Which game did you play the most this year? (Enter ""None"" if you didn't play any)",,,0.7,0,None,,,,,,,,,,,,,,,,,,,,,,,,,,,,,,,,,,,,,,,,,,,,,,,,,,,,,,,,,,,
,616dea1ca454941d90877b73,627c698d974f31a5b4d7f915,2022-05-11_21h01.24.697,classification_task,2021.2.3,Win32,47.47436384,627c6715c52fd12f31907bd0,,,,,Visual perception,,,0.7,0,,,,,,,,,,,,,,,,,,,,,,,,,,,,,,,,,,,,,,,,,,,,,,,,,,,,,,,,,,,,
,616dea1ca454941d90877b73,627c698d974f31a5b4d7f915,2022-05-11_21h01.24.697,classification_task,2021.2.3,Win32,47.47436384,627c6715c52fd12f31907bd0,,,,,Do you have any form of color blindness?,,,0.7,0,No,55.1486,,,,,,,,,,,,,,,,,,,,,,,,,,,,,,,,,,,,,,,,,,,,,,,,,,,,,,,,,,
,616dea1ca454941d90877b73,627c698d974f31a5b4d7f915,2022-05-11_21h01.24.697,classification_task,2021.2.3,Win32,47.47436384,627c6715c52fd12f31907bd0,,,,,Do you use software to change the colour temperature of your screen (e.g. f.lux)?,,,0.7,0,Yes,52.9805,,,,,,,,,,,,,,,,,,,,,,,,,,,,,,,,,,,,,,,,,,,,,,,,,,,,,,,,,,
,616dea1ca454941d90877b73,627c698d974f31a5b4d7f915,2022-05-11_21h01.24.697,classification_task,2021.2.3,Win32,47.47436384,627c6715c52fd12f31907bd0,,,,,,,,,,,,space,123.5673,space,19.8434,0,0,0,0,1,,,,,,,,,,,,,,,,,,,,,,,,,,,,,,,,,,,,,,,,,,,,,,,,,
,616dea1ca454941d90877b73,627c698d974f31a5b4d7f915,2022-05-11_21h01.24.697,classification_task,2021.2.3,Win32,47.47436384,627c6715c52fd12f31907bd0,,,,,,,,,,,,,,space,12.1325,1,0,1,0,1,,,,,,,,,,,,,,,,,,,,,,,,,,,,,,,,,,,,,,,,,,,,,,,,,
,616dea1ca454941d90877b73,627c698d974f31a5b4d7f915,2022-05-11_21h01.24.697,classification_task,2021.2.3,Win32,47.47436384,627c6715c52fd12f31907bd0,,,,,,,,,,,,,,space,43.1911,2,0,2,0,1,,,,,,,,,,,,,,,,,,,,,,,,,,,,,,,,,,,,,,,,,,,,,,,,,
,616dea1ca454941d90877b73,627c698d974f31a5b4d7f915,2022-05-11_21h01.24.697,classification_task,2021.2.3,Win32,47.47436384,627c6715c52fd12f31907bd0,,,,,,,,,,,,,,space,11.8721,3,0,3,0,1,,,,,,,,,,,,,,,,,,,,,,,,,,,,,,,,,,,,,,,,,,,,,,,,,
,616dea1ca454941d90877b73,627c698d974f31a5b4d7f915,2022-05-11_21h01.24.697,classification_task,2021.2.3,Win32,47.47436384,627c6715c52fd12f31907bd0,,,,,,,,,,,,,,space,20.3731,4,0,4,0,1,,,,,,,,,,,,,,,,,,,,,,,,,,,,,,,,,,,,,,,,,,,,,,,,,
,616dea1ca454941d90877b73,627c698d974f31a5b4d7f915,2022-05-11_21h01.24.697,classification_task,2021.2.3,Win32,47.47436384,627c6715c52fd12f31907bd0,,,,,,,,,,,,,,,,,,,,,space,26.6548,l,1,6.4596,"[""0.032"",""0.360"",""0.521"",""0.721""]","[0,1,1,1]",0,0,0,0,1,1,0,,,0,FALSE,,,,,,,,,,,,,,,,,,,,,,,,,,,,,,,
,616dea1ca454941d90877b73,627c698d974f31a5b4d7f915,2022-05-11_21h01.24.697,classification_task,2021.2.3,Win32,47.47436384,627c6715c52fd12f31907bd0,,,,,,,,,,,,,,,,,,,,,,,,0,,"[""0.094"",""0.360"",""0.032"",""0.721""]","[1,1,0,1]",0,1,1,1,1,1,0,,,0,FALSE,,,,,,,,,,,,,,,,,,,,,,,,,,,,,,,
,616dea1ca454941d90877b73,627c698d974f31a5b4d7f915,2022-05-11_21h01.24.697,classification_task,2021.2.3,Win32,47.47436384,627c6715c52fd12f31907bd0,,,,,,,,,,,,,,,,,,,,,,,l,0,3.0026,"[""0.208"",""0.037"",""0.788"",""0.888""]","[1,0,1,1]",0,2,2,2,1,0,0,,,0,FALSE,,,,,,,,,,,,,,,,,,,,,,,,,,,,,,,
,616dea1ca454941d90877b73,627c698d974f31a5b4d7f915,2022-05-11_21h01.24.697,classification_task,2021.2.3,Win32,47.47436384,627c6715c52fd12f31907bd0,,,,,,,,,,,,,,,,,,,,,,,l,1,7.4259,"[""0.142"",""0.247"",""0.633"",""0.037""]","[1,1,1,0]",0,3,3,3,1,1,1,,,0,FALSE,,,,,,,,,,,,,,,,,,,,,,,,,,,,,,,
,616dea1ca454941d90877b73,627c698d974f31a5b4d7f915,2022-05-11_21h01.24.697,classification_task,2021.2.3,Win32,47.47436384,627c6715c52fd12f31907bd0,,,,,,,,,,,,,,,,,,,,,,,l,0,5.4406,"[""0.302"",""0.849"",""0.597"",""0.943""]","[1,0,1,1]",0,4,4,4,1,0,1,,,0,FALSE,,,,,,,,,,,,,,,,,,,,,,,,,,,,,,,
,616dea1ca454941d90877b73,627c698d974f31a5b4d7f915,2022-05-11_21h01.24.697,classification_task,2021.2.3,Win32,47.47436384,627c6715c52fd12f31907bd0,,,,,,,,,,,,,,,,,,,,,,,l,1,5.2477,"[""0.142"",""0.247"",""0.828"",""0.685""]","[1,1,0,1]",0,5,5,5,1,1,1,,,0,FALSE,,,,,,,,,,,,,,,,,,,,,,,,,,,,,,,
,616dea1ca454941d90877b73,627c698d974f31a5b4d7f915,2022-05-11_21h01.24.697,classification_task,2021.2.3,Win32,47.47436384,627c6715c52fd12f31907bd0,,,,,,,,,,,,,,,,,,,,,,,l,1,3.7192,"[""0.094"",""0.360"",""0.521"",""0.031""]","[1,1,1,0]",0,6,6,6,1,1,0,,,0,FALSE,,,,,,,,,,,,,,,,,,,,,,,,,,,,,,,
,616dea1ca454941d90877b73,627c698d974f31a5b4d7f915,2022-05-11_21h01.24.697,classification_task,2021.2.3,Win32,47.47436384,627c6715c52fd12f31907bd0,,,,,,,,,,,,,,,,,,,,,,,a,0,6.0589,"[""0.142"",""0.849"",""0.633"",""0.685""]","[1,0,1,1]",0,7,7,7,1,1,1,,,0,FALSE,,,,,,,,,,,,,,,,,,,,,,,,,,,,,,,
,616dea1ca454941d90877b73,627c698d974f31a5b4d7f915,2022-05-11_21h01.24.697,classification_task,2021.2.3,Win32,47.47436384,627c6715c52fd12f31907bd0,,,,,,,,,,,,,,,,,,,,,,,a,1,8.1947,"[""0.302"",""0.396"",""0.842"",""0.943""]","[1,1,0,1]",0,8,8,8,1,0,1,,,0,FALSE,,,,,,,,,,,,,,,,,,,,,,,,,,,,,,,
,616dea1ca454941d90877b73,627c698d974f31a5b4d7f915,2022-05-11_21h01.24.697,classification_task,2021.2.3,Win32,47.47436384,627c6715c52fd12f31907bd0,,,,,,,,,,,,,,,,,,,,,,,a,1,5.1981,"[""0.302"",""0.396"",""0.597"",""0.032""]","[1,1,1,0]",0,9,9,9,1,0,1,,,0,FALSE,,,,,,,,,,,,,,,,,,,,,,,,,,,,,,,
,616dea1ca454941d90877b73,627c698d974f31a5b4d7f915,2022-05-11_21h01.24.697,classification_task,2021.2.3,Win32,47.47436384,627c6715c52fd12f31907bd0,,,,,,,,,,,,,,,,,,,,,,,a,1,3.4436,"[""0.208"",""0.464"",""0.828"",""0.888""]","[1,1,0,1]",0,10,10,10,1,0,0,,,0,FALSE,,,,,,,,,,,,,,,,,,,,,,,,,,,,,,,
,616dea1ca454941d90877b73,627c698d974f31a5b4d7f915,2022-05-11_21h01.24.697,classification_task,2021.2.3,Win32,47.47436384,627c6715c52fd12f31907bd0,,,,,,,,,,,,,,,,,,,,,,,a,1,4.8618,"[""0.827"",""0.396"",""0.597"",""0.943""]","[0,1,1,1]",0,11,11,11,1,0,1,,,0,FALSE,,,,,,,,,,,,,,,,,,,,,,,,,,,,,,,
,616dea1ca454941d90877b73,627c698d974f31a5b4d7f915,2022-05-11_21h01.24.697,classification_task,2021.2.3,Win32,47.47436384,627c6715c52fd12f31907bd0,,,,,,,,,,,,,,,,,,,,,,,a,1,4.757,"[""0.430"",""0.464"",""0.788"",""0.888""]","[0,1,1,1]",0,12,12,12,1,0,0,,,0,FALSE,,,,,,,,,,,,,,,,,,,,,,,,,,,,,,,
,616dea1ca454941d90877b73,627c698d974f31a5b4d7f915,2022-05-11_21h01.24.697,classification_task,2021.2.3,Win32,47.47436384,627c6715c52fd12f31907bd0,,,,,,,,,,,,,,,,,,,,,,,a,0,4.8399,"[""0.094"",""0.822"",""0.521"",""0.721""]","[1,0,1,1]",0,13,13,13,1,1,0,,,0,FALSE,,,,,,,,,,,,,,,,,,,,,,,,,,,,,,,
,616dea1ca454941d90877b73,627c698d974f31a5b4d7f915,2022-05-11_21h01.24.697,classification_task,2021.2.3,Win32,47.47436384,627c6715c52fd12f31907bd0,,,,,,,,,,,,,,,,,,,,,,,l,1,5.0033,"[""0.826"",""0.247"",""0.633"",""0.685""]","[0,1,1,1]",0,14,14,14,1,1,1,,,0,FALSE,,,,,,,,,,,,,,,,,,,,,,,,,,,,,,,
,616dea1ca454941d90877b73,627c698d974f31a5b4d7f915,2022-05-11_21h01.24.697,classification_task,2021.2.3,Win32,47.47436384,627c6715c52fd12f31907bd0,,,,,,,,,,,,,,,,,,,,,,,a,1,4.546,"[""0.208"",""0.464"",""0.788"",""0.031""]","[1,1,1,0]",0,15,15,15,1,0,0,,,0,FALSE,,,,,,,,,,,,,,,,,,,,,,,,,,,,,,,
,616dea1ca454941d90877b73,627c698d974f31a5b4d7f915,2022-05-11_21h01.24.697,classification_task,2021.2.3,Win32,47.47436384,627c6715c52fd12f31907bd0,,,,,,,,,,,,,,,,,,,,,,,l,1,4.569,"[""0.142"",""0.247"",""0.633"",""0.055""]","[1,1,1,0]",0,16,16,16,1,1,1,,,0,FALSE,,,,,,,,,,,,,,,,,,,,,,,,,,,,,,,
,616dea1ca454941d90877b73,627c698d974f31a5b4d7f915,2022-05-11_21h01.24.697,classification_task,2021.2.3,Win32,47.47436384,627c6715c52fd12f31907bd0,,,,,,,,,,,,,,,,,,,,,,,a,1,5.9552,"[""0.302"",""0.396"",""0.826"",""0.943""]","[1,1,0,1]",0,17,17,17,1,0,1,,,0,FALSE,,,,,,,,,,,,,,,,,,,,,,,,,,,,,,,
,616dea1ca454941d90877b73,627c698d974f31a5b4d7f915,2022-05-11_21h01.24.697,classification_task,2021.2.3,Win32,47.47436384,627c6715c52fd12f31907bd0,,,,,,,,,,,,,,,,,,,,,,,a,1,7.4721,"[""0.302"",""0.031"",""0.597"",""0.943""]","[1,0,1,1]",0,18,18,18,1,0,1,,,0,FALSE,,,,,,,,,,,,,,,,,,,,,,,,,,,,,,,
,616dea1ca454941d90877b73,627c698d974f31a5b4d7f915,2022-05-11_21h01.24.697,classification_task,2021.2.3,Win32,47.47436384,627c6715c52fd12f31907bd0,,,,,,,,,,,,,,,,,,,,,,,l,1,4.5945,"[""0.094"",""0.360"",""0.521"",""0.849""]","[1,1,1,0]",0,19,19,19,1,1,0,,,0,FALSE,,,,,,,,,,,,,,,,,,,,,,,,,,,,,,,
,616dea1ca454941d90877b73,627c698d974f31a5b4d7f915,2022-05-11_21h01.24.697,classification_task,2021.2.3,Win32,47.47436384,627c6715c52fd12f31907bd0,,,,,,,,,,,,,,,,,,,,,,,a,1,5.8201,"[""0.032"",""0.396"",""0.597"",""0.943""]","[0,1,1,1]",0,20,20,20,1,0,1,,,0,FALSE,,,,,,,,,,,,,,,,,,,,,,,,,,,,,,,
,616dea1ca454941d90877b73,627c698d974f31a5b4d7f915,2022-05-11_21h01.24.697,classification_task,2021.2.3,Win32,47.47436384,627c6715c52fd12f31907bd0,,,,,,,,,,,,,,,,,,,,,,,a,1,4.3089,"[""0.208"",""0.842"",""0.788"",""0.888""]","[1,0,1,1]",0,21,21,21,1,0,0,,,0,FALSE,,,,,,,,,,,,,,,,,,,,,,,,,,,,,,,
,616dea1ca454941d90877b73,627c698d974f31a5b4d7f915,2022-05-11_21h01.24.697,classification_task,2021.2.3,Win32,47.47436384,627c6715c52fd12f31907bd0,,,,,,,,,,,,,,,,,,,,,,,a,1,3.2091,"[""0.208"",""0.464"",""0.037"",""0.888""]","[1,1,0,1]",0,22,22,22,1,0,0,,,0,FALSE,,,,,,,,,,,,,,,,,,,,,,,,,,,,,,,
,616dea1ca454941d90877b73,627c698d974f31a5b4d7f915,2022-05-11_21h01.24.697,classification_task,2021.2.3,Win32,47.47436384,627c6715c52fd12f31907bd0,,,,,,,,,,,,,,,,,,,,,,,a,0,3.8861,"[""0.094"",""0.037"",""0.521"",""0.721""]","[1,0,1,1]",0,23,23,23,1,1,0,,,0,FALSE,,,,,,,,,,,,,,,,,,,,,,,,,,,,,,,
,616dea1ca454941d90877b73,627c698d974f31a5b4d7f915,2022-05-11_21h01.24.697,classification_task,2021.2.3,Win32,47.47436384,627c6715c52fd12f31907bd0,,,,,,,,,,,,,,,,,,,,,,,l,1,3.8939,"[""0.827"",""0.360"",""0.521"",""0.721""]","[0,1,1,1]",0,24,24,24,1,1,0,,,0,FALSE,,,,,,,,,,,,,,,,,,,,,,,,,,,,,,,
,616dea1ca454941d90877b73,627c698d974f31a5b4d7f915,2022-05-11_21h01.24.697,classification_task,2021.2.3,Win32,47.47436384,627c6715c52fd12f31907bd0,,,,,,,,,,,,,,,,,,,,,,,a,1,5.3166,"[""0.037"",""0.464"",""0.788"",""0.888""]","[0,1,1,1]",0,25,25,25,1,0,0,,,0,FALSE,,,,,,,,,,,,,,,,,,,,,,,,,,,,,,,
,616dea1ca454941d90877b73,627c698d974f31a5b4d7f915,2022-05-11_21h01.24.697,classification_task,2021.2.3,Win32,47.47436384,627c6715c52fd12f31907bd0,,,,,,,,,,,,,,,,,,,,,,,a,0,4.761,"[""0.142"",""0.247"",""0.849"",""0.685""]","[1,1,0,1]",0,26,26,26,1,1,1,,,0,FALSE,,,,,,,,,,,,,,,,,,,,,,,,,,,,,,,
,616dea1ca454941d90877b73,627c698d974f31a5b4d7f915,2022-05-11_21h01.24.697,classification_task,2021.2.3,Win32,47.47436384,627c6715c52fd12f31907bd0,,,,,,,,,,,,,,,,,,,,,,,l,1,2.4844,"[""0.430"",""0.247"",""0.633"",""0.685""]","[0,1,1,1]",0,27,27,27,1,1,1,,,0,FALSE,,,,,,,,,,,,,,,,,,,,,,,,,,,,,,,
,616dea1ca454941d90877b73,627c698d974f31a5b4d7f915,2022-05-11_21h01.24.697,classification_task,2021.2.3,Win32,47.47436384,627c6715c52fd12f31907bd0,,,,,,,,,,,,,,,,,,,,,,,l,1,3.309,"[""0.142"",""0.827"",""0.633"",""0.685""]","[1,0,1,1]",0,28,28,28,1,1,1,,,0,FALSE,,,,,,,,,,,,,,,,,,,,,,,,,,,,,,,
,616dea1ca454941d90877b73,627c698d974f31a5b4d7f915,2022-05-11_21h01.24.697,classification_task,2021.2.3,Win32,47.47436384,627c6715c52fd12f31907bd0,,,,,,,,,,,,,,,,,,,,,,,a,1,4.3904,"[""0.302"",""0.396"",""0.597"",""0.822""]","[1,1,1,0]",0,29,29,29,1,0,1,,,0,FALSE,,,,,,,,,,,,,,,,,,,,,,,,,,,,,,,
,616dea1ca454941d90877b73,627c698d974f31a5b4d7f915,2022-05-11_21h01.24.697,classification_task,2021.2.3,Win32,47.47436384,627c6715c52fd12f31907bd0,,,,,,,,,,,,,,,,,,,,,,,l,1,4.0983,"[""0.094"",""0.360"",""0.849"",""0.721""]","[1,1,0,1]",0,30,30,30,1,1,0,,,0,FALSE,,,,,,,,,,,,,,,,,,,,,,,,,,,,,,,
,616dea1ca454941d90877b73,627c698d974f31a5b4d7f915,2022-05-11_21h01.24.697,classification_task,2021.2.3,Win32,47.47436384,627c6715c52fd12f31907bd0,,,,,,,,,,,,,,,,,,,,,,,a,1,3.7681,"[""0.208"",""0.464"",""0.788"",""0.037""]","[1,1,1,0]",0,31,31,31,1,0,0,,,0,FALSE,,,,,,,,,,,,,,,,,,,,,,,,,,,,,,,
,616dea1ca454941d90877b73,627c698d974f31a5b4d7f915,2022-05-11_21h01.24.697,classification_task,2021.2.3,Win32,47.47436384,627c6715c52fd12f31907bd0,,,,,,,,,,,,,,,,,,,,,,,l,0,8.6924,"[""0.032"",""0.464"",""0.788"",""0.888""]","[0,1,1,1]",0,32,32,32,1,0,0,,,0,FALSE,,,,,,,,,,,,,,,,,,,,,,,,,,,,,,,
,616dea1ca454941d90877b73,627c698d974f31a5b4d7f915,2022-05-11_21h01.24.697,classification_task,2021.2.3,Win32,47.47436384,627c6715c52fd12f31907bd0,,,,,,,,,,,,,,,,,,,,,,,a,1,5.3167,"[""0.055"",""0.396"",""0.597"",""0.943""]","[0,1,1,1]",0,33,33,33,1,0,1,,,0,FALSE,,,,,,,,,,,,,,,,,,,,,,,,,,,,,,,
,616dea1ca454941d90877b73,627c698d974f31a5b4d7f915,2022-05-11_21h01.24.697,classification_task,2021.2.3,Win32,47.47436384,627c6715c52fd12f31907bd0,,,,,,,,,,,,,,,,,,,,,,,a,0,4.7311,"[""0.142"",""0.827"",""0.633"",""0.685""]","[1,0,1,1]",0,34,34,34,1,1,1,,,0,FALSE,,,,,,,,,,,,,,,,,,,,,,,,,,,,,,,
,616dea1ca454941d90877b73,627c698d974f31a5b4d7f915,2022-05-11_21h01.24.697,classification_task,2021.2.3,Win32,47.47436384,627c6715c52fd12f31907bd0,,,,,,,,,,,,,,,,,,,,,,,l,1,1.2368,"[""0.828"",""0.360"",""0.521"",""0.721""]","[0,1,1,1]",0,35,35,35,1,1,0,,,0,FALSE,,,,,,,,,,,,,,,,,,,,,,,,,,,,,,,
,616dea1ca454941d90877b73,627c698d974f31a5b4d7f915,2022-05-11_21h01.24.697,classification_task,2021.2.3,Win32,47.47436384,627c6715c52fd12f31907bd0,,,,,,,,,,,,,,,,,,,,,,,l,1,2.8587,"[""0.094"",""0.360"",""0.430"",""0.721""]","[1,1,0,1]",0,36,36,36,1,1,0,,,0,FALSE,,,,,,,,,,,,,,,,,,,,,,,,,,,,,,,
,616dea1ca454941d90877b73,627c698d974f31a5b4d7f915,2022-05-11_21h01.24.697,classification_task,2021.2.3,Win32,47.47436384,627c6715c52fd12f31907bd0,,,,,,,,,,,,,,,,,,,,,,,l,0,0.8711,"[""0.208"",""0.464"",""0.788"",""0.829""]","[1,1,1,0]",0,37,37,37,1,0,0,,,0,FALSE,,,,,,,,,,,,,,,,,,,,,,,,,,,,,,,
,616dea1ca454941d90877b73,627c698d974f31a5b4d7f915,2022-05-11_21h01.24.697,classification_task,2021.2.3,Win32,47.47436384,627c6715c52fd12f31907bd0,,,,,,,,,,,,,,,,,,,,,,,a,0,0.9648,"[""0.849"",""0.247"",""0.633"",""0.685""]","[0,1,1,1]",0,38,38,38,1,1,1,,,0,FALSE,,,,,,,,,,,,,,,,,,,,,,,,,,,,,,,
,616dea1ca454941d90877b73,627c698d974f31a5b4d7f915,2022-05-11_21h01.24.697,classification_task,2021.2.3,Win32,47.47436384,627c6715c52fd12f31907bd0,,,,,,,,,,,,,,,,,,,,,,,a,0,1.1014,"[""0.094"",""0.822"",""0.521"",""0.721""]","[1,0,1,1]",0,39,39,39,1,1,0,,,0,FALSE,,,,,,,,,,,,,,,,,,,,,,,,,,,,,,,
,616dea1ca454941d90877b73,627c698d974f31a5b4d7f915,2022-05-11_21h01.24.697,classification_task,2021.2.3,Win32,47.47436384,627c6715c52fd12f31907bd0,,,,,,,,,,,,,,,,,,,,,,,l,1,0.8066,"[""0.142"",""0.247"",""0.845"",""0.685""]","[1,1,0,1]",0,40,40,40,1,1,1,,,0,FALSE,,,,,,,,,,,,,,,,,,,,,,,,,,,,,,,
,616dea1ca454941d90877b73,627c698d974f31a5b4d7f915,2022-05-11_21h01.24.697,classification_task,2021.2.3,Win32,47.47436384,627c6715c52fd12f31907bd0,,,,,,,,,,,,,,,,,,,,,,,l,0,3.0699,"[""0.208"",""0.464"",""0.845"",""0.888""]","[1,1,0,1]",0,41,41,41,1,0,0,,,0,FALSE,,,,,,,,,,,,,,,,,,,,,,,,,,,,,,,
,616dea1ca454941d90877b73,627c698d974f31a5b4d7f915,2022-05-11_21h01.24.697,classification_task,2021.2.3,Win32,47.47436384,627c6715c52fd12f31907bd0,,,,,,,,,,,,,,,,,,,,,,,a,0,2.9039,"[""0.094"",""0.360"",""0.521"",""0.032""]","[1,1,1,0]",0,42,42,42,1,1,0,,,0,FALSE,,,,,,,,,,,,,,,,,,,,,,,,,,,,,,,
,616dea1ca454941d90877b73,627c698d974f31a5b4d7f915,2022-05-11_21h01.24.697,classification_task,2021.2.3,Win32,47.47436384,627c6715c52fd12f31907bd0,,,,,,,,,,,,,,,,,,,,,,,a,1,8.3503,"[""0.302"",""0.396"",""0.828"",""0.943""]","[1,1,0,1]",0,43,43,43,1,0,1,,,0,FALSE,,,,,,,,,,,,,,,,,,,,,,,,,,,,,,,
,616dea1ca454941d90877b73,627c698d974f31a5b4d7f915,2022-05-11_21h01.24.697,classification_task,2021.2.3,Win32,47.47436384,627c6715c52fd12f31907bd0,,,,,,,,,,,,,,,,,,,,,,,,0,,"[""0.142"",""0.247"",""0.633"",""0.826""]","[1,1,1,0]",0,44,44,44,1,1,1,,,0,FALSE,,,,,,,,,,,,,,,,,,,,,,,,,,,,,,,
,616dea1ca454941d90877b73,627c698d974f31a5b4d7f915,2022-05-11_21h01.24.697,classification_task,2021.2.3,Win32,47.47436384,627c6715c52fd12f31907bd0,,,,,,,,,,,,,,,,,,,,,,,l,0,2.1475,"[""0.208"",""0.827"",""0.788"",""0.888""]","[1,0,1,1]",0,45,45,45,1,0,0,,,0,FALSE,,,,,,,,,,,,,,,,,,,,,,,,,,,,,,,
,616dea1ca454941d90877b73,627c698d974f31a5b4d7f915,2022-05-11_21h01.24.697,classification_task,2021.2.3,Win32,47.47436384,627c6715c52fd12f31907bd0,,,,,,,,,,,,,,,,,,,,,,,a,1,0.344,"[""0.302"",""0.842"",""0.597"",""0.943""]","[1,0,1,1]",0,46,46,46,1,0,1,,,0,FALSE,,,,,,,,,,,,,,,,,,,,,,,,,,,,,,,
,616dea1ca454941d90877b73,627c698d974f31a5b4d7f915,2022-05-11_21h01.24.697,classification_task,2021.2.3,Win32,47.47436384,627c6715c52fd12f31907bd0,,,,,,,,,,,,,,,,,,,,,,,l,0,1.2673,"[""0.302"",""0.396"",""0.597"",""0.032""]","[1,1,1,0]",0,47,47,47,1,0,1,,,0,FALSE,,,,,,,,,,,,,,,,,,,,,,,,,,,,,,,
,616dea1ca454941d90877b73,627c698d974f31a5b4d7f915,2022-05-11_21h01.24.697,classification_task,2021.2.3,Win32,47.47436384,627c6715c52fd12f31907bd0,,,,,,,,,,,,,,,,,,,,,,,a,1,0.9405,"[""0.031"",""0.396"",""0.597"",""0.943""]","[0,1,1,1]",0,48,48,48,1,0,1,,,0,FALSE,,,,,,,,,,,,,,,,,,,,,,,,,,,,,,,
,616dea1ca454941d90877b73,627c698d974f31a5b4d7f915,2022-05-11_21h01.24.697,classification_task,2021.2.3,Win32,47.47436384,627c6715c52fd12f31907bd0,,,,,,,,,,,,,,,,,,,,,,,l,1,6.8299,"[""0.094"",""0.828"",""0.521"",""0.721""]","[1,0,1,1]",0,49,49,49,1,1,0,,,0,FALSE,,,,,,,,,,,,,,,,,,,,,,,,,,,,,,,
,616dea1ca454941d90877b73,627c698d974f31a5b4d7f915,2022-05-11_21h01.24.697,classification_task,2021.2.3,Win32,47.47436384,627c6715c52fd12f31907bd0,,,,,,,,,,,,,,,,,,,,,,,a,0,3.1013,"[""0.142"",""0.037"",""0.633"",""0.685""]","[1,0,1,1]",0,50,50,50,1,1,1,,,0,FALSE,,,,,,,,,,,,,,,,,,,,,,,,,,,,,,,
,616dea1ca454941d90877b73,627c698d974f31a5b4d7f915,2022-05-11_21h01.24.697,classification_task,2021.2.3,Win32,47.47436384,627c6715c52fd12f31907bd0,,,,,,,,,,,,,,,,,,,,,,,l,0,2.9592,"[""0.208"",""0.032"",""0.788"",""0.888""]","[1,0,1,1]",0,51,51,51,1,0,0,,,0,FALSE,,,,,,,,,,,,,,,,,,,,,,,,,,,,,,,
,616dea1ca454941d90877b73,627c698d974f31a5b4d7f915,2022-05-11_21h01.24.697,classification_task,2021.2.3,Win32,47.47436384,627c6715c52fd12f31907bd0,,,,,,,,,,,,,,,,,,,,,,,l,1,1.5838,"[""0.055"",""0.360"",""0.521"",""0.721""]","[0,1,1,1]",0,52,52,52,1,1,0,,,0,FALSE,,,,,,,,,,,,,,,,,,,,,,,,,,,,,,,
,616dea1ca454941d90877b73,627c698d974f31a5b4d7f915,2022-05-11_21h01.24.697,classification_task,2021.2.3,Win32,47.47436384,627c6715c52fd12f31907bd0,,,,,,,,,,,,,,,,,,,,,,,a,1,1.622,"[""0.302"",""0.396"",""0.032"",""0.943""]","[1,1,0,1]",0,53,53,53,1,0,1,,,0,FALSE,,,,,,,,,,,,,,,,,,,,,,,,,,,,,,,
,616dea1ca454941d90877b73,627c698d974f31a5b4d7f915,2022-05-11_21h01.24.697,classification_task,2021.2.3,Win32,47.47436384,627c6715c52fd12f31907bd0,,,,,,,,,,,,,,,,,,,,,,,a,1,1.2493,"[""0.302"",""0.396"",""0.597"",""0.037""]","[1,1,1,0]",0,54,54,54,1,0,1,,,0,FALSE,,,,,,,,,,,,,,,,,,,,,,,,,,,,,,,
,616dea1ca454941d90877b73,627c698d974f31a5b4d7f915,2022-05-11_21h01.24.697,classification_task,2021.2.3,Win32,47.47436384,627c6715c52fd12f31907bd0,,,,,,,,,,,,,,,,,,,,,,,a,0,0.752,"[""0.829"",""0.247"",""0.633"",""0.685""]","[0,1,1,1]",0,55,55,55,1,1,1,,,0,FALSE,,,,,,,,,,,,,,,,,,,,,,,,,,,,,,,
,616dea1ca454941d90877b73,627c698d974f31a5b4d7f915,2022-05-11_21h01.24.697,classification_task,2021.2.3,Win32,47.47436384,627c6715c52fd12f31907bd0,,,,,,,,,,,,,,,,,,,,,,,a,1,0.8565,"[""0.845"",""0.464"",""0.788"",""0.888""]","[0,1,1,1]",0,56,56,56,1,0,0,,,0,FALSE,,,,,,,,,,,,,,,,,,,,,,,,,,,,,,,
,616dea1ca454941d90877b73,627c698d974f31a5b4d7f915,2022-05-11_21h01.24.697,classification_task,2021.2.3,Win32,47.47436384,627c6715c52fd12f31907bd0,,,,,,,,,,,,,,,,,,,,,,,l,1,1.3095,"[""0.094"",""0.360"",""0.521"",""0.842""]","[1,1,1,0]",0,57,57,57,1,1,0,,,0,FALSE,,,,,,,,,,,,,,,,,,,,,,,,,,,,,,,
,616dea1ca454941d90877b73,627c698d974f31a5b4d7f915,2022-05-11_21h01.24.697,classification_task,2021.2.3,Win32,47.47436384,627c6715c52fd12f31907bd0,,,,,,,,,,,,,,,,,,,,,,,a,0,1.3393,"[""0.094"",""0.360"",""0.828"",""0.721""]","[1,1,0,1]",0,58,58,58,1,1,0,,,0,FALSE,,,,,,,,,,,,,,,,,,,,,,,,,,,,,,,
,616dea1ca454941d90877b73,627c698d974f31a5b4d7f915,2022-05-11_21h01.24.697,classification_task,2021.2.3,Win32,47.47436384,627c6715c52fd12f31907bd0,,,,,,,,,,,,,,,,,,,,,,,l,0,1.4372,"[""0.208"",""0.464"",""0.031"",""0.888""]","[1,1,0,1]",0,59,59,59,1,0,0,,,0,FALSE,,,,,,,,,,,,,,,,,,,,,,,,,,,,,,,
,616dea1ca454941d90877b73,627c698d974f31a5b4d7f915,2022-05-11_21h01.24.697,classification_task,2021.2.3,Win32,47.47436384,627c6715c52fd12f31907bd0,,,,,,,,,,,,,,,,,,,,,,,a,0,1.2093,"[""0.142"",""0.247"",""0.822"",""0.685""]","[1,1,0,1]",0,60,60,60,1,1,1,,,0,FALSE,,,,,,,,,,,,,,,,,,,,,,,,,,,,,,,
,616dea1ca454941d90877b73,627c698d974f31a5b4d7f915,2022-05-11_21h01.24.697,classification_task,2021.2.3,Win32,47.47436384,627c6715c52fd12f31907bd0,,,,,,,,,,,,,,,,,,,,,,,a,0,1.7435,"[""0.142"",""0.247"",""0.633"",""0.822""]","[1,1,1,0]",0,61,61,61,1,1,1,,,0,FALSE,,,,,,,,,,,,,,,,,,,,,,,,,,,,,,,
,616dea1ca454941d90877b73,627c698d974f31a5b4d7f915,2022-05-11_21h01.24.697,classification_task,2021.2.3,Win32,47.47436384,627c6715c52fd12f31907bd0,,,,,,,,,,,,,,,,,,,,,,,a,1,0.8028,"[""0.208"",""0.464"",""0.788"",""0.826""]","[1,1,1,0]",0,62,62,62,1,0,0,,,0,FALSE,,,,,,,,,,,,,,,,,,,,,,,,,,,,,,,
,616dea1ca454941d90877b73,627c698d974f31a5b4d7f915,2022-05-11_21h01.24.697,classification_task,2021.2.3,Win32,47.47436384,627c6715c52fd12f31907bd0,,,,,,,,,,,,,,,,,,,,,,,l,0,1.5957,"[""0.302"",""0.826"",""0.597"",""0.943""]","[1,0,1,1]",0,63,63,63,1,0,1,,,0,FALSE,,,,,,,,,,,,,,,,,,,,,,,,,,,,,,,
,616dea1ca454941d90877b73,627c698d974f31a5b4d7f915,2022-05-11_21h01.24.697,classification_task,2021.2.3,Win32,47.47436384,627c6715c52fd12f31907bd0,,,,,,,,,,,,,,,,,,,,,,,,,,,,,,,,,,,,,,,0, ,,0,4.827766755,751.0691,0,0,0,0,1,2,1,,,,,,,,,,,,,,,,,,
,616dea1ca454941d90877b73,627c698d974f31a5b4d7f915,2022-05-11_21h01.24.697,classification_task,2021.2.3,Win32,47.47436384,627c6715c52fd12f31907bd0,,,,,,,,,,,,,,,,,,,,,,,,,,,,,,,,,,,,,,,1,  ,,0,0.866402116,710.5876,0,0,0,0,1,2,1,,,,,,,,,,,,,,,,,,
,616dea1ca454941d90877b73,627c698d974f31a5b4d7f915,2022-05-11_21h01.24.697,classification_task,2021.2.3,Win32,47.47436384,627c6715c52fd12f31907bd0,,,,,,,,,,,,,,,,,,,,,,,,,,,,,,,,,,,,,,,2,  ,,0,7.032352293,735.4252,0,0,0,0,1,2,1,,,,,,,,,,,,,,,,,,
,616dea1ca454941d90877b73,627c698d974f31a5b4d7f915,2022-05-11_21h01.24.697,classification_task,2021.2.3,Win32,47.47436384,627c6715c52fd12f31907bd0,,,,,,,,,,,,,,,,,,,,,,,,,,,,,,,,,,,,,,,,,,,,,0,0,0,0,1,,1,,,,,,,,,,,,,,,,,,
,616dea1ca454941d90877b73,627c698d974f31a5b4d7f915,2022-05-11_21h01.24.697,classification_task,2021.2.3,Win32,47.47436384,627c6715c52fd12f31907bd0,,,,,,,,,,,,,,,,,,,,,space,30.5974,l,0,1.8657,"[""0.208"",""0.464"",""0.822"",""0.888""]","[1,1,0,1]",0,0,0,0,1,0,0,,,0,FALSE,,,,,,,,,,,,,,,,,,,,,,,,,,,,,,,
,616dea1ca454941d90877b73,627c698d974f31a5b4d7f915,2022-05-11_21h01.24.697,classification_task,2021.2.3,Win32,47.47436384,627c6715c52fd12f31907bd0,,,,,,,,,,,,,,,,,,,,,,,l,1,2.1036,"[""0.094"",""0.360"",""0.826"",""0.721""]","[1,1,0,1]",0,1,1,1,1,1,0,,,0,FALSE,,,,,,,,,,,,,,,,,,,,,,,,,,,,,,,
,616dea1ca454941d90877b73,627c698d974f31a5b4d7f915,2022-05-11_21h01.24.697,classification_task,2021.2.3,Win32,47.47436384,627c6715c52fd12f31907bd0,,,,,,,,,,,,,,,,,,,,,,,a,0,2.4037,"[""0.142"",""0.247"",""0.633"",""0.822""]","[1,1,1,0]",0,2,2,2,1,1,1,,,0,FALSE,,,,,,,,,,,,,,,,,,,,,,,,,,,,,,,
,616dea1ca454941d90877b73,627c698d974f31a5b4d7f915,2022-05-11_21h01.24.697,classification_task,2021.2.3,Win32,47.47436384,627c6715c52fd12f31907bd0,,,,,,,,,,,,,,,,,,,,,,,l,0,2.7889,"[""0.302"",""0.396"",""0.597"",""0.055""]","[1,1,1,0]",0,3,3,3,1,0,1,,,0,FALSE,,,,,,,,,,,,,,,,,,,,,,,,,,,,,,,
,616dea1ca454941d90877b73,627c698d974f31a5b4d7f915,2022-05-11_21h01.24.697,classification_task,2021.2.3,Win32,47.47436384,627c6715c52fd12f31907bd0,,,,,,,,,,,,,,,,,,,,,,,a,1,1.4407,"[""0.829"",""0.464"",""0.788"",""0.888""]","[0,1,1,1]",0,4,4,4,1,0,0,,,0,FALSE,,,,,,,,,,,,,,,,,,,,,,,,,,,,,,,
,616dea1ca454941d90877b73,627c698d974f31a5b4d7f915,2022-05-11_21h01.24.697,classification_task,2021.2.3,Win32,47.47436384,627c6715c52fd12f31907bd0,,,,,,,,,,,,,,,,,,,,,,,l,0,2.8282,"[""0.822"",""0.396"",""0.597"",""0.943""]","[0,1,1,1]",0,5,5,5,1,0,1,,,0,FALSE,,,,,,,,,,,,,,,,,,,,,,,,,,,,,,,
,616dea1ca454941d90877b73,627c698d974f31a5b4d7f915,2022-05-11_21h01.24.697,classification_task,2021.2.3,Win32,47.47436384,627c6715c52fd12f31907bd0,,,,,,,,,,,,,,,,,,,,,,,a,0,0.7233,"[""0.849"",""0.247"",""0.633"",""0.685""]","[0,1,1,1]",0,6,6,6,1,1,1,,,0,FALSE,,,,,,,,,,,,,,,,,,,,,,,,,,,,,,,
,616dea1ca454941d90877b73,627c698d974f31a5b4d7f915,2022-05-11_21h01.24.697,classification_task,2021.2.3,Win32,47.47436384,627c6715c52fd12f31907bd0,,,,,,,,,,,,,,,,,,,,,,,l,1,1.0597,"[""0.142"",""0.247"",""0.828"",""0.685""]","[1,1,0,1]",0,7,7,7,1,1,1,,,0,FALSE,,,,,,,,,,,,,,,,,,,,,,,,,,,,,,,
,616dea1ca454941d90877b73,627c698d974f31a5b4d7f915,2022-05-11_21h01.24.697,classification_task,2021.2.3,Win32,47.47436384,627c6715c52fd12f31907bd0,,,,,,,,,,,,,,,,,,,,,,,a,1,1.7026,"[""0.208"",""0.464"",""0.788"",""0.031""]","[1,1,1,0]",0,8,8,8,1,0,0,,,0,FALSE,,,,,,,,,,,,,,,,,,,,,,,,,,,,,,,
,616dea1ca454941d90877b73,627c698d974f31a5b4d7f915,2022-05-11_21h01.24.697,classification_task,2021.2.3,Win32,47.47436384,627c6715c52fd12f31907bd0,,,,,,,,,,,,,,,,,,,,,,,a,0,1.4611,"[""0.142"",""0.055"",""0.633"",""0.685""]","[1,0,1,1]",0,9,9,9,1,1,1,,,0,FALSE,,,,,,,,,,,,,,,,,,,,,,,,,,,,,,,
,616dea1ca454941d90877b73,627c698d974f31a5b4d7f915,2022-05-11_21h01.24.697,classification_task,2021.2.3,Win32,47.47436384,627c6715c52fd12f31907bd0,,,,,,,,,,,,,,,,,,,,,,,l,0,3.2584,"[""0.208"",""0.037"",""0.788"",""0.888""]","[1,0,1,1]",0,10,10,10,1,0,0,,,0,FALSE,,,,,,,,,,,,,,,,,,,,,,,,,,,,,,,
,616dea1ca454941d90877b73,627c698d974f31a5b4d7f915,2022-05-11_21h01.24.697,classification_task,2021.2.3,Win32,47.47436384,627c6715c52fd12f31907bd0,,,,,,,,,,,,,,,,,,,,,,,l,1,0.7885,"[""0.037"",""0.360"",""0.521"",""0.721""]","[0,1,1,1]",0,11,11,11,1,1,0,,,0,FALSE,,,,,,,,,,,,,,,,,,,,,,,,,,,,,,,
,616dea1ca454941d90877b73,627c698d974f31a5b4d7f915,2022-05-11_21h01.24.697,classification_task,2021.2.3,Win32,47.47436384,627c6715c52fd12f31907bd0,,,,,,,,,,,,,,,,,,,,,,,a,1,2.3753,"[""0.302"",""0.396"",""0.032"",""0.943""]","[1,1,0,1]",0,12,12,12,1,0,1,,,0,FALSE,,,,,,,,,,,,,,,,,,,,,,,,,,,,,,,
,616dea1ca454941d90877b73,627c698d974f31a5b4d7f915,2022-05-11_21h01.24.697,classification_task,2021.2.3,Win32,47.47436384,627c6715c52fd12f31907bd0,,,,,,,,,,,,,,,,,,,,,,,l,1,1.4993,"[""0.094"",""0.360"",""0.521"",""0.031""]","[1,1,1,0]",0,13,13,13,1,1,0,,,0,FALSE,,,,,,,,,,,,,,,,,,,,,,,,,,,,,,,
,616dea1ca454941d90877b73,627c698d974f31a5b4d7f915,2022-05-11_21h01.24.697,classification_task,2021.2.3,Win32,47.47436384,627c6715c52fd12f31907bd0,,,,,,,,,,,,,,,,,,,,,,,l,1,1.0128,"[""0.094"",""0.032"",""0.521"",""0.721""]","[1,0,1,1]",0,14,14,14,1,1,0,,,0,FALSE,,,,,,,,,,,,,,,,,,,,,,,,,,,,,,,
,616dea1ca454941d90877b73,627c698d974f31a5b4d7f915,2022-05-11_21h01.24.697,classification_task,2021.2.3,Win32,47.47436384,627c6715c52fd12f31907bd0,,,,,,,,,,,,,,,,,,,,,,,l,0,2.0904,"[""0.302"",""0.037"",""0.597"",""0.943""]","[1,0,1,1]",0,15,15,15,1,0,1,,,0,FALSE,,,,,,,,,,,,,,,,,,,,,,,,,,,,,,,
,616dea1ca454941d90877b73,627c698d974f31a5b4d7f915,2022-05-11_21h01.24.697,classification_task,2021.2.3,Win32,47.47436384,627c6715c52fd12f31907bd0,,,,,,,,,,,,,,,,,,,,,,,a,1,0.6976,"[""0.302"",""0.396"",""0.822"",""0.943""]","[1,1,0,1]",0,16,16,16,1,0,1,,,0,FALSE,,,,,,,,,,,,,,,,,,,,,,,,,,,,,,,
,616dea1ca454941d90877b73,627c698d974f31a5b4d7f915,2022-05-11_21h01.24.697,classification_task,2021.2.3,Win32,47.47436384,627c6715c52fd12f31907bd0,,,,,,,,,,,,,,,,,,,,,,,a,0,0.6456,"[""0.142"",""0.247"",""0.849"",""0.685""]","[1,1,0,1]",0,17,17,17,1,1,1,,,0,FALSE,,,,,,,,,,,,,,,,,,,,,,,,,,,,,,,
,616dea1ca454941d90877b73,627c698d974f31a5b4d7f915,2022-05-11_21h01.24.697,classification_task,2021.2.3,Win32,47.47436384,627c6715c52fd12f31907bd0,,,,,,,,,,,,,,,,,,,,,,,a,1,0.7469,"[""0.032"",""0.396"",""0.597"",""0.943""]","[0,1,1,1]",0,18,18,18,1,0,1,,,0,FALSE,,,,,,,,,,,,,,,,,,,,,,,,,,,,,,,
,616dea1ca454941d90877b73,627c698d974f31a5b4d7f915,2022-05-11_21h01.24.697,classification_task,2021.2.3,Win32,47.47436384,627c6715c52fd12f31907bd0,,,,,,,,,,,,,,,,,,,,,,,a,1,0.1674,"[""0.302"",""0.396"",""0.597"",""0.822""]","[1,1,1,0]",0,19,19,19,1,0,1,,,0,FALSE,,,,,,,,,,,,,,,,,,,,,,,,,,,,,,,
,616dea1ca454941d90877b73,627c698d974f31a5b4d7f915,2022-05-11_21h01.24.697,classification_task,2021.2.3,Win32,47.47436384,627c6715c52fd12f31907bd0,,,,,,,,,,,,,,,,,,,,,,,a,0,0.7599,"[""0.142"",""0.247"",""0.633"",""0.055""]","[1,1,1,0]",0,20,20,20,1,1,1,,,0,FALSE,,,,,,,,,,,,,,,,,,,,,,,,,,,,,,,
,616dea1ca454941d90877b73,627c698d974f31a5b4d7f915,2022-05-11_21h01.24.697,classification_task,2021.2.3,Win32,47.47436384,627c6715c52fd12f31907bd0,,,,,,,,,,,,,,,,,,,,,,,a,1,1.1678,"[""0.208"",""0.842"",""0.788"",""0.888""]","[1,0,1,1]",0,21,21,21,1,0,0,,,0,FALSE,,,,,,,,,,,,,,,,,,,,,,,,,,,,,,,
,616dea1ca454941d90877b73,627c698d974f31a5b4d7f915,2022-05-11_21h01.24.697,classification_task,2021.2.3,Win32,47.47436384,627c6715c52fd12f31907bd0,,,,,,,,,,,,,,,,,,,,,,,a,1,0.611,"[""0.208"",""0.464"",""0.788"",""0.828""]","[1,1,1,0]",0,22,22,22,1,0,0,,,0,FALSE,,,,,,,,,,,,,,,,,,,,,,,,,,,,,,,
,616dea1ca454941d90877b73,627c698d974f31a5b4d7f915,2022-05-11_21h01.24.697,classification_task,2021.2.3,Win32,47.47436384,627c6715c52fd12f31907bd0,,,,,,,,,,,,,,,,,,,,,,,l,1,0.7168,"[""0.094"",""0.842"",""0.521"",""0.721""]","[1,0,1,1]",0,23,23,23,1,1,0,,,0,FALSE,,,,,,,,,,,,,,,,,,,,,,,,,,,,,,,
,616dea1ca454941d90877b73,627c698d974f31a5b4d7f915,2022-05-11_21h01.24.697,classification_task,2021.2.3,Win32,47.47436384,627c6715c52fd12f31907bd0,,,,,,,,,,,,,,,,,,,,,,,l,1,0.6454,"[""0.031"",""0.360"",""0.521"",""0.721""]","[0,1,1,1]",0,24,24,24,1,1,0,,,0,FALSE,,,,,,,,,,,,,,,,,,,,,,,,,,,,,,,
,616dea1ca454941d90877b73,627c698d974f31a5b4d7f915,2022-05-11_21h01.24.697,classification_task,2021.2.3,Win32,47.47436384,627c6715c52fd12f31907bd0,,,,,,,,,,,,,,,,,,,,,,,l,1,1.0943,"[""0.094"",""0.360"",""0.031"",""0.721""]","[1,1,0,1]",0,25,25,25,1,1,0,,,0,FALSE,,,,,,,,,,,,,,,,,,,,,,,,,,,,,,,
,616dea1ca454941d90877b73,627c698d974f31a5b4d7f915,2022-05-11_21h01.24.697,classification_task,2021.2.3,Win32,47.47436384,627c6715c52fd12f31907bd0,,,,,,,,,,,,,,,,,,,,,,,a,0,0.9525,"[""0.142"",""0.826"",""0.633"",""0.685""]","[1,0,1,1]",0,26,26,26,1,1,1,,,0,FALSE,,,,,,,,,,,,,,,,,,,,,,,,,,,,,,,
,616dea1ca454941d90877b73,627c698d974f31a5b4d7f915,2022-05-11_21h01.24.697,classification_task,2021.2.3,Win32,47.47436384,627c6715c52fd12f31907bd0,,,,,,,,,,,,,,,,,,,,,,,a,1,1.4485,"[""0.208"",""0.464"",""0.037"",""0.888""]","[1,1,0,1]",0,27,27,27,1,0,0,,,0,FALSE,,,,,,,,,,,,,,,,,,,,,,,,,,,,,,,
,616dea1ca454941d90877b73,627c698d974f31a5b4d7f915,2022-05-11_21h01.24.697,classification_task,2021.2.3,Win32,47.47436384,627c6715c52fd12f31907bd0,,,,,,,,,,,,,,,,,,,,,,,a,1,0.5531,"[""0.845"",""0.464"",""0.788"",""0.888""]","[0,1,1,1]",0,28,28,28,1,0,0,,,0,FALSE,,,,,,,,,,,,,,,,,,,,,,,,,,,,,,,
,616dea1ca454941d90877b73,627c698d974f31a5b4d7f915,2022-05-11_21h01.24.697,classification_task,2021.2.3,Win32,47.47436384,627c6715c52fd12f31907bd0,,,,,,,,,,,,,,,,,,,,,,,l,0,0.9737,"[""0.302"",""0.055"",""0.597"",""0.943""]","[1,0,1,1]",0,29,29,29,1,0,1,,,0,FALSE,,,,,,,,,,,,,,,,,,,,,,,,,,,,,,,
,616dea1ca454941d90877b73,627c698d974f31a5b4d7f915,2022-05-11_21h01.24.697,classification_task,2021.2.3,Win32,47.47436384,627c6715c52fd12f31907bd0,,,,,,,,,,,,,,,,,,,,,,,a,0,0.5811,"[""0.822"",""0.247"",""0.633"",""0.685""]","[0,1,1,1]",0,30,30,30,1,1,1,,,0,FALSE,,,,,,,,,,,,,,,,,,,,,,,,,,,,,,,
,616dea1ca454941d90877b73,627c698d974f31a5b4d7f915,2022-05-11_21h01.24.697,classification_task,2021.2.3,Win32,47.47436384,627c6715c52fd12f31907bd0,,,,,,,,,,,,,,,,,,,,,,,l,1,1.1586,"[""0.094"",""0.360"",""0.521"",""0.037""]","[1,1,1,0]",0,31,31,31,1,1,0,,,0,FALSE,,,,,,,,,,,,,,,,,,,,,,,,,,,,,,,
,616dea1ca454941d90877b73,627c698d974f31a5b4d7f915,2022-05-11_21h01.24.697,classification_task,2021.2.3,Win32,47.47436384,627c6715c52fd12f31907bd0,,,,,,,,,,,,,,,,,,,,,,,l,1,0.893,"[""0.094"",""0.360"",""0.521"",""0.826""]","[1,1,1,0]",0,32,32,32,1,1,0,,,0,FALSE,,,,,,,,,,,,,,,,,,,,,,,,,,,,,,,
,616dea1ca454941d90877b73,627c698d974f31a5b4d7f915,2022-05-11_21h01.24.697,classification_task,2021.2.3,Win32,47.47436384,627c6715c52fd12f31907bd0,,,,,,,,,,,,,,,,,,,,,,,a,1,1.0487,"[""0.208"",""0.464"",""0.037"",""0.888""]","[1,1,0,1]",0,33,33,33,1,0,0,,,0,FALSE,,,,,,,,,,,,,,,,,,,,,,,,,,,,,,,
,616dea1ca454941d90877b73,627c698d974f31a5b4d7f915,2022-05-11_21h01.24.697,classification_task,2021.2.3,Win32,47.47436384,627c6715c52fd12f31907bd0,,,,,,,,,,,,,,,,,,,,,,,l,1,0.7736,"[""0.142"",""0.247"",""0.827"",""0.685""]","[1,1,0,1]",0,34,34,34,1,1,1,,,0,FALSE,,,,,,,,,,,,,,,,,,,,,,,,,,,,,,,
,616dea1ca454941d90877b73,627c698d974f31a5b4d7f915,2022-05-11_21h01.24.697,classification_task,2021.2.3,Win32,47.47436384,627c6715c52fd12f31907bd0,,,,,,,,,,,,,,,,,,,,,,,a,1,1.4396,"[""0.208"",""0.055"",""0.788"",""0.888""]","[1,0,1,1]",0,35,35,35,1,0,0,,,0,FALSE,,,,,,,,,,,,,,,,,,,,,,,,,,,,,,,
,616dea1ca454941d90877b73,627c698d974f31a5b4d7f915,2022-05-11_21h01.24.697,classification_task,2021.2.3,Win32,47.47436384,627c6715c52fd12f31907bd0,,,,,,,,,,,,,,,,,,,,,,,l,0,1.1643,"[""0.822"",""0.396"",""0.597"",""0.943""]","[0,1,1,1]",0,36,36,36,1,0,1,,,0,FALSE,,,,,,,,,,,,,,,,,,,,,,,,,,,,,,,
,616dea1ca454941d90877b73,627c698d974f31a5b4d7f915,2022-05-11_21h01.24.697,classification_task,2021.2.3,Win32,47.47436384,627c6715c52fd12f31907bd0,,,,,,,,,,,,,,,,,,,,,,,a,0,0.7347,"[""0.142"",""0.822"",""0.633"",""0.685""]","[1,0,1,1]",0,37,37,37,1,1,1,,,0,FALSE,,,,,,,,,,,,,,,,,,,,,,,,,,,,,,,
,616dea1ca454941d90877b73,627c698d974f31a5b4d7f915,2022-05-11_21h01.24.697,classification_task,2021.2.3,Win32,47.47436384,627c6715c52fd12f31907bd0,,,,,,,,,,,,,,,,,,,,,,,a,1,1.2245,"[""0.208"",""0.464"",""0.788"",""0.430""]","[1,1,1,0]",0,38,38,38,1,0,0,,,0,FALSE,,,,,,,,,,,,,,,,,,,,,,,,,,,,,,,
,616dea1ca454941d90877b73,627c698d974f31a5b4d7f915,2022-05-11_21h01.24.697,classification_task,2021.2.3,Win32,47.47436384,627c6715c52fd12f31907bd0,,,,,,,,,,,,,,,,,,,,,,,a,0,1.3319,"[""0.032"",""0.247"",""0.633"",""0.685""]","[0,1,1,1]",0,39,39,39,1,1,1,,,0,FALSE,,,,,,,,,,,,,,,,,,,,,,,,,,,,,,,
,616dea1ca454941d90877b73,627c698d974f31a5b4d7f915,2022-05-11_21h01.24.697,classification_task,2021.2.3,Win32,47.47436384,627c6715c52fd12f31907bd0,,,,,,,,,,,,,,,,,,,,,,,l,0,0.8763,"[""0.302"",""0.396"",""0.597"",""0.827""]","[1,1,1,0]",0,40,40,40,1,0,1,,,0,FALSE,,,,,,,,,,,,,,,,,,,,,,,,,,,,,,,
,616dea1ca454941d90877b73,627c698d974f31a5b4d7f915,2022-05-11_21h01.24.697,classification_task,2021.2.3,Win32,47.47436384,627c6715c52fd12f31907bd0,,,,,,,,,,,,,,,,,,,,,,,a,1,0.608,"[""0.302"",""0.037"",""0.597"",""0.943""]","[1,0,1,1]",0,41,41,41,1,0,1,,,0,FALSE,,,,,,,,,,,,,,,,,,,,,,,,,,,,,,,
,616dea1ca454941d90877b73,627c698d974f31a5b4d7f915,2022-05-11_21h01.24.697,classification_task,2021.2.3,Win32,47.47436384,627c6715c52fd12f31907bd0,,,,,,,,,,,,,,,,,,,,,,,l,1,1.2264,"[""0.430"",""0.360"",""0.521"",""0.721""]","[0,1,1,1]",0,42,42,42,1,1,0,,,0,FALSE,,,,,,,,,,,,,,,,,,,,,,,,,,,,,,,
,616dea1ca454941d90877b73,627c698d974f31a5b4d7f915,2022-05-11_21h01.24.697,classification_task,2021.2.3,Win32,47.47436384,627c6715c52fd12f31907bd0,,,,,,,,,,,,,,,,,,,,,,,a,1,1.3934,"[""0.302"",""0.396"",""0.829"",""0.943""]","[1,1,0,1]",0,43,43,43,1,0,1,,,0,FALSE,,,,,,,,,,,,,,,,,,,,,,,,,,,,,,,
,616dea1ca454941d90877b73,627c698d974f31a5b4d7f915,2022-05-11_21h01.24.697,classification_task,2021.2.3,Win32,47.47436384,627c6715c52fd12f31907bd0,,,,,,,,,,,,,,,,,,,,,,,a,1,1.4558,"[""0.842"",""0.464"",""0.788"",""0.888""]","[0,1,1,1]",0,44,44,44,1,0,0,,,0,FALSE,,,,,,,,,,,,,,,,,,,,,,,,,,,,,,,
,616dea1ca454941d90877b73,627c698d974f31a5b4d7f915,2022-05-11_21h01.24.697,classification_task,2021.2.3,Win32,47.47436384,627c6715c52fd12f31907bd0,,,,,,,,,,,,,,,,,,,,,,,l,1,1.2648,"[""0.142"",""0.247"",""0.633"",""0.031""]","[1,1,1,0]",0,45,45,45,1,1,1,,,0,FALSE,,,,,,,,,,,,,,,,,,,,,,,,,,,,,,,
,616dea1ca454941d90877b73,627c698d974f31a5b4d7f915,2022-05-11_21h01.24.697,classification_task,2021.2.3,Win32,47.47436384,627c6715c52fd12f31907bd0,,,,,,,,,,,,,,,,,,,,,,,l,1,1.7742,"[""0.094"",""0.360"",""0.828"",""0.721""]","[1,1,0,1]",0,46,46,46,1,1,0,,,0,FALSE,,,,,,,,,,,,,,,,,,,,,,,,,,,,,,,
,616dea1ca454941d90877b73,627c698d974f31a5b4d7f915,2022-05-11_21h01.24.697,classification_task,2021.2.3,Win32,47.47436384,627c6715c52fd12f31907bd0,,,,,,,,,,,,,,,,,,,,,,,l,1,0.7962,"[""0.094"",""0.826"",""0.521"",""0.721""]","[1,0,1,1]",0,47,47,47,1,1,0,,,0,FALSE,,,,,,,,,,,,,,,,,,,,,,,,,,,,,,,
,616dea1ca454941d90877b73,627c698d974f31a5b4d7f915,2022-05-11_21h01.24.697,classification_task,2021.2.3,Win32,47.47436384,627c6715c52fd12f31907bd0,,,,,,,,,,,,,,,,,,,,,,,l,0,1.0177,"[""0.822"",""0.396"",""0.597"",""0.943""]","[0,1,1,1]",0,48,48,48,1,0,1,,,0,FALSE,,,,,,,,,,,,,,,,,,,,,,,,,,,,,,,
,616dea1ca454941d90877b73,627c698d974f31a5b4d7f915,2022-05-11_21h01.24.697,classification_task,2021.2.3,Win32,47.47436384,627c6715c52fd12f31907bd0,,,,,,,,,,,,,,,,,,,,,,,a,0,1.2837,"[""0.142"",""0.822"",""0.633"",""0.685""]","[1,0,1,1]",0,49,49,49,1,1,1,,,0,FALSE,,,,,,,,,,,,,,,,,,,,,,,,,,,,,,,
,616dea1ca454941d90877b73,627c698d974f31a5b4d7f915,2022-05-11_21h01.24.697,classification_task,2021.2.3,Win32,47.47436384,627c6715c52fd12f31907bd0,,,,,,,,,,,,,,,,,,,,,,,l,1,1.5658,"[""0.094"",""0.360"",""0.521"",""0.826""]","[1,1,1,0]",0,50,50,50,1,1,0,,,0,FALSE,,,,,,,,,,,,,,,,,,,,,,,,,,,,,,,
,616dea1ca454941d90877b73,627c698d974f31a5b4d7f915,2022-05-11_21h01.24.697,classification_task,2021.2.3,Win32,47.47436384,627c6715c52fd12f31907bd0,,,,,,,,,,,,,,,,,,,,,,,l,1,1.0188,"[""0.094"",""0.360"",""0.826"",""0.721""]","[1,1,0,1]",0,51,51,51,1,1,0,,,0,FALSE,,,,,,,,,,,,,,,,,,,,,,,,,,,,,,,
,616dea1ca454941d90877b73,627c698d974f31a5b4d7f915,2022-05-11_21h01.24.697,classification_task,2021.2.3,Win32,47.47436384,627c6715c52fd12f31907bd0,,,,,,,,,,,,,,,,,,,,,,,a,1,1.5483,"[""0.302"",""0.828"",""0.597"",""0.943""]","[1,0,1,1]",0,52,52,52,1,0,1,,,0,FALSE,,,,,,,,,,,,,,,,,,,,,,,,,,,,,,,
,616dea1ca454941d90877b73,627c698d974f31a5b4d7f915,2022-05-11_21h01.24.697,classification_task,2021.2.3,Win32,47.47436384,627c6715c52fd12f31907bd0,,,,,,,,,,,,,,,,,,,,,,,a,1,1.0432,"[""0.208"",""0.464"",""0.788"",""0.828""]","[1,1,1,0]",0,53,53,53,1,0,0,,,0,FALSE,,,,,,,,,,,,,,,,,,,,,,,,,,,,,,,
,616dea1ca454941d90877b73,627c698d974f31a5b4d7f915,2022-05-11_21h01.24.697,classification_task,2021.2.3,Win32,47.47436384,627c6715c52fd12f31907bd0,,,,,,,,,,,,,,,,,,,,,,,l,1,0.9556,"[""0.094"",""0.055"",""0.521"",""0.721""]","[1,0,1,1]",0,54,54,54,1,1,0,,,0,FALSE,,,,,,,,,,,,,,,,,,,,,,,,,,,,,,,
,616dea1ca454941d90877b73,627c698d974f31a5b4d7f915,2022-05-11_21h01.24.697,classification_task,2021.2.3,Win32,47.47436384,627c6715c52fd12f31907bd0,,,,,,,,,,,,,,,,,,,,,,,a,1,0.7568,"[""0.208"",""0.842"",""0.788"",""0.888""]","[1,0,1,1]",0,55,55,55,1,0,0,,,0,FALSE,,,,,,,,,,,,,,,,,,,,,,,,,,,,,,,
,616dea1ca454941d90877b73,627c698d974f31a5b4d7f915,2022-05-11_21h01.24.697,classification_task,2021.2.3,Win32,47.47436384,627c6715c52fd12f31907bd0,,,,,,,,,,,,,,,,,,,,,,,l,1,1.0604,"[""0.827"",""0.360"",""0.521"",""0.721""]","[0,1,1,1]",0,56,56,56,1,1,0,,,0,FALSE,,,,,,,,,,,,,,,,,,,,,,,,,,,,,,,
,616dea1ca454941d90877b73,627c698d974f31a5b4d7f915,2022-05-11_21h01.24.697,classification_task,2021.2.3,Win32,47.47436384,627c6715c52fd12f31907bd0,,,,,,,,,,,,,,,,,,,,,,,a,0,0.8753,"[""0.849"",""0.247"",""0.633"",""0.685""]","[0,1,1,1]",0,57,57,57,1,1,1,,,0,FALSE,,,,,,,,,,,,,,,,,,,,,,,,,,,,,,,
,616dea1ca454941d90877b73,627c698d974f31a5b4d7f915,2022-05-11_21h01.24.697,classification_task,2021.2.3,Win32,47.47436384,627c6715c52fd12f31907bd0,,,,,,,,,,,,,,,,,,,,,,,a,1,0.7463,"[""0.208"",""0.464"",""0.430"",""0.888""]","[1,1,0,1]",0,58,58,58,1,0,0,,,0,FALSE,,,,,,,,,,,,,,,,,,,,,,,,,,,,,,,
,616dea1ca454941d90877b73,627c698d974f31a5b4d7f915,2022-05-11_21h01.24.697,classification_task,2021.2.3,Win32,47.47436384,627c6715c52fd12f31907bd0,,,,,,,,,,,,,,,,,,,,,,,l,0,1.527,"[""0.302"",""0.396"",""0.597"",""0.827""]","[1,1,1,0]",0,59,59,59,1,0,1,,,0,FALSE,,,,,,,,,,,,,,,,,,,,,,,,,,,,,,,
,616dea1ca454941d90877b73,627c698d974f31a5b4d7f915,2022-05-11_21h01.24.697,classification_task,2021.2.3,Win32,47.47436384,627c6715c52fd12f31907bd0,,,,,,,,,,,,,,,,,,,,,,,a,1,0.4986,"[""0.302"",""0.396"",""0.827"",""0.943""]","[1,1,0,1]",0,60,60,60,1,0,1,,,0,FALSE,,,,,,,,,,,,,,,,,,,,,,,,,,,,,,,
,616dea1ca454941d90877b73,627c698d974f31a5b4d7f915,2022-05-11_21h01.24.697,classification_task,2021.2.3,Win32,47.47436384,627c6715c52fd12f31907bd0,,,,,,,,,,,,,,,,,,,,,,,l,1,0.7315,"[""0.142"",""0.247"",""0.633"",""0.842""]","[1,1,1,0]",0,61,61,61,1,1,1,,,0,FALSE,,,,,,,,,,,,,,,,,,,,,,,,,,,,,,,
,616dea1ca454941d90877b73,627c698d974f31a5b4d7f915,2022-05-11_21h01.24.697,classification_task,2021.2.3,Win32,47.47436384,627c6715c52fd12f31907bd0,,,,,,,,,,,,,,,,,,,,,,,a,1,1.4385,"[""0.826"",""0.464"",""0.788"",""0.888""]","[0,1,1,1]",0,62,62,62,1,0,0,,,0,FALSE,,,,,,,,,,,,,,,,,,,,,,,,,,,,,,,
,616dea1ca454941d90877b73,627c698d974f31a5b4d7f915,2022-05-11_21h01.24.697,classification_task,2021.2.3,Win32,47.47436384,627c6715c52fd12f31907bd0,,,,,,,,,,,,,,,,,,,,,,,l,1,0.717,"[""0.142"",""0.247"",""0.032"",""0.685""]","[1,1,0,1]",0,63,63,63,1,1,1,,,0,FALSE,,,,,,,,,,,,,,,,,,,,,,,,,,,,,,,
,616dea1ca454941d90877b73,627c698d974f31a5b4d7f915,2022-05-11_21h01.24.697,classification_task,2021.2.3,Win32,47.47436384,627c6715c52fd12f31907bd0,,,,,,,,,,,,,,,,,,,,,,,,,,,,,,,,,,,,,,,0, ,,0,8.685791446,259.5946,0,1,1,1,1,2,2,,,,,,,,,,,,,,,,,,
,616dea1ca454941d90877b73,627c698d974f31a5b4d7f915,2022-05-11_21h01.24.697,classification_task,2021.2.3,Win32,47.47436384,627c6715c52fd12f31907bd0,,,,,,,,,,,,,,,,,,,,,,,,,,,,,,,,,,,,,,,1,  ,,0,6.343419312,261.1157,0,1,1,1,1,2,2,,,,,,,,,,,,,,,,,,
,616dea1ca454941d90877b73,627c698d974f31a5b4d7f915,2022-05-11_21h01.24.697,classification_task,2021.2.3,Win32,47.47436384,627c6715c52fd12f31907bd0,,,,,,,,,,,,,,,,,,,,,,,,,,,,,,,,,,,,,,,2,  ,,0,7.790178571,263.424,0,1,1,1,1,2,2,,,,,,,,,,,,,,,,,,
,616dea1ca454941d90877b73,627c698d974f31a5b4d7f915,2022-05-11_21h01.24.697,classification_task,2021.2.3,Win32,47.47436384,627c6715c52fd12f31907bd0,,,,,,,,,,,,,,,,,,,,,,,,,,,,,,,,,,,,,,,,,,,,,0,1,1,1,1,,2,,,,,,,,,,,,,,,,,,
,616dea1ca454941d90877b73,627c698d974f31a5b4d7f915,2022-05-11_21h01.24.697,classification_task,2021.2.3,Win32,47.47436384,627c6715c52fd12f31907bd0,,,,,,,,,,,,,,,,,,,,,space,10.6111,l,0,1.8761,"[""0.208"",""0.464"",""0.788"",""0.828""]","[1,1,1,0]",0,0,0,0,1,0,0,,,0,FALSE,,,,,,,,,,,,,,,,,,,,,,,,,,,,,,,
,616dea1ca454941d90877b73,627c698d974f31a5b4d7f915,2022-05-11_21h01.24.697,classification_task,2021.2.3,Win32,47.47436384,627c6715c52fd12f31907bd0,,,,,,,,,,,,,,,,,,,,,,,a,1,1.6639,"[""0.055"",""0.464"",""0.788"",""0.888""]","[0,1,1,1]",0,1,1,1,1,0,0,,,0,FALSE,,,,,,,,,,,,,,,,,,,,,,,,,,,,,,,
,616dea1ca454941d90877b73,627c698d974f31a5b4d7f915,2022-05-11_21h01.24.697,classification_task,2021.2.3,Win32,47.47436384,627c6715c52fd12f31907bd0,,,,,,,,,,,,,,,,,,,,,,,l,0,1.5577,"[""0.032"",""0.396"",""0.597"",""0.943""]","[0,1,1,1]",0,2,2,2,1,0,1,,,0,FALSE,,,,,,,,,,,,,,,,,,,,,,,,,,,,,,,
,616dea1ca454941d90877b73,627c698d974f31a5b4d7f915,2022-05-11_21h01.24.697,classification_task,2021.2.3,Win32,47.47436384,627c6715c52fd12f31907bd0,,,,,,,,,,,,,,,,,,,,,,,l,1,1.129,"[""0.142"",""0.055"",""0.633"",""0.685""]","[1,0,1,1]",0,3,3,3,1,1,1,,,0,FALSE,,,,,,,,,,,,,,,,,,,,,,,,,,,,,,,
,616dea1ca454941d90877b73,627c698d974f31a5b4d7f915,2022-05-11_21h01.24.697,classification_task,2021.2.3,Win32,47.47436384,627c6715c52fd12f31907bd0,,,,,,,,,,,,,,,,,,,,,,,a,0,1.9862,"[""0.142"",""0.247"",""0.633"",""0.829""]","[1,1,1,0]",0,4,4,4,1,1,1,,,0,FALSE,,,,,,,,,,,,,,,,,,,,,,,,,,,,,,,
,616dea1ca454941d90877b73,627c698d974f31a5b4d7f915,2022-05-11_21h01.24.697,classification_task,2021.2.3,Win32,47.47436384,627c6715c52fd12f31907bd0,,,,,,,,,,,,,,,,,,,,,,,l,1,1.3784,"[""0.142"",""0.247"",""0.849"",""0.685""]","[1,1,0,1]",0,5,5,5,1,1,1,,,0,FALSE,,,,,,,,,,,,,,,,,,,,,,,,,,,,,,,
,616dea1ca454941d90877b73,627c698d974f31a5b4d7f915,2022-05-11_21h01.24.697,classification_task,2021.2.3,Win32,47.47436384,627c6715c52fd12f31907bd0,,,,,,,,,,,,,,,,,,,,,,,l,1,4.1186,"[""0.032"",""0.360"",""0.521"",""0.721""]","[0,1,1,1]",0,6,6,6,1,1,0,,,0,FALSE,,,,,,,,,,,,,,,,,,,,,,,,,,,,,,,
,616dea1ca454941d90877b73,627c698d974f31a5b4d7f915,2022-05-11_21h01.24.697,classification_task,2021.2.3,Win32,47.47436384,627c6715c52fd12f31907bd0,,,,,,,,,,,,,,,,,,,,,,,l,1,0.9235,"[""0.094"",""0.360"",""0.032"",""0.721""]","[1,1,0,1]",0,7,7,7,1,1,0,,,0,FALSE,,,,,,,,,,,,,,,,,,,,,,,,,,,,,,,
,616dea1ca454941d90877b73,627c698d974f31a5b4d7f915,2022-05-11_21h01.24.697,classification_task,2021.2.3,Win32,47.47436384,627c6715c52fd12f31907bd0,,,,,,,,,,,,,,,,,,,,,,,a,1,0.8225,"[""0.208"",""0.464"",""0.849"",""0.888""]","[1,1,0,1]",0,8,8,8,1,0,0,,,0,FALSE,,,,,,,,,,,,,,,,,,,,,,,,,,,,,,,
,616dea1ca454941d90877b73,627c698d974f31a5b4d7f915,2022-05-11_21h01.24.697,classification_task,2021.2.3,Win32,47.47436384,627c6715c52fd12f31907bd0,,,,,,,,,,,,,,,,,,,,,,,a,1,0.7411,"[""0.302"",""0.396"",""0.597"",""0.845""]","[1,1,1,0]",0,9,9,9,1,0,1,,,0,FALSE,,,,,,,,,,,,,,,,,,,,,,,,,,,,,,,
,616dea1ca454941d90877b73,627c698d974f31a5b4d7f915,2022-05-11_21h01.24.697,classification_task,2021.2.3,Win32,47.47436384,627c6715c52fd12f31907bd0,,,,,,,,,,,,,,,,,,,,,,,l,0,1.0259,"[""0.302"",""0.396"",""0.037"",""0.943""]","[1,1,0,1]",0,10,10,10,1,0,1,,,0,FALSE,,,,,,,,,,,,,,,,,,,,,,,,,,,,,,,
,616dea1ca454941d90877b73,627c698d974f31a5b4d7f915,2022-05-11_21h01.24.697,classification_task,2021.2.3,Win32,47.47436384,627c6715c52fd12f31907bd0,,,,,,,,,,,,,,,,,,,,,,,a,0,2.2012,"[""0.032"",""0.247"",""0.633"",""0.685""]","[0,1,1,1]",0,11,11,11,1,1,1,,,0,FALSE,,,,,,,,,,,,,,,,,,,,,,,,,,,,,,,
,616dea1ca454941d90877b73,627c698d974f31a5b4d7f915,2022-05-11_21h01.24.697,classification_task,2021.2.3,Win32,47.47436384,627c6715c52fd12f31907bd0,,,,,,,,,,,,,,,,,,,,,,,a,1,0.5839,"[""0.208"",""0.842"",""0.788"",""0.888""]","[1,0,1,1]",0,12,12,12,1,0,0,,,0,FALSE,,,,,,,,,,,,,,,,,,,,,,,,,,,,,,,
,616dea1ca454941d90877b73,627c698d974f31a5b4d7f915,2022-05-11_21h01.24.697,classification_task,2021.2.3,Win32,47.47436384,627c6715c52fd12f31907bd0,,,,,,,,,,,,,,,,,,,,,,,l,1,2.9445,"[""0.094"",""0.849"",""0.521"",""0.721""]","[1,0,1,1]",0,13,13,13,1,1,0,,,0,FALSE,,,,,,,,,,,,,,,,,,,,,,,,,,,,,,,
,616dea1ca454941d90877b73,627c698d974f31a5b4d7f915,2022-05-11_21h01.24.697,classification_task,2021.2.3,Win32,47.47436384,627c6715c52fd12f31907bd0,,,,,,,,,,,,,,,,,,,,,,,l,0,1.294,"[""0.302"",""0.037"",""0.597"",""0.943""]","[1,0,1,1]",0,14,14,14,1,0,1,,,0,FALSE,,,,,,,,,,,,,,,,,,,,,,,,,,,,,,,
,616dea1ca454941d90877b73,627c698d974f31a5b4d7f915,2022-05-11_21h01.24.697,classification_task,2021.2.3,Win32,47.47436384,627c6715c52fd12f31907bd0,,,,,,,,,,,,,,,,,,,,,,,l,1,0.9688,"[""0.094"",""0.360"",""0.521"",""0.849""]","[1,1,1,0]",0,15,15,15,1,1,0,,,0,FALSE,,,,,,,,,,,,,,,,,,,,,,,,,,,,,,,
,616dea1ca454941d90877b73,627c698d974f31a5b4d7f915,2022-05-11_21h01.24.697,classification_task,2021.2.3,Win32,47.47436384,627c6715c52fd12f31907bd0,,,,,,,,,,,,,,,,,,,,,,,l,0,0.6697,"[""0.302"",""0.822"",""0.597"",""0.943""]","[1,0,1,1]",0,16,16,16,1,0,1,,,0,FALSE,,,,,,,,,,,,,,,,,,,,,,,,,,,,,,,
,616dea1ca454941d90877b73,627c698d974f31a5b4d7f915,2022-05-11_21h01.24.697,classification_task,2021.2.3,Win32,47.47436384,627c6715c52fd12f31907bd0,,,,,,,,,,,,,,,,,,,,,,,a,0,0.8608,"[""0.032"",""0.247"",""0.633"",""0.685""]","[0,1,1,1]",0,17,17,17,1,1,1,,,0,FALSE,,,,,,,,,,,,,,,,,,,,,,,,,,,,,,,
,616dea1ca454941d90877b73,627c698d974f31a5b4d7f915,2022-05-11_21h01.24.697,classification_task,2021.2.3,Win32,47.47436384,627c6715c52fd12f31907bd0,,,,,,,,,,,,,,,,,,,,,,,a,0,0.975,"[""0.094"",""0.360"",""0.521"",""0.037""]","[1,1,1,0]",0,18,18,18,1,1,0,,,0,FALSE,,,,,,,,,,,,,,,,,,,,,,,,,,,,,,,
,616dea1ca454941d90877b73,627c698d974f31a5b4d7f915,2022-05-11_21h01.24.697,classification_task,2021.2.3,Win32,47.47436384,627c6715c52fd12f31907bd0,,,,,,,,,,,,,,,,,,,,,,,a,1,1.2929,"[""0.822"",""0.396"",""0.597"",""0.943""]","[0,1,1,1]",0,19,19,19,1,0,1,,,0,FALSE,,,,,,,,,,,,,,,,,,,,,,,,,,,,,,,
,616dea1ca454941d90877b73,627c698d974f31a5b4d7f915,2022-05-11_21h01.24.697,classification_task,2021.2.3,Win32,47.47436384,627c6715c52fd12f31907bd0,,,,,,,,,,,,,,,,,,,,,,,a,0,1.894,"[""0.827"",""0.360"",""0.521"",""0.721""]","[0,1,1,1]",0,20,20,20,1,1,0,,,0,FALSE,,,,,,,,,,,,,,,,,,,,,,,,,,,,,,,
,616dea1ca454941d90877b73,627c698d974f31a5b4d7f915,2022-05-11_21h01.24.697,classification_task,2021.2.3,Win32,47.47436384,627c6715c52fd12f31907bd0,,,,,,,,,,,,,,,,,,,,,,,a,1,0.7939,"[""0.208"",""0.464"",""0.788"",""0.430""]","[1,1,1,0]",0,21,21,21,1,0,0,,,0,FALSE,,,,,,,,,,,,,,,,,,,,,,,,,,,,,,,
,616dea1ca454941d90877b73,627c698d974f31a5b4d7f915,2022-05-11_21h01.24.697,classification_task,2021.2.3,Win32,47.47436384,627c6715c52fd12f31907bd0,,,,,,,,,,,,,,,,,,,,,,,a,0,2.3376,"[""0.142"",""0.247"",""0.822"",""0.685""]","[1,1,0,1]",0,22,22,22,1,1,1,,,0,FALSE,,,,,,,,,,,,,,,,,,,,,,,,,,,,,,,
,616dea1ca454941d90877b73,627c698d974f31a5b4d7f915,2022-05-11_21h01.24.697,classification_task,2021.2.3,Win32,47.47436384,627c6715c52fd12f31907bd0,,,,,,,,,,,,,,,,,,,,,,,a,0,1.605,"[""0.142"",""0.247"",""0.633"",""0.849""]","[1,1,1,0]",0,23,23,23,1,1,1,,,0,FALSE,,,,,,,,,,,,,,,,,,,,,,,,,,,,,,,
,616dea1ca454941d90877b73,627c698d974f31a5b4d7f915,2022-05-11_21h01.24.697,classification_task,2021.2.3,Win32,47.47436384,627c6715c52fd12f31907bd0,,,,,,,,,,,,,,,,,,,,,,,a,1,1.4744,"[""0.302"",""0.396"",""0.597"",""0.031""]","[1,1,1,0]",0,24,24,24,1,0,1,,,0,FALSE,,,,,,,,,,,,,,,,,,,,,,,,,,,,,,,
,616dea1ca454941d90877b73,627c698d974f31a5b4d7f915,2022-05-11_21h01.24.697,classification_task,2021.2.3,Win32,47.47436384,627c6715c52fd12f31907bd0,,,,,,,,,,,,,,,,,,,,,,,l,0,0.9516,"[""0.208"",""0.464"",""0.037"",""0.888""]","[1,1,0,1]",0,25,25,25,1,0,0,,,0,FALSE,,,,,,,,,,,,,,,,,,,,,,,,,,,,,,,
,616dea1ca454941d90877b73,627c698d974f31a5b4d7f915,2022-05-11_21h01.24.697,classification_task,2021.2.3,Win32,47.47436384,627c6715c52fd12f31907bd0,,,,,,,,,,,,,,,,,,,,,,,l,1,1.7395,"[""0.142"",""0.055"",""0.633"",""0.685""]","[1,0,1,1]",0,26,26,26,1,1,1,,,0,FALSE,,,,,,,,,,,,,,,,,,,,,,,,,,,,,,,
,616dea1ca454941d90877b73,627c698d974f31a5b4d7f915,2022-05-11_21h01.24.697,classification_task,2021.2.3,Win32,47.47436384,627c6715c52fd12f31907bd0,,,,,,,,,,,,,,,,,,,,,,,l,1,1.1578,"[""0.094"",""0.360"",""0.826"",""0.721""]","[1,1,0,1]",0,27,27,27,1,1,0,,,0,FALSE,,,,,,,,,,,,,,,,,,,,,,,,,,,,,,,
,616dea1ca454941d90877b73,627c698d974f31a5b4d7f915,2022-05-11_21h01.24.697,classification_task,2021.2.3,Win32,47.47436384,627c6715c52fd12f31907bd0,,,,,,,,,,,,,,,,,,,,,,,a,1,0.9239,"[""0.208"",""0.822"",""0.788"",""0.888""]","[1,0,1,1]",0,28,28,28,1,0,0,,,0,FALSE,,,,,,,,,,,,,,,,,,,,,,,,,,,,,,,
,616dea1ca454941d90877b73,627c698d974f31a5b4d7f915,2022-05-11_21h01.24.697,classification_task,2021.2.3,Win32,47.47436384,627c6715c52fd12f31907bd0,,,,,,,,,,,,,,,,,,,,,,,l,1,1.6307,"[""0.094"",""0.829"",""0.521"",""0.721""]","[1,0,1,1]",0,29,29,29,1,1,0,,,0,FALSE,,,,,,,,,,,,,,,,,,,,,,,,,,,,,,,
,616dea1ca454941d90877b73,627c698d974f31a5b4d7f915,2022-05-11_21h01.24.697,classification_task,2021.2.3,Win32,47.47436384,627c6715c52fd12f31907bd0,,,,,,,,,,,,,,,,,,,,,,,l,0,1.7665,"[""0.032"",""0.464"",""0.788"",""0.888""]","[0,1,1,1]",0,30,30,30,1,0,0,,,0,FALSE,,,,,,,,,,,,,,,,,,,,,,,,,,,,,,,
,616dea1ca454941d90877b73,627c698d974f31a5b4d7f915,2022-05-11_21h01.24.697,classification_task,2021.2.3,Win32,47.47436384,627c6715c52fd12f31907bd0,,,,,,,,,,,,,,,,,,,,,,,l,0,1.1123,"[""0.302"",""0.396"",""0.826"",""0.943""]","[1,1,0,1]",0,31,31,31,1,0,1,,,0,FALSE,,,,,,,,,,,,,,,,,,,,,,,,,,,,,,,
,616dea1ca454941d90877b73,627c698d974f31a5b4d7f915,2022-05-11_21h01.24.697,classification_task,2021.2.3,Win32,47.47436384,627c6715c52fd12f31907bd0,,,,,,,,,,,,,,,,,,,,,,,l,1,1.744,"[""0.142"",""0.247"",""0.633"",""0.822""]","[1,1,1,0]",0,32,32,32,1,1,1,,,0,FALSE,,,,,,,,,,,,,,,,,,,,,,,,,,,,,,,
,616dea1ca454941d90877b73,627c698d974f31a5b4d7f915,2022-05-11_21h01.24.697,classification_task,2021.2.3,Win32,47.47436384,627c6715c52fd12f31907bd0,,,,,,,,,,,,,,,,,,,,,,,a,0,2.59,"[""0.142"",""0.822"",""0.633"",""0.685""]","[1,0,1,1]",0,33,33,33,1,1,1,,,0,FALSE,,,,,,,,,,,,,,,,,,,,,,,,,,,,,,,
,616dea1ca454941d90877b73,627c698d974f31a5b4d7f915,2022-05-11_21h01.24.697,classification_task,2021.2.3,Win32,47.47436384,627c6715c52fd12f31907bd0,,,,,,,,,,,,,,,,,,,,,,,l,1,1.447,"[""0.829"",""0.360"",""0.521"",""0.721""]","[0,1,1,1]",0,34,34,34,1,1,0,,,0,FALSE,,,,,,,,,,,,,,,,,,,,,,,,,,,,,,,
,616dea1ca454941d90877b73,627c698d974f31a5b4d7f915,2022-05-11_21h01.24.697,classification_task,2021.2.3,Win32,47.47436384,627c6715c52fd12f31907bd0,,,,,,,,,,,,,,,,,,,,,,,a,1,0.9536,"[""0.208"",""0.037"",""0.788"",""0.888""]","[1,0,1,1]",0,35,35,35,1,0,0,,,0,FALSE,,,,,,,,,,,,,,,,,,,,,,,,,,,,,,,
,616dea1ca454941d90877b73,627c698d974f31a5b4d7f915,2022-05-11_21h01.24.697,classification_task,2021.2.3,Win32,47.47436384,627c6715c52fd12f31907bd0,,,,,,,,,,,,,,,,,,,,,,,l,0,1.5546,"[""0.302"",""0.849"",""0.597"",""0.943""]","[1,0,1,1]",0,36,36,36,1,0,1,,,0,FALSE,,,,,,,,,,,,,,,,,,,,,,,,,,,,,,,
,616dea1ca454941d90877b73,627c698d974f31a5b4d7f915,2022-05-11_21h01.24.697,classification_task,2021.2.3,Win32,47.47436384,627c6715c52fd12f31907bd0,,,,,,,,,,,,,,,,,,,,,,,l,1,1.785,"[""0.094"",""0.849"",""0.521"",""0.721""]","[1,0,1,1]",0,37,37,37,1,1,0,,,0,FALSE,,,,,,,,,,,,,,,,,,,,,,,,,,,,,,,
,616dea1ca454941d90877b73,627c698d974f31a5b4d7f915,2022-05-11_21h01.24.697,classification_task,2021.2.3,Win32,47.47436384,627c6715c52fd12f31907bd0,,,,,,,,,,,,,,,,,,,,,,,a,0,0.5997,"[""0.142"",""0.247"",""0.032"",""0.685""]","[1,1,0,1]",0,38,38,38,1,1,1,,,0,FALSE,,,,,,,,,,,,,,,,,,,,,,,,,,,,,,,
,616dea1ca454941d90877b73,627c698d974f31a5b4d7f915,2022-05-11_21h01.24.697,classification_task,2021.2.3,Win32,47.47436384,627c6715c52fd12f31907bd0,,,,,,,,,,,,,,,,,,,,,,,a,1,0.6634,"[""0.302"",""0.396"",""0.597"",""0.849""]","[1,1,1,0]",0,39,39,39,1,0,1,,,0,FALSE,,,,,,,,,,,,,,,,,,,,,,,,,,,,,,,
,616dea1ca454941d90877b73,627c698d974f31a5b4d7f915,2022-05-11_21h01.24.697,classification_task,2021.2.3,Win32,47.47436384,627c6715c52fd12f31907bd0,,,,,,,,,,,,,,,,,,,,,,,a,1,1.0125,"[""0.208"",""0.464"",""0.788"",""0.826""]","[1,1,1,0]",0,40,40,40,1,0,0,,,0,FALSE,,,,,,,,,,,,,,,,,,,,,,,,,,,,,,,
,616dea1ca454941d90877b73,627c698d974f31a5b4d7f915,2022-05-11_21h01.24.697,classification_task,2021.2.3,Win32,47.47436384,627c6715c52fd12f31907bd0,,,,,,,,,,,,,,,,,,,,,,,l,1,1.4835,"[""0.094"",""0.360"",""0.845"",""0.721""]","[1,1,0,1]",0,41,41,41,1,1,0,,,0,FALSE,,,,,,,,,,,,,,,,,,,,,,,,,,,,,,,
,616dea1ca454941d90877b73,627c698d974f31a5b4d7f915,2022-05-11_21h01.24.697,classification_task,2021.2.3,Win32,47.47436384,627c6715c52fd12f31907bd0,,,,,,,,,,,,,,,,,,,,,,,l,1,3.7848,"[""0.094"",""0.360"",""0.521"",""0.031""]","[1,1,1,0]",0,42,42,42,1,1,0,,,0,FALSE,,,,,,,,,,,,,,,,,,,,,,,,,,,,,,,
,616dea1ca454941d90877b73,627c698d974f31a5b4d7f915,2022-05-11_21h01.24.697,classification_task,2021.2.3,Win32,47.47436384,627c6715c52fd12f31907bd0,,,,,,,,,,,,,,,,,,,,,,,a,0,1.2098,"[""0.829"",""0.247"",""0.633"",""0.685""]","[0,1,1,1]",0,43,43,43,1,1,1,,,0,FALSE,,,,,,,,,,,,,,,,,,,,,,,,,,,,,,,
,616dea1ca454941d90877b73,627c698d974f31a5b4d7f915,2022-05-11_21h01.24.697,classification_task,2021.2.3,Win32,47.47436384,627c6715c52fd12f31907bd0,,,,,,,,,,,,,,,,,,,,,,,l,0,5.2801,"[""0.828"",""0.396"",""0.597"",""0.943""]","[0,1,1,1]",0,44,44,44,1,0,1,,,0,FALSE,,,,,,,,,,,,,,,,,,,,,,,,,,,,,,,
,616dea1ca454941d90877b73,627c698d974f31a5b4d7f915,2022-05-11_21h01.24.697,classification_task,2021.2.3,Win32,47.47436384,627c6715c52fd12f31907bd0,,,,,,,,,,,,,,,,,,,,,,,a,1,1.8797,"[""0.842"",""0.464"",""0.788"",""0.888""]","[0,1,1,1]",0,45,45,45,1,0,0,,,0,FALSE,,,,,,,,,,,,,,,,,,,,,,,,,,,,,,,
,616dea1ca454941d90877b73,627c698d974f31a5b4d7f915,2022-05-11_21h01.24.697,classification_task,2021.2.3,Win32,47.47436384,627c6715c52fd12f31907bd0,,,,,,,,,,,,,,,,,,,,,,,a,1,1.2688,"[""0.302"",""0.396"",""0.430"",""0.943""]","[1,1,0,1]",0,46,46,46,1,0,1,,,0,FALSE,,,,,,,,,,,,,,,,,,,,,,,,,,,,,,,
,616dea1ca454941d90877b73,627c698d974f31a5b4d7f915,2022-05-11_21h01.24.697,classification_task,2021.2.3,Win32,47.47436384,627c6715c52fd12f31907bd0,,,,,,,,,,,,,,,,,,,,,,,a,1,0.9872,"[""0.208"",""0.464"",""0.829"",""0.888""]","[1,1,0,1]",0,47,47,47,1,0,0,,,0,FALSE,,,,,,,,,,,,,,,,,,,,,,,,,,,,,,,
,616dea1ca454941d90877b73,627c698d974f31a5b4d7f915,2022-05-11_21h01.24.697,classification_task,2021.2.3,Win32,47.47436384,627c6715c52fd12f31907bd0,,,,,,,,,,,,,,,,,,,,,,,a,1,1.0432,"[""0.208"",""0.827"",""0.788"",""0.888""]","[1,0,1,1]",0,48,48,48,1,0,0,,,0,FALSE,,,,,,,,,,,,,,,,,,,,,,,,,,,,,,,
,616dea1ca454941d90877b73,627c698d974f31a5b4d7f915,2022-05-11_21h01.24.697,classification_task,2021.2.3,Win32,47.47436384,627c6715c52fd12f31907bd0,,,,,,,,,,,,,,,,,,,,,,,a,0,1.3687,"[""0.142"",""0.247"",""0.037"",""0.685""]","[1,1,0,1]",0,49,49,49,1,1,1,,,0,FALSE,,,,,,,,,,,,,,,,,,,,,,,,,,,,,,,
,616dea1ca454941d90877b73,627c698d974f31a5b4d7f915,2022-05-11_21h01.24.697,classification_task,2021.2.3,Win32,47.47436384,627c6715c52fd12f31907bd0,,,,,,,,,,,,,,,,,,,,,,,l,0,1.4963,"[""0.302"",""0.396"",""0.597"",""0.032""]","[1,1,1,0]",0,50,50,50,1,0,1,,,0,FALSE,,,,,,,,,,,,,,,,,,,,,,,,,,,,,,,
,616dea1ca454941d90877b73,627c698d974f31a5b4d7f915,2022-05-11_21h01.24.697,classification_task,2021.2.3,Win32,47.47436384,627c6715c52fd12f31907bd0,,,,,,,,,,,,,,,,,,,,,,,a,0,1.6083,"[""0.827"",""0.247"",""0.633"",""0.685""]","[0,1,1,1]",0,51,51,51,1,1,1,,,0,FALSE,,,,,,,,,,,,,,,,,,,,,,,,,,,,,,,
,616dea1ca454941d90877b73,627c698d974f31a5b4d7f915,2022-05-11_21h01.24.697,classification_task,2021.2.3,Win32,47.47436384,627c6715c52fd12f31907bd0,,,,,,,,,,,,,,,,,,,,,,,a,1,1.1532,"[""0.827"",""0.464"",""0.788"",""0.888""]","[0,1,1,1]",0,52,52,52,1,0,0,,,0,FALSE,,,,,,,,,,,,,,,,,,,,,,,,,,,,,,,
,616dea1ca454941d90877b73,627c698d974f31a5b4d7f915,2022-05-11_21h01.24.697,classification_task,2021.2.3,Win32,47.47436384,627c6715c52fd12f31907bd0,,,,,,,,,,,,,,,,,,,,,,,l,1,1.361,"[""0.094"",""0.829"",""0.521"",""0.721""]","[1,0,1,1]",0,53,53,53,1,1,0,,,0,FALSE,,,,,,,,,,,,,,,,,,,,,,,,,,,,,,,
,616dea1ca454941d90877b73,627c698d974f31a5b4d7f915,2022-05-11_21h01.24.697,classification_task,2021.2.3,Win32,47.47436384,627c6715c52fd12f31907bd0,,,,,,,,,,,,,,,,,,,,,,,a,0,1.7506,"[""0.142"",""0.826"",""0.633"",""0.685""]","[1,0,1,1]",0,54,54,54,1,1,1,,,0,FALSE,,,,,,,,,,,,,,,,,,,,,,,,,,,,,,,
,616dea1ca454941d90877b73,627c698d974f31a5b4d7f915,2022-05-11_21h01.24.697,classification_task,2021.2.3,Win32,47.47436384,627c6715c52fd12f31907bd0,,,,,,,,,,,,,,,,,,,,,,,l,0,0.8932,"[""0.208"",""0.464"",""0.031"",""0.888""]","[1,1,0,1]",0,55,55,55,1,0,0,,,0,FALSE,,,,,,,,,,,,,,,,,,,,,,,,,,,,,,,
,616dea1ca454941d90877b73,627c698d974f31a5b4d7f915,2022-05-11_21h01.24.697,classification_task,2021.2.3,Win32,47.47436384,627c6715c52fd12f31907bd0,,,,,,,,,,,,,,,,,,,,,,,l,0,1.9059,"[""0.302"",""0.037"",""0.597"",""0.943""]","[1,0,1,1]",0,56,56,56,1,0,1,,,0,FALSE,,,,,,,,,,,,,,,,,,,,,,,,,,,,,,,
,616dea1ca454941d90877b73,627c698d974f31a5b4d7f915,2022-05-11_21h01.24.697,classification_task,2021.2.3,Win32,47.47436384,627c6715c52fd12f31907bd0,,,,,,,,,,,,,,,,,,,,,,,l,1,1.0082,"[""0.094"",""0.360"",""0.521"",""0.826""]","[1,1,1,0]",0,57,57,57,1,1,0,,,0,FALSE,,,,,,,,,,,,,,,,,,,,,,,,,,,,,,,
,616dea1ca454941d90877b73,627c698d974f31a5b4d7f915,2022-05-11_21h01.24.697,classification_task,2021.2.3,Win32,47.47436384,627c6715c52fd12f31907bd0,,,,,,,,,,,,,,,,,,,,,,,a,1,1.5504,"[""0.302"",""0.396"",""0.827"",""0.943""]","[1,1,0,1]",0,58,58,58,1,0,1,,,0,FALSE,,,,,,,,,,,,,,,,,,,,,,,,,,,,,,,
,616dea1ca454941d90877b73,627c698d974f31a5b4d7f915,2022-05-11_21h01.24.697,classification_task,2021.2.3,Win32,47.47436384,627c6715c52fd12f31907bd0,,,,,,,,,,,,,,,,,,,,,,,a,0,1.3553,"[""0.142"",""0.247"",""0.633"",""0.037""]","[1,1,1,0]",0,59,59,59,1,1,1,,,0,FALSE,,,,,,,,,,,,,,,,,,,,,,,,,,,,,,,
,616dea1ca454941d90877b73,627c698d974f31a5b4d7f915,2022-05-11_21h01.24.697,classification_task,2021.2.3,Win32,47.47436384,627c6715c52fd12f31907bd0,,,,,,,,,,,,,,,,,,,,,,,l,0,1.3367,"[""0.845"",""0.396"",""0.597"",""0.943""]","[0,1,1,1]",0,60,60,60,1,0,1,,,0,FALSE,,,,,,,,,,,,,,,,,,,,,,,,,,,,,,,
,616dea1ca454941d90877b73,627c698d974f31a5b4d7f915,2022-05-11_21h01.24.697,classification_task,2021.2.3,Win32,47.47436384,627c6715c52fd12f31907bd0,,,,,,,,,,,,,,,,,,,,,,,l,1,1.3423,"[""0.094"",""0.360"",""0.055"",""0.721""]","[1,1,0,1]",0,61,61,61,1,1,0,,,0,FALSE,,,,,,,,,,,,,,,,,,,,,,,,,,,,,,,
,616dea1ca454941d90877b73,627c698d974f31a5b4d7f915,2022-05-11_21h01.24.697,classification_task,2021.2.3,Win32,47.47436384,627c6715c52fd12f31907bd0,,,,,,,,,,,,,,,,,,,,,,,l,0,1.0793,"[""0.208"",""0.464"",""0.788"",""0.031""]","[1,1,1,0]",0,62,62,62,1,0,0,,,0,FALSE,,,,,,,,,,,,,,,,,,,,,,,,,,,,,,,
,616dea1ca454941d90877b73,627c698d974f31a5b4d7f915,2022-05-11_21h01.24.697,classification_task,2021.2.3,Win32,47.47436384,627c6715c52fd12f31907bd0,,,,,,,,,,,,,,,,,,,,,,,l,1,0.784,"[""0.037"",""0.360"",""0.521"",""0.721""]","[0,1,1,1]",0,63,63,63,1,1,0,,,0,FALSE,,,,,,,,,,,,,,,,,,,,,,,,,,,,,,,
,616dea1ca454941d90877b73,627c698d974f31a5b4d7f915,2022-05-11_21h01.24.697,classification_task,2021.2.3,Win32,47.47436384,627c6715c52fd12f31907bd0,,,,,,,,,,,,,,,,,,,,,,,,,,,,,,,,,,,,,,,0, ,,0,4.65553351,179.6985,0,2,2,2,1,2,3,,,,,,,,,,,,,,,,,,
,616dea1ca454941d90877b73,627c698d974f31a5b4d7f915,2022-05-11_21h01.24.697,classification_task,2021.2.3,Win32,47.47436384,627c6715c52fd12f31907bd0,,,,,,,,,,,,,,,,,,,,,,,,,,,,,,,,,,,,,,,1,  ,,0,4.827766755,187.2497,0,2,2,2,1,2,3,,,,,,,,,,,,,,,,,,
,616dea1ca454941d90877b73,627c698d974f31a5b4d7f915,2022-05-11_21h01.24.697,classification_task,2021.2.3,Win32,47.47436384,627c6715c52fd12f31907bd0,,,,,,,,,,,,,,,,,,,,,,,,,,,,,,,,,,,,,,,2,  ,,0,9.374724427,192.041,0,2,2,2,1,2,3,,,,,,,,,,,,,,,,,,
,616dea1ca454941d90877b73,627c698d974f31a5b4d7f915,2022-05-11_21h01.24.697,classification_task,2021.2.3,Win32,47.47436384,627c6715c52fd12f31907bd0,,,,,,,,,,,,,,,,,,,,,,,,,,,,,,,,,,,,,,,,,,,,,0,2,2,2,1,,3,,,,,,,,,,,,,,,,,,
,616dea1ca454941d90877b73,627c698d974f31a5b4d7f915,2022-05-11_21h01.24.697,classification_task,2021.2.3,Win32,47.47436384,627c6715c52fd12f31907bd0,,,,,,,,,,,,,,,,,,,,,,,,,,,,,,,,,,,,,,,,,,,,,,,,,,,,,I believe the aid is a competent performer,,0.7,0,5,1223.1583,0,0,0,0,1,0,,,,,
,616dea1ca454941d90877b73,627c698d974f31a5b4d7f915,2022-05-11_21h01.24.697,classification_task,2021.2.3,Win32,47.47436384,627c6715c52fd12f31907bd0,,,,,,,,,,,,,,,,,,,,,,,,,,,,,,,,,,,,,,,,,,,,,,,,,,,,,I trust the aid,,0.7,0,5,1224.3367,0,0,0,0,1,0,,,,,
,616dea1ca454941d90877b73,627c698d974f31a5b4d7f915,2022-05-11_21h01.24.697,classification_task,2021.2.3,Win32,47.47436384,627c6715c52fd12f31907bd0,,,,,,,,,,,,,,,,,,,,,,,,,,,,,,,,,,,,,,,,,,,,,,,,,,,,,I have confidence in the advice given by the aid,,0.7,0,5,1227.1017,0,0,0,0,1,0,,,,,
,616dea1ca454941d90877b73,627c698d974f31a5b4d7f915,2022-05-11_21h01.24.697,classification_task,2021.2.3,Win32,47.47436384,627c6715c52fd12f31907bd0,,,,,,,,,,,,,,,,,,,,,,,,,,,,,,,,,,,,,,,,,,,,,,,,,,,,,I can depend on the aid,,0.7,0,5,1229.4121,0,0,0,0,1,0,,,,,
,616dea1ca454941d90877b73,627c698d974f31a5b4d7f915,2022-05-11_21h01.24.697,classification_task,2021.2.3,Win32,47.47436384,627c6715c52fd12f31907bd0,,,,,,,,,,,,,,,,,,,,,,,,,,,,,,,,,,,,,,,,,,,,,,,,,,,,,I can rely on the aid to behave in consistent ways,,0.7,0,5,1231.2678,0,0,0,0,1,0,,,,,
,616dea1ca454941d90877b73,627c698d974f31a5b4d7f915,2022-05-11_21h01.24.697,classification_task,2021.2.3,Win32,47.47436384,627c6715c52fd12f31907bd0,,,,,,,,,,,,,,,,,,,,,,,,,,,,,,,,,,,,,,,,,,,,,,,,,,,,,I can rely on the aid to do its best every time I take its advice,,0.7,0,5,1234.1159,0,0,0,0,1,0,,,,,
,616dea1ca454941d90877b73,627c698d974f31a5b4d7f915,2022-05-11_21h01.24.697,classification_task,2021.2.3,Win32,47.47436384,627c6715c52fd12f31907bd0,,,,,,,,,,,,,,,,,,,,,,,,,,,,,,,,,,,,,,,,,,,,,,,,,,,,,"On trials you completed with assistance from the aid, how frequently did you think the aid was correct?",,0.7,0,90%,,0,0,0,0,1,0,,,,,
,616dea1ca454941d90877b73,627c698d974f31a5b4d7f915,2022-05-11_21h01.24.697,classification_task,2021.2.3,Win32,47.47436384,627c6715c52fd12f31907bd0,,,,,,,,,,,,,,,,,,,,,,,,,,,,,,,,,,,,,,,,,,,,,,,,,,,,,"On trials you completed without the aid, how frequently did you think you were correct?",,0.7,0,20%,,0,0,0,0,1,0,,,,,
,616dea1ca454941d90877b73,627c698d974f31a5b4d7f915,2022-05-11_21h01.24.697,classification_task,2021.2.3,Win32,47.47436384,627c6715c52fd12f31907bd0,,,,,,,,,,,,,,,,,,,,,,,,,,,,,,,,,,,,,,,,,,,,,,,,,,,,,,,,,,,0,0,0,0,1,,,,,,
,616dea1ca454941d90877b73,627c698d974f31a5b4d7f915,2022-05-11_21h01.24.697,classification_task,2021.2.3,Win32,47.47436384,627c6715c52fd12f31907bd0,,,,,,,,,,,,,,,,,,,,,,,,,,,,,,,,,,,,,,,,,,,,,,,,,,,,,,,,,,,,,,,,,space,14.4866,1276.4966,,
,616dea1ca454941d90877b73,627c698d974f31a5b4d7f915,2022-05-11_21h01.24.697,classification_task,2021.2.3,Win32,47.47436384,627c6715c52fd12f31907bd0,,,,,,,,,,,,,,,,,,,,,,,,,,,,,,,,,,,,,,,,,,,,,,,,,,,,,,,,,,,,,,,,,,,,"Mozilla/5.0 (Windows NT 10.0; Win64; x64) AppleWebKit/537.36 (KHTML, like Gecko) Chrome/101.0.4951.54 Safari/537.36 Edg/101.0.1210.39",
,616dea1ca454941d90877b73,627c698d974f31a5b4d7f915,2022-05-11_21h01.24.697,classification_task,2021.2.3,Win32,47.47436384,627c6715c52fd12f31907bd0,,,,,,,,,,,,,,,,,,,,,,,,,,,,,,,,,,,,,,,,,,,,,,,,,,,,,,,,,,,,,,,,,,,,,HIGHLIGHT
