usingWebGL,participant,session,date,expName,psychopyVersion,OS,frameRate,PROLIFIC_PID,STUDY_ID,SESSION_ID,signatures_friend,signatures_foe,band_ranges_top,band_ranges_bottom,formitemText,formtype,formundefined,formitemWidth,formindex,formresponse,formrt,key_resp_2.keys,key_resp_2.rt,tute_resp.keys,tute_resp.rt,tutorial.thisRepN,tutorial.thisTrialN,tutorial.thisN,tutorial.thisIndex,tutorial.ran,key_resp_4.keys,key_resp_4.rt,key_resp.keys,key_resp.corr,lines_presented,is_signal_presented,trials.thisRepN,trials.thisTrialN,trials.thisN,trials.thisIndex,trials.ran,vessel,active_band,lines,is_signal,supported_pos,catch_trial,key_resp.rt,debrief_formindex,debrief_formitemText,debrief_formtype,debrief_formitemWidth,debrief_formresponse,debrief_formrt,phases.thisRepN,phases.thisTrialN,phases.thisN,phases.thisIndex,phases.ran,phases.order,phase,key_resp_3.keys,trustitemText,trusttype,trustitemWidth,trustindex,trustresponse,trustrt,support_status.thisRepN,support_status.thisTrialN,support_status.thisN,support_status.thisIndex,support_status.ran,support_status.order,key_resp_5.keys,key_resp_5.rt,globalClockTime,userAgent
TRUE,616f2006b4373ed092c75910,001,2022-04-29_03h00.07.794,classification_task,2021.2.3,Win32,60.0132029,616f2006b4373ed092c75910,626b377229c10585ec392f8a,626b3825e869e48ade68b1df,,,,,,,,,,,,,,,,,,,,,,,,,,,,,,,,,,,,,,,,,,,,,,,,,,,,,,,,,,,,,,,,,,,,
,616f2006b4373ed092c75910,001,2022-04-29_03h00.07.794,classification_task,2021.2.3,Win32,60.0132029,616f2006b4373ed092c75910,626b377229c10585ec392f8a,626b3825e869e48ade68b1df,"[[""0.223"",""0.548"",""0.869"",""0.903""],[""0.321"",""0.503"",""0.937"",""0.971""]]","[[""0.095"",""0.402"",""0.652"",""0.811""],[""0.031"",""0.188"",""0.590"",""0.690""]]","[1,10]","[100,1000]",Video game experience,,,0.7,0,,,,,,,,,,,,,,,,,,,,,,,,,,,,,,,,,,,,,,,,,,,,,,,,,,,,,,,,,,,
,616f2006b4373ed092c75910,001,2022-04-29_03h00.07.794,classification_task,2021.2.3,Win32,60.0132029,616f2006b4373ed092c75910,626b377229c10585ec392f8a,626b3825e869e48ade68b1df,,,,,Approximately how many hours did you spend playing video games in the last week?,,,0.7,0,0,,,,,,,,,,,,,,,,,,,,,,,,,,,,,,,,,,,,,,,,,,,,,,,,,,,,,,,,,,
,616f2006b4373ed092c75910,001,2022-04-29_03h00.07.794,classification_task,2021.2.3,Win32,60.0132029,616f2006b4373ed092c75910,626b377229c10585ec392f8a,626b3825e869e48ade68b1df,,,,,"Which game did you play the most this year? (Enter ""None"" if you didn't play any)",,,0.7,0,None,,,,,,,,,,,,,,,,,,,,,,,,,,,,,,,,,,,,,,,,,,,,,,,,,,,,,,,,,,
,616f2006b4373ed092c75910,001,2022-04-29_03h00.07.794,classification_task,2021.2.3,Win32,60.0132029,616f2006b4373ed092c75910,626b377229c10585ec392f8a,626b3825e869e48ade68b1df,,,,,Visual perception,,,0.7,0,,,,,,,,,,,,,,,,,,,,,,,,,,,,,,,,,,,,,,,,,,,,,,,,,,,,,,,,,,,
,616f2006b4373ed092c75910,001,2022-04-29_03h00.07.794,classification_task,2021.2.3,Win32,60.0132029,616f2006b4373ed092c75910,626b377229c10585ec392f8a,626b3825e869e48ade68b1df,,,,,Do you have any form of color blindness?,,,0.7,0,No,26.0924,,,,,,,,,,,,,,,,,,,,,,,,,,,,,,,,,,,,,,,,,,,,,,,,,,,,,,,,,
,616f2006b4373ed092c75910,001,2022-04-29_03h00.07.794,classification_task,2021.2.3,Win32,60.0132029,616f2006b4373ed092c75910,626b377229c10585ec392f8a,626b3825e869e48ade68b1df,,,,,Do you use software to change the colour temperature of your screen (e.g. f.lux)?,,,0.7,0,No,27.5509,,,,,,,,,,,,,,,,,,,,,,,,,,,,,,,,,,,,,,,,,,,,,,,,,,,,,,,,,
,616f2006b4373ed092c75910,001,2022-04-29_03h00.07.794,classification_task,2021.2.3,Win32,60.0132029,616f2006b4373ed092c75910,626b377229c10585ec392f8a,626b3825e869e48ade68b1df,,,,,,,,,,,,space,32.3319,space,13.6078,0,0,0,0,1,,,,,,,,,,,,,,,,,,,,,,,,,,,,,,,,,,,,,,,,,,,,,,,,
,616f2006b4373ed092c75910,001,2022-04-29_03h00.07.794,classification_task,2021.2.3,Win32,60.0132029,616f2006b4373ed092c75910,626b377229c10585ec392f8a,626b3825e869e48ade68b1df,,,,,,,,,,,,,,space,13.5571,1,0,1,0,1,,,,,,,,,,,,,,,,,,,,,,,,,,,,,,,,,,,,,,,,,,,,,,,,
,616f2006b4373ed092c75910,001,2022-04-29_03h00.07.794,classification_task,2021.2.3,Win32,60.0132029,616f2006b4373ed092c75910,626b377229c10585ec392f8a,626b3825e869e48ade68b1df,,,,,,,,,,,,,,space,45.7208,2,0,2,0,1,,,,,,,,,,,,,,,,,,,,,,,,,,,,,,,,,,,,,,,,,,,,,,,,
,616f2006b4373ed092c75910,001,2022-04-29_03h00.07.794,classification_task,2021.2.3,Win32,60.0132029,616f2006b4373ed092c75910,626b377229c10585ec392f8a,626b3825e869e48ade68b1df,,,,,,,,,,,,,,space,6.1815,3,0,3,0,1,,,,,,,,,,,,,,,,,,,,,,,,,,,,,,,,,,,,,,,,,,,,,,,,
,616f2006b4373ed092c75910,001,2022-04-29_03h00.07.794,classification_task,2021.2.3,Win32,60.0132029,616f2006b4373ed092c75910,626b377229c10585ec392f8a,626b3825e869e48ade68b1df,,,,,,,,,,,,,,space,12.5812,4,0,4,0,1,,,,,,,,,,,,,,,,,,,,,,,,,,,,,,,,,,,,,,,,,,,,,,,,
,616f2006b4373ed092c75910,001,2022-04-29_03h00.07.794,classification_task,2021.2.3,Win32,60.0132029,616f2006b4373ed092c75910,626b377229c10585ec392f8a,626b3825e869e48ade68b1df,,,,,,,,,,,,,,,,,,,,,space,14.8471,,0,"[""0.463"",""0.548"",""0.869"",""0.903""]","[0,1,1,1]",0,0,0,0,1,0,0,,,0,FALSE,,,,,,,,,,,,,,,,,,,,,,,,,,,,,,,
,616f2006b4373ed092c75910,001,2022-04-29_03h00.07.794,classification_task,2021.2.3,Win32,60.0132029,616f2006b4373ed092c75910,626b377229c10585ec392f8a,626b3825e869e48ade68b1df,,,,,,,,,,,,,,,,,,,,,,,l,0,"[""0.321"",""0.259"",""0.937"",""0.971""]","[1,0,1,1]",0,1,1,1,1,0,1,,,0,FALSE,6.1932,,,,,,,,,,,,,,,,,,,,,,,,,,,,,,
,616f2006b4373ed092c75910,001,2022-04-29_03h00.07.794,classification_task,2021.2.3,Win32,60.0132029,616f2006b4373ed092c75910,626b377229c10585ec392f8a,626b3825e869e48ade68b1df,,,,,,,,,,,,,,,,,,,,,,,l,0,"[""0.223"",""0.548"",""0.148"",""0.903""]","[1,1,0,1]",0,2,2,2,1,0,0,,,0,FALSE,4.2287,,,,,,,,,,,,,,,,,,,,,,,,,,,,,,
,616f2006b4373ed092c75910,001,2022-04-29_03h00.07.794,classification_task,2021.2.3,Win32,60.0132029,616f2006b4373ed092c75910,626b377229c10585ec392f8a,626b3825e869e48ade68b1df,,,,,,,,,,,,,,,,,,,,,,,l,1,"[""0.031"",""0.188"",""0.590"",""0.739""]","[1,1,1,0]",0,3,3,3,1,1,1,,,0,FALSE,5.3204,,,,,,,,,,,,,,,,,,,,,,,,,,,,,,
,616f2006b4373ed092c75910,001,2022-04-29_03h00.07.794,classification_task,2021.2.3,Win32,60.0132029,616f2006b4373ed092c75910,626b377229c10585ec392f8a,626b3825e869e48ade68b1df,,,,,,,,,,,,,,,,,,,,,,,a,1,"[""0.321"",""0.503"",""0.937"",""0.730""]","[1,1,1,0]",0,4,4,4,1,0,1,,,0,FALSE,4.6796,,,,,,,,,,,,,,,,,,,,,,,,,,,,,,
,616f2006b4373ed092c75910,001,2022-04-29_03h00.07.794,classification_task,2021.2.3,Win32,60.0132029,616f2006b4373ed092c75910,626b377229c10585ec392f8a,626b3825e869e48ade68b1df,,,,,,,,,,,,,,,,,,,,,,,l,1,"[""0.095"",""0.402"",""0.730"",""0.811""]","[1,1,0,1]",0,5,5,5,1,1,0,,,0,FALSE,4.0363,,,,,,,,,,,,,,,,,,,,,,,,,,,,,,
,616f2006b4373ed092c75910,001,2022-04-29_03h00.07.794,classification_task,2021.2.3,Win32,60.0132029,616f2006b4373ed092c75910,626b377229c10585ec392f8a,626b3825e869e48ade68b1df,,,,,,,,,,,,,,,,,,,,,,,,0,"[""0.095"",""0.402"",""0.652"",""0.259""]","[1,1,1,0]",0,6,6,6,1,1,0,,,0,FALSE,,,,,,,,,,,,,,,,,,,,,,,,,,,,,,,
,616f2006b4373ed092c75910,001,2022-04-29_03h00.07.794,classification_task,2021.2.3,Win32,60.0132029,616f2006b4373ed092c75910,626b377229c10585ec392f8a,626b3825e869e48ade68b1df,,,,,,,,,,,,,,,,,,,,,,,a,0,"[""0.749"",""0.402"",""0.652"",""0.811""]","[0,1,1,1]",0,7,7,7,1,1,0,,,0,FALSE,6.4088,,,,,,,,,,,,,,,,,,,,,,,,,,,,,,
,616f2006b4373ed092c75910,001,2022-04-29_03h00.07.794,classification_task,2021.2.3,Win32,60.0132029,616f2006b4373ed092c75910,626b377229c10585ec392f8a,626b3825e869e48ade68b1df,,,,,,,,,,,,,,,,,,,,,,,a,1,"[""0.740"",""0.503"",""0.937"",""0.971""]","[0,1,1,1]",0,8,8,8,1,0,1,,,0,FALSE,5.9288,,,,,,,,,,,,,,,,,,,,,,,,,,,,,,
,616f2006b4373ed092c75910,001,2022-04-29_03h00.07.794,classification_task,2021.2.3,Win32,60.0132029,616f2006b4373ed092c75910,626b377229c10585ec392f8a,626b3825e869e48ade68b1df,,,,,,,,,,,,,,,,,,,,,,,l,1,"[""0.095"",""0.445"",""0.652"",""0.811""]","[1,0,1,1]",0,9,9,9,1,1,0,,,0,FALSE,4.2361,,,,,,,,,,,,,,,,,,,,,,,,,,,,,,
,616f2006b4373ed092c75910,001,2022-04-29_03h00.07.794,classification_task,2021.2.3,Win32,60.0132029,616f2006b4373ed092c75910,626b377229c10585ec392f8a,626b3825e869e48ade68b1df,,,,,,,,,,,,,,,,,,,,,,,a,1,"[""0.223"",""0.548"",""0.869"",""0.749""]","[1,1,1,0]",0,10,10,10,1,0,0,,,0,FALSE,5.7094,,,,,,,,,,,,,,,,,,,,,,,,,,,,,,
,616f2006b4373ed092c75910,001,2022-04-29_03h00.07.794,classification_task,2021.2.3,Win32,60.0132029,616f2006b4373ed092c75910,626b377229c10585ec392f8a,626b3825e869e48ade68b1df,,,,,,,,,,,,,,,,,,,,,,,a,1,"[""0.321"",""0.503"",""0.445"",""0.971""]","[1,1,0,1]",0,11,11,11,1,0,1,,,0,FALSE,5.0976,,,,,,,,,,,,,,,,,,,,,,,,,,,,,,
,616f2006b4373ed092c75910,001,2022-04-29_03h00.07.794,classification_task,2021.2.3,Win32,60.0132029,616f2006b4373ed092c75910,626b377229c10585ec392f8a,626b3825e869e48ade68b1df,,,,,,,,,,,,,,,,,,,,,,,l,0,"[""0.223"",""0.148"",""0.869"",""0.903""]","[1,0,1,1]",0,12,12,12,1,0,0,,,0,FALSE,4.1003,,,,,,,,,,,,,,,,,,,,,,,,,,,,,,
,616f2006b4373ed092c75910,001,2022-04-29_03h00.07.794,classification_task,2021.2.3,Win32,60.0132029,616f2006b4373ed092c75910,626b377229c10585ec392f8a,626b3825e869e48ade68b1df,,,,,,,,,,,,,,,,,,,,,,,l,1,"[""0.031"",""0.188"",""0.463"",""0.690""]","[1,1,0,1]",0,13,13,13,1,1,1,,,0,FALSE,3.0829,,,,,,,,,,,,,,,,,,,,,,,,,,,,,,
,616f2006b4373ed092c75910,001,2022-04-29_03h00.07.794,classification_task,2021.2.3,Win32,60.0132029,616f2006b4373ed092c75910,626b377229c10585ec392f8a,626b3825e869e48ade68b1df,,,,,,,,,,,,,,,,,,,,,,,l,1,"[""0.774"",""0.188"",""0.590"",""0.690""]","[0,1,1,1]",0,14,14,14,1,1,1,,,0,FALSE,6.3586,,,,,,,,,,,,,,,,,,,,,,,,,,,,,,
,616f2006b4373ed092c75910,001,2022-04-29_03h00.07.794,classification_task,2021.2.3,Win32,60.0132029,616f2006b4373ed092c75910,626b377229c10585ec392f8a,626b3825e869e48ade68b1df,,,,,,,,,,,,,,,,,,,,,,,l,1,"[""0.031"",""0.148"",""0.590"",""0.690""]","[1,0,1,1]",0,15,15,15,1,1,1,,,0,FALSE,4.8291,,,,,,,,,,,,,,,,,,,,,,,,,,,,,,
,616f2006b4373ed092c75910,001,2022-04-29_03h00.07.794,classification_task,2021.2.3,Win32,60.0132029,616f2006b4373ed092c75910,626b377229c10585ec392f8a,626b3825e869e48ade68b1df,,,,,,,,,,,,,,,,,,,,,,,a,1,"[""0.321"",""0.445"",""0.937"",""0.971""]","[1,0,1,1]",0,16,16,16,1,0,1,,,0,FALSE,4.0456,,,,,,,,,,,,,,,,,,,,,,,,,,,,,,
,616f2006b4373ed092c75910,001,2022-04-29_03h00.07.794,classification_task,2021.2.3,Win32,60.0132029,616f2006b4373ed092c75910,626b377229c10585ec392f8a,626b3825e869e48ade68b1df,,,,,,,,,,,,,,,,,,,,,,,a,1,"[""0.223"",""0.281"",""0.869"",""0.903""]","[1,0,1,1]",0,17,17,17,1,0,0,,,0,FALSE,4.1667,,,,,,,,,,,,,,,,,,,,,,,,,,,,,,
,616f2006b4373ed092c75910,001,2022-04-29_03h00.07.794,classification_task,2021.2.3,Win32,60.0132029,616f2006b4373ed092c75910,626b377229c10585ec392f8a,626b3825e869e48ade68b1df,,,,,,,,,,,,,,,,,,,,,,,l,1,"[""0.095"",""0.753"",""0.652"",""0.811""]","[1,0,1,1]",0,18,18,18,1,1,0,,,0,FALSE,2.8682,,,,,,,,,,,,,,,,,,,,,,,,,,,,,,
,616f2006b4373ed092c75910,001,2022-04-29_03h00.07.794,classification_task,2021.2.3,Win32,60.0132029,616f2006b4373ed092c75910,626b377229c10585ec392f8a,626b3825e869e48ade68b1df,,,,,,,,,,,,,,,,,,,,,,,l,1,"[""0.031"",""0.148"",""0.590"",""0.690""]","[1,0,1,1]",0,19,19,19,1,1,1,,,0,FALSE,3.3759,,,,,,,,,,,,,,,,,,,,,,,,,,,,,,
,616f2006b4373ed092c75910,001,2022-04-29_03h00.07.794,classification_task,2021.2.3,Win32,60.0132029,616f2006b4373ed092c75910,626b377229c10585ec392f8a,626b3825e869e48ade68b1df,,,,,,,,,,,,,,,,,,,,,,,l,1,"[""0.031"",""0.188"",""0.148"",""0.690""]","[1,1,0,1]",0,20,20,20,1,1,1,,,0,FALSE,4.9265,,,,,,,,,,,,,,,,,,,,,,,,,,,,,,
,616f2006b4373ed092c75910,001,2022-04-29_03h00.07.794,classification_task,2021.2.3,Win32,60.0132029,616f2006b4373ed092c75910,626b377229c10585ec392f8a,626b3825e869e48ade68b1df,,,,,,,,,,,,,,,,,,,,,,,a,1,"[""0.223"",""0.548"",""0.259"",""0.903""]","[1,1,0,1]",0,21,21,21,1,0,0,,,0,FALSE,5.7006,,,,,,,,,,,,,,,,,,,,,,,,,,,,,,
,616f2006b4373ed092c75910,001,2022-04-29_03h00.07.794,classification_task,2021.2.3,Win32,60.0132029,616f2006b4373ed092c75910,626b377229c10585ec392f8a,626b3825e869e48ade68b1df,,,,,,,,,,,,,,,,,,,,,,,a,1,"[""0.264"",""0.503"",""0.937"",""0.971""]","[0,1,1,1]",0,22,22,22,1,0,1,,,0,FALSE,3.3741,,,,,,,,,,,,,,,,,,,,,,,,,,,,,,
,616f2006b4373ed092c75910,001,2022-04-29_03h00.07.794,classification_task,2021.2.3,Win32,60.0132029,616f2006b4373ed092c75910,626b377229c10585ec392f8a,626b3825e869e48ade68b1df,,,,,,,,,,,,,,,,,,,,,,,a,1,"[""0.223"",""0.548"",""0.869"",""0.264""]","[1,1,1,0]",0,23,23,23,1,0,0,,,0,FALSE,5.1885,,,,,,,,,,,,,,,,,,,,,,,,,,,,,,
,616f2006b4373ed092c75910,001,2022-04-29_03h00.07.794,classification_task,2021.2.3,Win32,60.0132029,616f2006b4373ed092c75910,626b377229c10585ec392f8a,626b3825e869e48ade68b1df,,,,,,,,,,,,,,,,,,,,,,,a,1,"[""0.321"",""0.503"",""0.937"",""0.259""]","[1,1,1,0]",0,24,24,24,1,0,1,,,0,FALSE,4.4136,,,,,,,,,,,,,,,,,,,,,,,,,,,,,,
,616f2006b4373ed092c75910,001,2022-04-29_03h00.07.794,classification_task,2021.2.3,Win32,60.0132029,616f2006b4373ed092c75910,626b377229c10585ec392f8a,626b3825e869e48ade68b1df,,,,,,,,,,,,,,,,,,,,,,,l,1,"[""0.095"",""0.402"",""0.652"",""0.277""]","[1,1,1,0]",0,25,25,25,1,1,0,,,0,FALSE,2.6674,,,,,,,,,,,,,,,,,,,,,,,,,,,,,,
,616f2006b4373ed092c75910,001,2022-04-29_03h00.07.794,classification_task,2021.2.3,Win32,60.0132029,616f2006b4373ed092c75910,626b377229c10585ec392f8a,626b3825e869e48ade68b1df,,,,,,,,,,,,,,,,,,,,,,,a,1,"[""0.321"",""0.503"",""0.772"",""0.971""]","[1,1,0,1]",0,26,26,26,1,0,1,,,0,FALSE,4.5577,,,,,,,,,,,,,,,,,,,,,,,,,,,,,,
,616f2006b4373ed092c75910,001,2022-04-29_03h00.07.794,classification_task,2021.2.3,Win32,60.0132029,616f2006b4373ed092c75910,626b377229c10585ec392f8a,626b3825e869e48ade68b1df,,,,,,,,,,,,,,,,,,,,,,,l,1,"[""0.031"",""0.188"",""0.590"",""0.277""]","[1,1,1,0]",0,27,27,27,1,1,1,,,0,FALSE,3.5757,,,,,,,,,,,,,,,,,,,,,,,,,,,,,,
,616f2006b4373ed092c75910,001,2022-04-29_03h00.07.794,classification_task,2021.2.3,Win32,60.0132029,616f2006b4373ed092c75910,626b377229c10585ec392f8a,626b3825e869e48ade68b1df,,,,,,,,,,,,,,,,,,,,,,,l,1,"[""0.772"",""0.188"",""0.590"",""0.690""]","[0,1,1,1]",0,28,28,28,1,1,1,,,0,FALSE,4.2793,,,,,,,,,,,,,,,,,,,,,,,,,,,,,,
,616f2006b4373ed092c75910,001,2022-04-29_03h00.07.794,classification_task,2021.2.3,Win32,60.0132029,616f2006b4373ed092c75910,626b377229c10585ec392f8a,626b3825e869e48ade68b1df,,,,,,,,,,,,,,,,,,,,,,,l,1,"[""0.095"",""0.402"",""0.733"",""0.811""]","[1,1,0,1]",0,29,29,29,1,1,0,,,0,FALSE,3.0153,,,,,,,,,,,,,,,,,,,,,,,,,,,,,,
,616f2006b4373ed092c75910,001,2022-04-29_03h00.07.794,classification_task,2021.2.3,Win32,60.0132029,616f2006b4373ed092c75910,626b377229c10585ec392f8a,626b3825e869e48ade68b1df,,,,,,,,,,,,,,,,,,,,,,,a,1,"[""0.730"",""0.548"",""0.869"",""0.903""]","[0,1,1,1]",0,30,30,30,1,0,0,,,0,FALSE,3.9584,,,,,,,,,,,,,,,,,,,,,,,,,,,,,,
,616f2006b4373ed092c75910,001,2022-04-29_03h00.07.794,classification_task,2021.2.3,Win32,60.0132029,616f2006b4373ed092c75910,626b377229c10585ec392f8a,626b3825e869e48ade68b1df,,,,,,,,,,,,,,,,,,,,,,,a,0,"[""0.445"",""0.402"",""0.652"",""0.811""]","[0,1,1,1]",0,31,31,31,1,1,0,,,0,FALSE,4.8677,,,,,,,,,,,,,,,,,,,,,,,,,,,,,,
,616f2006b4373ed092c75910,001,2022-04-29_03h00.07.794,classification_task,2021.2.3,Win32,60.0132029,616f2006b4373ed092c75910,626b377229c10585ec392f8a,626b3825e869e48ade68b1df,,,,,,,,,,,,,,,,,,,,,,,l,0,"[""0.749"",""0.548"",""0.869"",""0.903""]","[0,1,1,1]",0,32,32,32,1,0,0,,,0,FALSE,4.1957,,,,,,,,,,,,,,,,,,,,,,,,,,,,,,
,616f2006b4373ed092c75910,001,2022-04-29_03h00.07.794,classification_task,2021.2.3,Win32,60.0132029,616f2006b4373ed092c75910,626b377229c10585ec392f8a,626b3825e869e48ade68b1df,,,,,,,,,,,,,,,,,,,,,,,a,1,"[""0.277"",""0.503"",""0.937"",""0.971""]","[0,1,1,1]",0,33,33,33,1,0,1,,,0,FALSE,3.2934,,,,,,,,,,,,,,,,,,,,,,,,,,,,,,
,616f2006b4373ed092c75910,001,2022-04-29_03h00.07.794,classification_task,2021.2.3,Win32,60.0132029,616f2006b4373ed092c75910,626b377229c10585ec392f8a,626b3825e869e48ade68b1df,,,,,,,,,,,,,,,,,,,,,,,a,0,"[""0.031"",""0.281"",""0.590"",""0.690""]","[1,0,1,1]",0,34,34,34,1,1,1,,,0,FALSE,3.269,,,,,,,,,,,,,,,,,,,,,,,,,,,,,,
,616f2006b4373ed092c75910,001,2022-04-29_03h00.07.794,classification_task,2021.2.3,Win32,60.0132029,616f2006b4373ed092c75910,626b377229c10585ec392f8a,626b3825e869e48ade68b1df,,,,,,,,,,,,,,,,,,,,,,,l,1,"[""0.031"",""0.188"",""0.590"",""0.774""]","[1,1,1,0]",0,35,35,35,1,1,1,,,0,FALSE,2.1978,,,,,,,,,,,,,,,,,,,,,,,,,,,,,,
,616f2006b4373ed092c75910,001,2022-04-29_03h00.07.794,classification_task,2021.2.3,Win32,60.0132029,616f2006b4373ed092c75910,626b377229c10585ec392f8a,626b3825e869e48ade68b1df,,,,,,,,,,,,,,,,,,,,,,,l,1,"[""0.031"",""0.188"",""0.277"",""0.690""]","[1,1,0,1]",0,36,36,36,1,1,1,,,0,FALSE,1.4695,,,,,,,,,,,,,,,,,,,,,,,,,,,,,,
,616f2006b4373ed092c75910,001,2022-04-29_03h00.07.794,classification_task,2021.2.3,Win32,60.0132029,616f2006b4373ed092c75910,626b377229c10585ec392f8a,626b3825e869e48ade68b1df,,,,,,,,,,,,,,,,,,,,,,,l,0,"[""0.223"",""0.548"",""0.869"",""0.281""]","[1,1,1,0]",0,37,37,37,1,0,0,,,0,FALSE,1.7739,,,,,,,,,,,,,,,,,,,,,,,,,,,,,,
,616f2006b4373ed092c75910,001,2022-04-29_03h00.07.794,classification_task,2021.2.3,Win32,60.0132029,616f2006b4373ed092c75910,626b377229c10585ec392f8a,626b3825e869e48ade68b1df,,,,,,,,,,,,,,,,,,,,,,,a,1,"[""0.223"",""0.548"",""0.749"",""0.903""]","[1,1,0,1]",0,38,38,38,1,0,0,,,0,FALSE,1.3014,,,,,,,,,,,,,,,,,,,,,,,,,,,,,,
,616f2006b4373ed092c75910,001,2022-04-29_03h00.07.794,classification_task,2021.2.3,Win32,60.0132029,616f2006b4373ed092c75910,626b377229c10585ec392f8a,626b3825e869e48ade68b1df,,,,,,,,,,,,,,,,,,,,,,,a,0,"[""0.095"",""0.402"",""0.740"",""0.811""]","[1,1,0,1]",0,39,39,39,1,1,0,,,0,FALSE,1.4027,,,,,,,,,,,,,,,,,,,,,,,,,,,,,,
,616f2006b4373ed092c75910,001,2022-04-29_03h00.07.794,classification_task,2021.2.3,Win32,60.0132029,616f2006b4373ed092c75910,626b377229c10585ec392f8a,626b3825e869e48ade68b1df,,,,,,,,,,,,,,,,,,,,,,,a,1,"[""0.321"",""0.264"",""0.937"",""0.971""]","[1,0,1,1]",0,40,40,40,1,0,1,,,0,FALSE,2.6911,,,,,,,,,,,,,,,,,,,,,,,,,,,,,,
,616f2006b4373ed092c75910,001,2022-04-29_03h00.07.794,classification_task,2021.2.3,Win32,60.0132029,616f2006b4373ed092c75910,626b377229c10585ec392f8a,626b3825e869e48ade68b1df,,,,,,,,,,,,,,,,,,,,,,,a,1,"[""0.223"",""0.264"",""0.869"",""0.903""]","[1,0,1,1]",0,41,41,41,1,0,0,,,0,FALSE,1.7807,,,,,,,,,,,,,,,,,,,,,,,,,,,,,,
,616f2006b4373ed092c75910,001,2022-04-29_03h00.07.794,classification_task,2021.2.3,Win32,60.0132029,616f2006b4373ed092c75910,626b377229c10585ec392f8a,626b3825e869e48ade68b1df,,,,,,,,,,,,,,,,,,,,,,,a,0,"[""0.749"",""0.188"",""0.590"",""0.690""]","[0,1,1,1]",0,42,42,42,1,1,1,,,0,FALSE,2.6268,,,,,,,,,,,,,,,,,,,,,,,,,,,,,,
,616f2006b4373ed092c75910,001,2022-04-29_03h00.07.794,classification_task,2021.2.3,Win32,60.0132029,616f2006b4373ed092c75910,626b377229c10585ec392f8a,626b3825e869e48ade68b1df,,,,,,,,,,,,,,,,,,,,,,,l,1,"[""0.095"",""0.402"",""0.652"",""0.148""]","[1,1,1,0]",0,43,43,43,1,1,0,,,0,FALSE,2.6476,,,,,,,,,,,,,,,,,,,,,,,,,,,,,,
,616f2006b4373ed092c75910,001,2022-04-29_03h00.07.794,classification_task,2021.2.3,Win32,60.0132029,616f2006b4373ed092c75910,626b377229c10585ec392f8a,626b3825e869e48ade68b1df,,,,,,,,,,,,,,,,,,,,,,,a,1,"[""0.321"",""0.503"",""0.937"",""0.749""]","[1,1,1,0]",0,44,44,44,1,0,1,,,0,FALSE,1.4426,,,,,,,,,,,,,,,,,,,,,,,,,,,,,,
,616f2006b4373ed092c75910,001,2022-04-29_03h00.07.794,classification_task,2021.2.3,Win32,60.0132029,616f2006b4373ed092c75910,626b377229c10585ec392f8a,626b3825e869e48ade68b1df,,,,,,,,,,,,,,,,,,,,,,,a,1,"[""0.321"",""0.503"",""0.277"",""0.971""]","[1,1,0,1]",0,45,45,45,1,0,1,,,0,FALSE,2.4771,,,,,,,,,,,,,,,,,,,,,,,,,,,,,,
,616f2006b4373ed092c75910,001,2022-04-29_03h00.07.794,classification_task,2021.2.3,Win32,60.0132029,616f2006b4373ed092c75910,626b377229c10585ec392f8a,626b3825e869e48ade68b1df,,,,,,,,,,,,,,,,,,,,,,,a,0,"[""0.275"",""0.402"",""0.652"",""0.811""]","[0,1,1,1]",0,46,46,46,1,1,0,,,0,FALSE,1.9503,,,,,,,,,,,,,,,,,,,,,,,,,,,,,,
,616f2006b4373ed092c75910,001,2022-04-29_03h00.07.794,classification_task,2021.2.3,Win32,60.0132029,616f2006b4373ed092c75910,626b377229c10585ec392f8a,626b3825e869e48ade68b1df,,,,,,,,,,,,,,,,,,,,,,,l,1,"[""0.095"",""0.277"",""0.652"",""0.811""]","[1,0,1,1]",0,47,47,47,1,1,0,,,0,FALSE,1.0639,,,,,,,,,,,,,,,,,,,,,,,,,,,,,,
,616f2006b4373ed092c75910,001,2022-04-29_03h00.07.794,classification_task,2021.2.3,Win32,60.0132029,616f2006b4373ed092c75910,626b377229c10585ec392f8a,626b3825e869e48ade68b1df,,,,,,,,,,,,,,,,,,,,,,,l,1,"[""0.031"",""0.188"",""0.590"",""0.281""]","[1,1,1,0]",0,48,48,48,1,1,1,,,0,FALSE,1.6942,,,,,,,,,,,,,,,,,,,,,,,,,,,,,,
,616f2006b4373ed092c75910,001,2022-04-29_03h00.07.794,classification_task,2021.2.3,Win32,60.0132029,616f2006b4373ed092c75910,626b377229c10585ec392f8a,626b3825e869e48ade68b1df,,,,,,,,,,,,,,,,,,,,,,,a,1,"[""0.321"",""0.148"",""0.937"",""0.971""]","[1,0,1,1]",0,49,49,49,1,0,1,,,0,FALSE,2.9179,,,,,,,,,,,,,,,,,,,,,,,,,,,,,,
,616f2006b4373ed092c75910,001,2022-04-29_03h00.07.794,classification_task,2021.2.3,Win32,60.0132029,616f2006b4373ed092c75910,626b377229c10585ec392f8a,626b3825e869e48ade68b1df,,,,,,,,,,,,,,,,,,,,,,,a,1,"[""0.223"",""0.264"",""0.869"",""0.903""]","[1,0,1,1]",0,50,50,50,1,0,0,,,0,FALSE,1.4008,,,,,,,,,,,,,,,,,,,,,,,,,,,,,,
,616f2006b4373ed092c75910,001,2022-04-29_03h00.07.794,classification_task,2021.2.3,Win32,60.0132029,616f2006b4373ed092c75910,626b377229c10585ec392f8a,626b3825e869e48ade68b1df,,,,,,,,,,,,,,,,,,,,,,,a,1,"[""0.223"",""0.548"",""0.749"",""0.903""]","[1,1,0,1]",0,51,51,51,1,0,0,,,0,FALSE,0.9807,,,,,,,,,,,,,,,,,,,,,,,,,,,,,,
,616f2006b4373ed092c75910,001,2022-04-29_03h00.07.794,classification_task,2021.2.3,Win32,60.0132029,616f2006b4373ed092c75910,626b377229c10585ec392f8a,626b3825e869e48ade68b1df,,,,,,,,,,,,,,,,,,,,,,,a,1,"[""0.321"",""0.503"",""0.445"",""0.971""]","[1,1,0,1]",0,52,52,52,1,0,1,,,0,FALSE,2.0583,,,,,,,,,,,,,,,,,,,,,,,,,,,,,,
,616f2006b4373ed092c75910,001,2022-04-29_03h00.07.794,classification_task,2021.2.3,Win32,60.0132029,616f2006b4373ed092c75910,626b377229c10585ec392f8a,626b3825e869e48ade68b1df,,,,,,,,,,,,,,,,,,,,,,,a,1,"[""0.321"",""0.503"",""0.937"",""0.739""]","[1,1,1,0]",0,53,53,53,1,0,1,,,0,FALSE,1.2598,,,,,,,,,,,,,,,,,,,,,,,,,,,,,,
,616f2006b4373ed092c75910,001,2022-04-29_03h00.07.794,classification_task,2021.2.3,Win32,60.0132029,616f2006b4373ed092c75910,626b377229c10585ec392f8a,626b3825e869e48ade68b1df,,,,,,,,,,,,,,,,,,,,,,,l,1,"[""0.264"",""0.188"",""0.590"",""0.690""]","[0,1,1,1]",0,54,54,54,1,1,1,,,0,FALSE,1.0569,,,,,,,,,,,,,,,,,,,,,,,,,,,,,,
,616f2006b4373ed092c75910,001,2022-04-29_03h00.07.794,classification_task,2021.2.3,Win32,60.0132029,616f2006b4373ed092c75910,626b377229c10585ec392f8a,626b3825e869e48ade68b1df,,,,,,,,,,,,,,,,,,,,,,,l,1,"[""0.031"",""0.749"",""0.590"",""0.690""]","[1,0,1,1]",0,55,55,55,1,1,1,,,0,FALSE,0.8111,,,,,,,,,,,,,,,,,,,,,,,,,,,,,,
,616f2006b4373ed092c75910,001,2022-04-29_03h00.07.794,classification_task,2021.2.3,Win32,60.0132029,616f2006b4373ed092c75910,626b377229c10585ec392f8a,626b3825e869e48ade68b1df,,,,,,,,,,,,,,,,,,,,,,,l,1,"[""0.031"",""0.188"",""0.463"",""0.690""]","[1,1,0,1]",0,56,56,56,1,1,1,,,0,FALSE,0.7902,,,,,,,,,,,,,,,,,,,,,,,,,,,,,,
,616f2006b4373ed092c75910,001,2022-04-29_03h00.07.794,classification_task,2021.2.3,Win32,60.0132029,616f2006b4373ed092c75910,626b377229c10585ec392f8a,626b3825e869e48ade68b1df,,,,,,,,,,,,,,,,,,,,,,,a,1,"[""0.749"",""0.503"",""0.937"",""0.971""]","[0,1,1,1]",0,57,57,57,1,0,1,,,0,FALSE,0.8027,,,,,,,,,,,,,,,,,,,,,,,,,,,,,,
,616f2006b4373ed092c75910,001,2022-04-29_03h00.07.794,classification_task,2021.2.3,Win32,60.0132029,616f2006b4373ed092c75910,626b377229c10585ec392f8a,626b3825e869e48ade68b1df,,,,,,,,,,,,,,,,,,,,,,,l,0,"[""0.223"",""0.548"",""0.869"",""0.148""]","[1,1,1,0]",0,58,58,58,1,0,0,,,0,FALSE,6.4941,,,,,,,,,,,,,,,,,,,,,,,,,,,,,,
,616f2006b4373ed092c75910,001,2022-04-29_03h00.07.794,classification_task,2021.2.3,Win32,60.0132029,616f2006b4373ed092c75910,626b377229c10585ec392f8a,626b3825e869e48ade68b1df,,,,,,,,,,,,,,,,,,,,,,,a,1,"[""0.772"",""0.548"",""0.869"",""0.903""]","[0,1,1,1]",0,59,59,59,1,0,0,,,0,FALSE,1.0641,,,,,,,,,,,,,,,,,,,,,,,,,,,,,,
,616f2006b4373ed092c75910,001,2022-04-29_03h00.07.794,classification_task,2021.2.3,Win32,60.0132029,616f2006b4373ed092c75910,626b377229c10585ec392f8a,626b3825e869e48ade68b1df,,,,,,,,,,,,,,,,,,,,,,,l,1,"[""0.095"",""0.733"",""0.652"",""0.811""]","[1,0,1,1]",0,60,60,60,1,1,0,,,0,FALSE,1.3549,,,,,,,,,,,,,,,,,,,,,,,,,,,,,,
,616f2006b4373ed092c75910,001,2022-04-29_03h00.07.794,classification_task,2021.2.3,Win32,60.0132029,616f2006b4373ed092c75910,626b377229c10585ec392f8a,626b3825e869e48ade68b1df,,,,,,,,,,,,,,,,,,,,,,,l,1,"[""0.095"",""0.402"",""0.652"",""0.277""]","[1,1,1,0]",0,61,61,61,1,1,0,,,0,FALSE,1.1403,,,,,,,,,,,,,,,,,,,,,,,,,,,,,,
,616f2006b4373ed092c75910,001,2022-04-29_03h00.07.794,classification_task,2021.2.3,Win32,60.0132029,616f2006b4373ed092c75910,626b377229c10585ec392f8a,626b3825e869e48ade68b1df,,,,,,,,,,,,,,,,,,,,,,,l,1,"[""0.095"",""0.402"",""0.264"",""0.811""]","[1,1,0,1]",0,62,62,62,1,1,0,,,0,FALSE,3.3318,,,,,,,,,,,,,,,,,,,,,,,,,,,,,,
,616f2006b4373ed092c75910,001,2022-04-29_03h00.07.794,classification_task,2021.2.3,Win32,60.0132029,616f2006b4373ed092c75910,626b377229c10585ec392f8a,626b3825e869e48ade68b1df,,,,,,,,,,,,,,,,,,,,,,,a,0,"[""0.277"",""0.402"",""0.652"",""0.811""]","[0,1,1,1]",0,63,63,63,1,1,0,,,0,FALSE,1.0825,,,,,,,,,,,,,,,,,,,,,,,,,,,,,,
,616f2006b4373ed092c75910,001,2022-04-29_03h00.07.794,classification_task,2021.2.3,Win32,60.0132029,616f2006b4373ed092c75910,626b377229c10585ec392f8a,626b3825e869e48ade68b1df,,,,,,,,,,,,,,,,,,,,,,,,,,,,,,,,,,,,,,,0, ,,0,10,473.4264,0,0,0,0,1,2,1,,,,,,,,,,,,,,,,,
,616f2006b4373ed092c75910,001,2022-04-29_03h00.07.794,classification_task,2021.2.3,Win32,60.0132029,616f2006b4373ed092c75910,626b377229c10585ec392f8a,626b3825e869e48ade68b1df,,,,,,,,,,,,,,,,,,,,,,,,,,,,,,,,,,,,,,,1,  ,,0,7.893518519,480.555,0,0,0,0,1,2,1,,,,,,,,,,,,,,,,,
,616f2006b4373ed092c75910,001,2022-04-29_03h00.07.794,classification_task,2021.2.3,Win32,60.0132029,616f2006b4373ed092c75910,626b377229c10585ec392f8a,626b3825e869e48ade68b1df,,,,,,,,,,,,,,,,,,,,,,,,,,,,,,,,,,,,,,,2,  ,,0,6.41231261,488.0106,0,0,0,0,1,2,1,,,,,,,,,,,,,,,,,
,616f2006b4373ed092c75910,001,2022-04-29_03h00.07.794,classification_task,2021.2.3,Win32,60.0132029,616f2006b4373ed092c75910,626b377229c10585ec392f8a,626b3825e869e48ade68b1df,,,,,,,,,,,,,,,,,,,,,,,,,,,,,,,,,,,,,,,,,,,,,0,0,0,0,1,,1,,,,,,,,,,,,,,,,,
,616f2006b4373ed092c75910,001,2022-04-29_03h00.07.794,classification_task,2021.2.3,Win32,60.0132029,616f2006b4373ed092c75910,626b377229c10585ec392f8a,626b3825e869e48ade68b1df,,,,,,,,,,,,,,,,,,,,,space,10.7857,a,1,"[""0.259"",""0.548"",""0.869"",""0.903""]","[0,1,1,1]",0,0,0,0,1,0,0,,,0,FALSE,3.1318,,,,,,,,,,,,,,,,,,,,,,,,,,,,,,
,616f2006b4373ed092c75910,001,2022-04-29_03h00.07.794,classification_task,2021.2.3,Win32,60.0132029,616f2006b4373ed092c75910,626b377229c10585ec392f8a,626b3825e869e48ade68b1df,,,,,,,,,,,,,,,,,,,,,,,l,1,"[""0.095"",""0.772"",""0.652"",""0.811""]","[1,0,1,1]",0,1,1,1,1,1,0,,,0,FALSE,1.8819,,,,,,,,,,,,,,,,,,,,,,,,,,,,,,
,616f2006b4373ed092c75910,001,2022-04-29_03h00.07.794,classification_task,2021.2.3,Win32,60.0132029,616f2006b4373ed092c75910,626b377229c10585ec392f8a,626b3825e869e48ade68b1df,,,,,,,,,,,,,,,,,,,,,,,a,1,"[""0.223"",""0.548"",""0.277"",""0.903""]","[1,1,0,1]",0,2,2,2,1,0,0,,,0,FALSE,1.0614,,,,,,,,,,,,,,,,,,,,,,,,,,,,,,
,616f2006b4373ed092c75910,001,2022-04-29_03h00.07.794,classification_task,2021.2.3,Win32,60.0132029,616f2006b4373ed092c75910,626b377229c10585ec392f8a,626b3825e869e48ade68b1df,,,,,,,,,,,,,,,,,,,,,,,a,1,"[""0.223"",""0.548"",""0.869"",""0.281""]","[1,1,1,0]",0,3,3,3,1,0,0,,,0,FALSE,1.0744,,,,,,,,,,,,,,,,,,,,,,,,,,,,,,
,616f2006b4373ed092c75910,001,2022-04-29_03h00.07.794,classification_task,2021.2.3,Win32,60.0132029,616f2006b4373ed092c75910,626b377229c10585ec392f8a,626b3825e869e48ade68b1df,,,,,,,,,,,,,,,,,,,,,,,l,1,"[""0.095"",""0.402"",""0.652"",""0.148""]","[1,1,1,0]",0,4,4,4,1,1,0,,,0,FALSE,0.7192,,,,,,,,,,,,,,,,,,,,,,,,,,,,,,
,616f2006b4373ed092c75910,001,2022-04-29_03h00.07.794,classification_task,2021.2.3,Win32,60.0132029,616f2006b4373ed092c75910,626b377229c10585ec392f8a,626b3825e869e48ade68b1df,,,,,,,,,,,,,,,,,,,,,,,a,0,"[""0.031"",""0.753"",""0.590"",""0.690""]","[1,0,1,1]",0,5,5,5,1,1,1,,,0,FALSE,4.0033,,,,,,,,,,,,,,,,,,,,,,,,,,,,,,
,616f2006b4373ed092c75910,001,2022-04-29_03h00.07.794,classification_task,2021.2.3,Win32,60.0132029,616f2006b4373ed092c75910,626b377229c10585ec392f8a,626b3825e869e48ade68b1df,,,,,,,,,,,,,,,,,,,,,,,a,1,"[""0.321"",""0.503"",""0.937"",""0.774""]","[1,1,1,0]",0,6,6,6,1,0,1,,,0,FALSE,1.5822,,,,,,,,,,,,,,,,,,,,,,,,,,,,,,
,616f2006b4373ed092c75910,001,2022-04-29_03h00.07.794,classification_task,2021.2.3,Win32,60.0132029,616f2006b4373ed092c75910,626b377229c10585ec392f8a,626b3825e869e48ade68b1df,,,,,,,,,,,,,,,,,,,,,,,a,1,"[""0.321"",""0.739"",""0.937"",""0.971""]","[1,0,1,1]",0,7,7,7,1,0,1,,,0,FALSE,0.824,,,,,,,,,,,,,,,,,,,,,,,,,,,,,,
,616f2006b4373ed092c75910,001,2022-04-29_03h00.07.794,classification_task,2021.2.3,Win32,60.0132029,616f2006b4373ed092c75910,626b377229c10585ec392f8a,626b3825e869e48ade68b1df,,,,,,,,,,,,,,,,,,,,,,,l,1,"[""0.031"",""0.188"",""0.590"",""0.753""]","[1,1,1,0]",0,8,8,8,1,1,1,,,0,FALSE,0.9866,,,,,,,,,,,,,,,,,,,,,,,,,,,,,,
,616f2006b4373ed092c75910,001,2022-04-29_03h00.07.794,classification_task,2021.2.3,Win32,60.0132029,616f2006b4373ed092c75910,626b377229c10585ec392f8a,626b3825e869e48ade68b1df,,,,,,,,,,,,,,,,,,,,,,,l,1,"[""0.277"",""0.188"",""0.590"",""0.690""]","[0,1,1,1]",0,9,9,9,1,1,1,,,0,FALSE,0.8518,,,,,,,,,,,,,,,,,,,,,,,,,,,,,,
,616f2006b4373ed092c75910,001,2022-04-29_03h00.07.794,classification_task,2021.2.3,Win32,60.0132029,616f2006b4373ed092c75910,626b377229c10585ec392f8a,626b3825e869e48ade68b1df,,,,,,,,,,,,,,,,,,,,,,,a,1,"[""0.445"",""0.503"",""0.937"",""0.971""]","[0,1,1,1]",0,10,10,10,1,0,1,,,0,FALSE,0.771,,,,,,,,,,,,,,,,,,,,,,,,,,,,,,
,616f2006b4373ed092c75910,001,2022-04-29_03h00.07.794,classification_task,2021.2.3,Win32,60.0132029,616f2006b4373ed092c75910,626b377229c10585ec392f8a,626b3825e869e48ade68b1df,,,,,,,,,,,,,,,,,,,,,,,a,1,"[""0.223"",""0.264"",""0.869"",""0.903""]","[1,0,1,1]",0,11,11,11,1,0,0,,,0,FALSE,1.2441,,,,,,,,,,,,,,,,,,,,,,,,,,,,,,
,616f2006b4373ed092c75910,001,2022-04-29_03h00.07.794,classification_task,2021.2.3,Win32,60.0132029,616f2006b4373ed092c75910,626b377229c10585ec392f8a,626b3825e869e48ade68b1df,,,,,,,,,,,,,,,,,,,,,,,a,1,"[""0.321"",""0.503"",""0.749"",""0.971""]","[1,1,0,1]",0,12,12,12,1,0,1,,,0,FALSE,0.8551,,,,,,,,,,,,,,,,,,,,,,,,,,,,,,
,616f2006b4373ed092c75910,001,2022-04-29_03h00.07.794,classification_task,2021.2.3,Win32,60.0132029,616f2006b4373ed092c75910,626b377229c10585ec392f8a,626b3825e869e48ade68b1df,,,,,,,,,,,,,,,,,,,,,,,l,1,"[""0.031"",""0.188"",""0.275"",""0.690""]","[1,1,0,1]",0,13,13,13,1,1,1,,,0,FALSE,0.8256,,,,,,,,,,,,,,,,,,,,,,,,,,,,,,
,616f2006b4373ed092c75910,001,2022-04-29_03h00.07.794,classification_task,2021.2.3,Win32,60.0132029,616f2006b4373ed092c75910,626b377229c10585ec392f8a,626b3825e869e48ade68b1df,,,,,,,,,,,,,,,,,,,,,,,l,1,"[""0.095"",""0.402"",""0.753"",""0.811""]","[1,1,0,1]",0,14,14,14,1,1,0,,,0,FALSE,1.436,,,,,,,,,,,,,,,,,,,,,,,,,,,,,,
,616f2006b4373ed092c75910,001,2022-04-29_03h00.07.794,classification_task,2021.2.3,Win32,60.0132029,616f2006b4373ed092c75910,626b377229c10585ec392f8a,626b3825e869e48ade68b1df,,,,,,,,,,,,,,,,,,,,,,,a,0,"[""0.749"",""0.402"",""0.652"",""0.811""]","[0,1,1,1]",0,15,15,15,1,1,0,,,0,FALSE,0.8804,,,,,,,,,,,,,,,,,,,,,,,,,,,,,,
,616f2006b4373ed092c75910,001,2022-04-29_03h00.07.794,classification_task,2021.2.3,Win32,60.0132029,616f2006b4373ed092c75910,626b377229c10585ec392f8a,626b3825e869e48ade68b1df,,,,,,,,,,,,,,,,,,,,,,,a,1,"[""0.223"",""0.548"",""0.463"",""0.903""]","[1,1,0,1]",0,16,16,16,1,0,0,,,0,FALSE,3.093,,,,,,,,,,,,,,,,,,,,,,,,,,,,,,
,616f2006b4373ed092c75910,001,2022-04-29_03h00.07.794,classification_task,2021.2.3,Win32,60.0132029,616f2006b4373ed092c75910,626b377229c10585ec392f8a,626b3825e869e48ade68b1df,,,,,,,,,,,,,,,,,,,,,,,l,1,"[""0.031"",""0.188"",""0.772"",""0.690""]","[1,1,0,1]",0,17,17,17,1,1,1,,,0,FALSE,2.2025,,,,,,,,,,,,,,,,,,,,,,,,,,,,,,
,616f2006b4373ed092c75910,001,2022-04-29_03h00.07.794,classification_task,2021.2.3,Win32,60.0132029,616f2006b4373ed092c75910,626b377229c10585ec392f8a,626b3825e869e48ade68b1df,,,,,,,,,,,,,,,,,,,,,,,a,1,"[""0.321"",""0.503"",""0.281"",""0.971""]","[1,1,0,1]",0,18,18,18,1,0,1,,,0,FALSE,2.2624,,,,,,,,,,,,,,,,,,,,,,,,,,,,,,
,616f2006b4373ed092c75910,001,2022-04-29_03h00.07.794,classification_task,2021.2.3,Win32,60.0132029,616f2006b4373ed092c75910,626b377229c10585ec392f8a,626b3825e869e48ade68b1df,,,,,,,,,,,,,,,,,,,,,,,a,1,"[""0.223"",""0.548"",""0.869"",""0.753""]","[1,1,1,0]",0,19,19,19,1,0,0,,,0,FALSE,2.0347,,,,,,,,,,,,,,,,,,,,,,,,,,,,,,
,616f2006b4373ed092c75910,001,2022-04-29_03h00.07.794,classification_task,2021.2.3,Win32,60.0132029,616f2006b4373ed092c75910,626b377229c10585ec392f8a,626b3825e869e48ade68b1df,,,,,,,,,,,,,,,,,,,,,,,l,1,"[""0.031"",""0.148"",""0.590"",""0.690""]","[1,0,1,1]",0,20,20,20,1,1,1,,,0,FALSE,1.2377,,,,,,,,,,,,,,,,,,,,,,,,,,,,,,
,616f2006b4373ed092c75910,001,2022-04-29_03h00.07.794,classification_task,2021.2.3,Win32,60.0132029,616f2006b4373ed092c75910,626b377229c10585ec392f8a,626b3825e869e48ade68b1df,,,,,,,,,,,,,,,,,,,,,,,a,1,"[""0.739"",""0.503"",""0.937"",""0.971""]","[0,1,1,1]",0,21,21,21,1,0,1,,,0,FALSE,1.3534,,,,,,,,,,,,,,,,,,,,,,,,,,,,,,
,616f2006b4373ed092c75910,001,2022-04-29_03h00.07.794,classification_task,2021.2.3,Win32,60.0132029,616f2006b4373ed092c75910,626b377229c10585ec392f8a,626b3825e869e48ade68b1df,,,,,,,,,,,,,,,,,,,,,,,l,1,"[""0.095"",""0.402"",""0.753"",""0.811""]","[1,1,0,1]",0,22,22,22,1,1,0,,,0,FALSE,1.1011,,,,,,,,,,,,,,,,,,,,,,,,,,,,,,
,616f2006b4373ed092c75910,001,2022-04-29_03h00.07.794,classification_task,2021.2.3,Win32,60.0132029,616f2006b4373ed092c75910,626b377229c10585ec392f8a,626b3825e869e48ade68b1df,,,,,,,,,,,,,,,,,,,,,,,a,1,"[""0.321"",""0.277"",""0.937"",""0.971""]","[1,0,1,1]",0,23,23,23,1,0,1,,,0,FALSE,0.843,,,,,,,,,,,,,,,,,,,,,,,,,,,,,,
,616f2006b4373ed092c75910,001,2022-04-29_03h00.07.794,classification_task,2021.2.3,Win32,60.0132029,616f2006b4373ed092c75910,626b377229c10585ec392f8a,626b3825e869e48ade68b1df,,,,,,,,,,,,,,,,,,,,,,,l,1,"[""0.733"",""0.188"",""0.590"",""0.690""]","[0,1,1,1]",0,24,24,24,1,1,1,,,0,FALSE,1.235,,,,,,,,,,,,,,,,,,,,,,,,,,,,,,
,616f2006b4373ed092c75910,001,2022-04-29_03h00.07.794,classification_task,2021.2.3,Win32,60.0132029,616f2006b4373ed092c75910,626b377229c10585ec392f8a,626b3825e869e48ade68b1df,,,,,,,,,,,,,,,,,,,,,,,l,1,"[""0.095"",""0.463"",""0.652"",""0.811""]","[1,0,1,1]",0,25,25,25,1,1,0,,,0,FALSE,1.6019,,,,,,,,,,,,,,,,,,,,,,,,,,,,,,
,616f2006b4373ed092c75910,001,2022-04-29_03h00.07.794,classification_task,2021.2.3,Win32,60.0132029,616f2006b4373ed092c75910,626b377229c10585ec392f8a,626b3825e869e48ade68b1df,,,,,,,,,,,,,,,,,,,,,,,a,1,"[""0.321"",""0.503"",""0.937"",""0.264""]","[1,1,1,0]",0,26,26,26,1,0,1,,,0,FALSE,0.8158,,,,,,,,,,,,,,,,,,,,,,,,,,,,,,
,616f2006b4373ed092c75910,001,2022-04-29_03h00.07.794,classification_task,2021.2.3,Win32,60.0132029,616f2006b4373ed092c75910,626b377229c10585ec392f8a,626b3825e869e48ade68b1df,,,,,,,,,,,,,,,,,,,,,,,l,1,"[""0.031"",""0.188"",""0.590"",""0.753""]","[1,1,1,0]",0,27,27,27,1,1,1,,,0,FALSE,0.9067,,,,,,,,,,,,,,,,,,,,,,,,,,,,,,
,616f2006b4373ed092c75910,001,2022-04-29_03h00.07.794,classification_task,2021.2.3,Win32,60.0132029,616f2006b4373ed092c75910,626b377229c10585ec392f8a,626b3825e869e48ade68b1df,,,,,,,,,,,,,,,,,,,,,,,a,1,"[""0.223"",""0.730"",""0.869"",""0.903""]","[1,0,1,1]",0,28,28,28,1,0,0,,,0,FALSE,1.2121,,,,,,,,,,,,,,,,,,,,,,,,,,,,,,
,616f2006b4373ed092c75910,001,2022-04-29_03h00.07.794,classification_task,2021.2.3,Win32,60.0132029,616f2006b4373ed092c75910,626b377229c10585ec392f8a,626b3825e869e48ade68b1df,,,,,,,,,,,,,,,,,,,,,,,a,1,"[""0.463"",""0.548"",""0.869"",""0.903""]","[0,1,1,1]",0,29,29,29,1,0,0,,,0,FALSE,0.8685,,,,,,,,,,,,,,,,,,,,,,,,,,,,,,
,616f2006b4373ed092c75910,001,2022-04-29_03h00.07.794,classification_task,2021.2.3,Win32,60.0132029,616f2006b4373ed092c75910,626b377229c10585ec392f8a,626b3825e869e48ade68b1df,,,,,,,,,,,,,,,,,,,,,,,a,0,"[""0.445"",""0.402"",""0.652"",""0.811""]","[0,1,1,1]",0,30,30,30,1,1,0,,,0,FALSE,1.0122,,,,,,,,,,,,,,,,,,,,,,,,,,,,,,
,616f2006b4373ed092c75910,001,2022-04-29_03h00.07.794,classification_task,2021.2.3,Win32,60.0132029,616f2006b4373ed092c75910,626b377229c10585ec392f8a,626b3825e869e48ade68b1df,,,,,,,,,,,,,,,,,,,,,,,l,1,"[""0.095"",""0.402"",""0.652"",""0.753""]","[1,1,1,0]",0,31,31,31,1,1,0,,,0,FALSE,0.8121,,,,,,,,,,,,,,,,,,,,,,,,,,,,,,
,616f2006b4373ed092c75910,001,2022-04-29_03h00.07.794,classification_task,2021.2.3,Win32,60.0132029,616f2006b4373ed092c75910,626b377229c10585ec392f8a,626b3825e869e48ade68b1df,,,,,,,,,,,,,,,,,,,,,,,a,1,"[""0.148"",""0.503"",""0.937"",""0.971""]","[0,1,1,1]",0,32,32,32,1,0,1,,,0,FALSE,1.7433,,,,,,,,,,,,,,,,,,,,,,,,,,,,,,
,616f2006b4373ed092c75910,001,2022-04-29_03h00.07.794,classification_task,2021.2.3,Win32,60.0132029,616f2006b4373ed092c75910,626b377229c10585ec392f8a,626b3825e869e48ade68b1df,,,,,,,,,,,,,,,,,,,,,,,a,1,"[""0.321"",""0.503"",""0.937"",""0.753""]","[1,1,1,0]",0,33,33,33,1,0,1,,,0,FALSE,2.1615,,,,,,,,,,,,,,,,,,,,,,,,,,,,,,
,616f2006b4373ed092c75910,001,2022-04-29_03h00.07.794,classification_task,2021.2.3,Win32,60.0132029,616f2006b4373ed092c75910,626b377229c10585ec392f8a,626b3825e869e48ade68b1df,,,,,,,,,,,,,,,,,,,,,,,l,1,"[""0.031"",""0.188"",""0.590"",""0.463""]","[1,1,1,0]",0,34,34,34,1,1,1,,,0,FALSE,1.4658,,,,,,,,,,,,,,,,,,,,,,,,,,,,,,
,616f2006b4373ed092c75910,001,2022-04-29_03h00.07.794,classification_task,2021.2.3,Win32,60.0132029,616f2006b4373ed092c75910,626b377229c10585ec392f8a,626b3825e869e48ade68b1df,,,,,,,,,,,,,,,,,,,,,,,a,1,"[""0.223"",""0.548"",""0.148"",""0.903""]","[1,1,0,1]",0,35,35,35,1,0,0,,,0,FALSE,1.9804,,,,,,,,,,,,,,,,,,,,,,,,,,,,,,
,616f2006b4373ed092c75910,001,2022-04-29_03h00.07.794,classification_task,2021.2.3,Win32,60.0132029,616f2006b4373ed092c75910,626b377229c10585ec392f8a,626b3825e869e48ade68b1df,,,,,,,,,,,,,,,,,,,,,,,a,0,"[""0.740"",""0.402"",""0.652"",""0.811""]","[0,1,1,1]",0,36,36,36,1,1,0,,,0,FALSE,2.0281,,,,,,,,,,,,,,,,,,,,,,,,,,,,,,
,616f2006b4373ed092c75910,001,2022-04-29_03h00.07.794,classification_task,2021.2.3,Win32,60.0132029,616f2006b4373ed092c75910,626b377229c10585ec392f8a,626b3825e869e48ade68b1df,,,,,,,,,,,,,,,,,,,,,,,a,1,"[""0.223"",""0.148"",""0.869"",""0.903""]","[1,0,1,1]",0,37,37,37,1,0,0,,,0,FALSE,1.0059,,,,,,,,,,,,,,,,,,,,,,,,,,,,,,
,616f2006b4373ed092c75910,001,2022-04-29_03h00.07.794,classification_task,2021.2.3,Win32,60.0132029,616f2006b4373ed092c75910,626b377229c10585ec392f8a,626b3825e869e48ade68b1df,,,,,,,,,,,,,,,,,,,,,,,l,1,"[""0.031"",""0.730"",""0.590"",""0.690""]","[1,0,1,1]",0,38,38,38,1,1,1,,,0,FALSE,2.0382,,,,,,,,,,,,,,,,,,,,,,,,,,,,,,
,616f2006b4373ed092c75910,001,2022-04-29_03h00.07.794,classification_task,2021.2.3,Win32,60.0132029,616f2006b4373ed092c75910,626b377229c10585ec392f8a,626b3825e869e48ade68b1df,,,,,,,,,,,,,,,,,,,,,,,l,1,"[""0.275"",""0.188"",""0.590"",""0.690""]","[0,1,1,1]",0,39,39,39,1,1,1,,,0,FALSE,0.9259,,,,,,,,,,,,,,,,,,,,,,,,,,,,,,
,616f2006b4373ed092c75910,001,2022-04-29_03h00.07.794,classification_task,2021.2.3,Win32,60.0132029,616f2006b4373ed092c75910,626b377229c10585ec392f8a,626b3825e869e48ade68b1df,,,,,,,,,,,,,,,,,,,,,,,a,1,"[""0.321"",""0.503"",""0.730"",""0.971""]","[1,1,0,1]",0,40,40,40,1,0,1,,,0,FALSE,1.9108,,,,,,,,,,,,,,,,,,,,,,,,,,,,,,
,616f2006b4373ed092c75910,001,2022-04-29_03h00.07.794,classification_task,2021.2.3,Win32,60.0132029,616f2006b4373ed092c75910,626b377229c10585ec392f8a,626b3825e869e48ade68b1df,,,,,,,,,,,,,,,,,,,,,,,a,1,"[""0.321"",""0.277"",""0.937"",""0.971""]","[1,0,1,1]",0,41,41,41,1,0,1,,,0,FALSE,0.6844,,,,,,,,,,,,,,,,,,,,,,,,,,,,,,
,616f2006b4373ed092c75910,001,2022-04-29_03h00.07.794,classification_task,2021.2.3,Win32,60.0132029,616f2006b4373ed092c75910,626b377229c10585ec392f8a,626b3825e869e48ade68b1df,,,,,,,,,,,,,,,,,,,,,,,a,1,"[""0.277"",""0.548"",""0.869"",""0.903""]","[0,1,1,1]",0,42,42,42,1,0,0,,,0,FALSE,1.0431,,,,,,,,,,,,,,,,,,,,,,,,,,,,,,
,616f2006b4373ed092c75910,001,2022-04-29_03h00.07.794,classification_task,2021.2.3,Win32,60.0132029,616f2006b4373ed092c75910,626b377229c10585ec392f8a,626b3825e869e48ade68b1df,,,,,,,,,,,,,,,,,,,,,,,l,1,"[""0.095"",""0.402"",""0.652"",""0.774""]","[1,1,1,0]",0,43,43,43,1,1,0,,,0,FALSE,0.7392,,,,,,,,,,,,,,,,,,,,,,,,,,,,,,
,616f2006b4373ed092c75910,001,2022-04-29_03h00.07.794,classification_task,2021.2.3,Win32,60.0132029,616f2006b4373ed092c75910,626b377229c10585ec392f8a,626b3825e869e48ade68b1df,,,,,,,,,,,,,,,,,,,,,,,l,1,"[""0.095"",""0.402"",""0.275"",""0.811""]","[1,1,0,1]",0,44,44,44,1,1,0,,,0,FALSE,1.274,,,,,,,,,,,,,,,,,,,,,,,,,,,,,,
,616f2006b4373ed092c75910,001,2022-04-29_03h00.07.794,classification_task,2021.2.3,Win32,60.0132029,616f2006b4373ed092c75910,626b377229c10585ec392f8a,626b3825e869e48ade68b1df,,,,,,,,,,,,,,,,,,,,,,,l,1,"[""0.095"",""0.148"",""0.652"",""0.811""]","[1,0,1,1]",0,45,45,45,1,1,0,,,0,FALSE,0.8677,,,,,,,,,,,,,,,,,,,,,,,,,,,,,,
,616f2006b4373ed092c75910,001,2022-04-29_03h00.07.794,classification_task,2021.2.3,Win32,60.0132029,616f2006b4373ed092c75910,626b377229c10585ec392f8a,626b3825e869e48ade68b1df,,,,,,,,,,,,,,,,,,,,,,,a,1,"[""0.223"",""0.548"",""0.869"",""0.739""]","[1,1,1,0]",0,46,46,46,1,0,0,,,0,FALSE,1.4088,,,,,,,,,,,,,,,,,,,,,,,,,,,,,,
,616f2006b4373ed092c75910,001,2022-04-29_03h00.07.794,classification_task,2021.2.3,Win32,60.0132029,616f2006b4373ed092c75910,626b377229c10585ec392f8a,626b3825e869e48ade68b1df,,,,,,,,,,,,,,,,,,,,,,,l,1,"[""0.031"",""0.188"",""0.733"",""0.690""]","[1,1,0,1]",0,47,47,47,1,1,1,,,0,FALSE,0.7736,,,,,,,,,,,,,,,,,,,,,,,,,,,,,,
,616f2006b4373ed092c75910,001,2022-04-29_03h00.07.794,classification_task,2021.2.3,Win32,60.0132029,616f2006b4373ed092c75910,626b377229c10585ec392f8a,626b3825e869e48ade68b1df,,,,,,,,,,,,,,,,,,,,,,,a,1,"[""0.281"",""0.548"",""0.869"",""0.903""]","[0,1,1,1]",0,48,48,48,1,0,0,,,0,FALSE,0.6175,,,,,,,,,,,,,,,,,,,,,,,,,,,,,,
,616f2006b4373ed092c75910,001,2022-04-29_03h00.07.794,classification_task,2021.2.3,Win32,60.0132029,616f2006b4373ed092c75910,626b377229c10585ec392f8a,626b3825e869e48ade68b1df,,,,,,,,,,,,,,,,,,,,,,,l,1,"[""0.772"",""0.188"",""0.590"",""0.690""]","[0,1,1,1]",0,49,49,49,1,1,1,,,0,FALSE,1.0513,,,,,,,,,,,,,,,,,,,,,,,,,,,,,,
,616f2006b4373ed092c75910,001,2022-04-29_03h00.07.794,classification_task,2021.2.3,Win32,60.0132029,616f2006b4373ed092c75910,626b377229c10585ec392f8a,626b3825e869e48ade68b1df,,,,,,,,,,,,,,,,,,,,,,,a,1,"[""0.223"",""0.772"",""0.869"",""0.903""]","[1,0,1,1]",0,50,50,50,1,0,0,,,0,FALSE,0.7372,,,,,,,,,,,,,,,,,,,,,,,,,,,,,,
,616f2006b4373ed092c75910,001,2022-04-29_03h00.07.794,classification_task,2021.2.3,Win32,60.0132029,616f2006b4373ed092c75910,626b377229c10585ec392f8a,626b3825e869e48ade68b1df,,,,,,,,,,,,,,,,,,,,,,,l,1,"[""0.095"",""0.402"",""0.730"",""0.811""]","[1,1,0,1]",0,51,51,51,1,1,0,,,0,FALSE,0.5651,,,,,,,,,,,,,,,,,,,,,,,,,,,,,,
,616f2006b4373ed092c75910,001,2022-04-29_03h00.07.794,classification_task,2021.2.3,Win32,60.0132029,616f2006b4373ed092c75910,626b377229c10585ec392f8a,626b3825e869e48ade68b1df,,,,,,,,,,,,,,,,,,,,,,,l,1,"[""0.095"",""0.402"",""0.652"",""0.264""]","[1,1,1,0]",0,52,52,52,1,1,0,,,0,FALSE,0.7193,,,,,,,,,,,,,,,,,,,,,,,,,,,,,,
,616f2006b4373ed092c75910,001,2022-04-29_03h00.07.794,classification_task,2021.2.3,Win32,60.0132029,616f2006b4373ed092c75910,626b377229c10585ec392f8a,626b3825e869e48ade68b1df,,,,,,,,,,,,,,,,,,,,,,,a,0,"[""0.281"",""0.402"",""0.652"",""0.811""]","[0,1,1,1]",0,53,53,53,1,1,0,,,0,FALSE,0.6896,,,,,,,,,,,,,,,,,,,,,,,,,,,,,,
,616f2006b4373ed092c75910,001,2022-04-29_03h00.07.794,classification_task,2021.2.3,Win32,60.0132029,616f2006b4373ed092c75910,626b377229c10585ec392f8a,626b3825e869e48ade68b1df,,,,,,,,,,,,,,,,,,,,,,,l,1,"[""0.031"",""0.188"",""0.590"",""0.463""]","[1,1,1,0]",0,54,54,54,1,1,1,,,0,FALSE,0.8648,,,,,,,,,,,,,,,,,,,,,,,,,,,,,,
,616f2006b4373ed092c75910,001,2022-04-29_03h00.07.794,classification_task,2021.2.3,Win32,60.0132029,616f2006b4373ed092c75910,626b377229c10585ec392f8a,626b3825e869e48ade68b1df,,,,,,,,,,,,,,,,,,,,,,,a,1,"[""0.774"",""0.503"",""0.937"",""0.971""]","[0,1,1,1]",0,55,55,55,1,0,1,,,0,FALSE,0.6802,,,,,,,,,,,,,,,,,,,,,,,,,,,,,,
,616f2006b4373ed092c75910,001,2022-04-29_03h00.07.794,classification_task,2021.2.3,Win32,60.0132029,616f2006b4373ed092c75910,626b377229c10585ec392f8a,626b3825e869e48ade68b1df,,,,,,,,,,,,,,,,,,,,,,,a,1,"[""0.223"",""0.548"",""0.264"",""0.903""]","[1,1,0,1]",0,56,56,56,1,0,0,,,0,FALSE,1.8241,,,,,,,,,,,,,,,,,,,,,,,,,,,,,,
,616f2006b4373ed092c75910,001,2022-04-29_03h00.07.794,classification_task,2021.2.3,Win32,60.0132029,616f2006b4373ed092c75910,626b377229c10585ec392f8a,626b3825e869e48ade68b1df,,,,,,,,,,,,,,,,,,,,,,,l,1,"[""0.095"",""0.772"",""0.652"",""0.811""]","[1,0,1,1]",0,57,57,57,1,1,0,,,0,FALSE,0.8655,,,,,,,,,,,,,,,,,,,,,,,,,,,,,,
,616f2006b4373ed092c75910,001,2022-04-29_03h00.07.794,classification_task,2021.2.3,Win32,60.0132029,616f2006b4373ed092c75910,626b377229c10585ec392f8a,626b3825e869e48ade68b1df,,,,,,,,,,,,,,,,,,,,,,,l,1,"[""0.031"",""0.277"",""0.590"",""0.690""]","[1,0,1,1]",0,58,58,58,1,1,1,,,0,FALSE,0.7506,,,,,,,,,,,,,,,,,,,,,,,,,,,,,,
,616f2006b4373ed092c75910,001,2022-04-29_03h00.07.794,classification_task,2021.2.3,Win32,60.0132029,616f2006b4373ed092c75910,626b377229c10585ec392f8a,626b3825e869e48ade68b1df,,,,,,,,,,,,,,,,,,,,,,,a,1,"[""0.223"",""0.548"",""0.869"",""0.277""]","[1,1,1,0]",0,59,59,59,1,0,0,,,0,FALSE,0.6323,,,,,,,,,,,,,,,,,,,,,,,,,,,,,,
,616f2006b4373ed092c75910,001,2022-04-29_03h00.07.794,classification_task,2021.2.3,Win32,60.0132029,616f2006b4373ed092c75910,626b377229c10585ec392f8a,626b3825e869e48ade68b1df,,,,,,,,,,,,,,,,,,,,,,,a,1,"[""0.321"",""0.503"",""0.148"",""0.971""]","[1,1,0,1]",0,60,60,60,1,0,1,,,0,FALSE,1.3843,,,,,,,,,,,,,,,,,,,,,,,,,,,,,,
,616f2006b4373ed092c75910,001,2022-04-29_03h00.07.794,classification_task,2021.2.3,Win32,60.0132029,616f2006b4373ed092c75910,626b377229c10585ec392f8a,626b3825e869e48ade68b1df,,,,,,,,,,,,,,,,,,,,,,,l,1,"[""0.031"",""0.188"",""0.772"",""0.690""]","[1,1,0,1]",0,61,61,61,1,1,1,,,0,FALSE,0.8087,,,,,,,,,,,,,,,,,,,,,,,,,,,,,,
,616f2006b4373ed092c75910,001,2022-04-29_03h00.07.794,classification_task,2021.2.3,Win32,60.0132029,616f2006b4373ed092c75910,626b377229c10585ec392f8a,626b3825e869e48ade68b1df,,,,,,,,,,,,,,,,,,,,,,,a,1,"[""0.321"",""0.503"",""0.937"",""0.264""]","[1,1,1,0]",0,62,62,62,1,0,1,,,0,FALSE,0.5427,,,,,,,,,,,,,,,,,,,,,,,,,,,,,,
,616f2006b4373ed092c75910,001,2022-04-29_03h00.07.794,classification_task,2021.2.3,Win32,60.0132029,616f2006b4373ed092c75910,626b377229c10585ec392f8a,626b3825e869e48ade68b1df,,,,,,,,,,,,,,,,,,,,,,,a,1,"[""0.321"",""0.753"",""0.937"",""0.971""]","[1,0,1,1]",0,63,63,63,1,0,1,,,0,FALSE,0.5023,,,,,,,,,,,,,,,,,,,,,,,,,,,,,,
,616f2006b4373ed092c75910,001,2022-04-29_03h00.07.794,classification_task,2021.2.3,Win32,60.0132029,616f2006b4373ed092c75910,626b377229c10585ec392f8a,626b3825e869e48ade68b1df,,,,,,,,,,,,,,,,,,,,,,,,,,,,,,,,,,,,,,,0, ,,0,1.245315256,163.7655,0,1,1,1,1,2,2,,,,,,,,,,,,,,,,,
,616f2006b4373ed092c75910,001,2022-04-29_03h00.07.794,classification_task,2021.2.3,Win32,60.0132029,616f2006b4373ed092c75910,626b377229c10585ec392f8a,626b3825e869e48ade68b1df,,,,,,,,,,,,,,,,,,,,,,,,,,,,,,,,,,,,,,,1,  ,,0,3.622134039,172.0414,0,1,1,1,1,2,2,,,,,,,,,,,,,,,,,
,616f2006b4373ed092c75910,001,2022-04-29_03h00.07.794,classification_task,2021.2.3,Win32,60.0132029,616f2006b4373ed092c75910,626b377229c10585ec392f8a,626b3825e869e48ade68b1df,,,,,,,,,,,,,,,,,,,,,,,,,,,,,,,,,,,,,,,2,  ,,0,4.724426808,180.1142,0,1,1,1,1,2,2,,,,,,,,,,,,,,,,,
,616f2006b4373ed092c75910,001,2022-04-29_03h00.07.794,classification_task,2021.2.3,Win32,60.0132029,616f2006b4373ed092c75910,626b377229c10585ec392f8a,626b3825e869e48ade68b1df,,,,,,,,,,,,,,,,,,,,,,,,,,,,,,,,,,,,,,,,,,,,,0,1,1,1,1,,2,,,,,,,,,,,,,,,,,
,616f2006b4373ed092c75910,001,2022-04-29_03h00.07.794,classification_task,2021.2.3,Win32,60.0132029,616f2006b4373ed092c75910,626b377229c10585ec392f8a,626b3825e869e48ade68b1df,,,,,,,,,,,,,,,,,,,,,space,7.4915,l,1,"[""0.031"",""0.740"",""0.590"",""0.690""]","[1,0,1,1]",0,0,0,0,1,1,1,,,0,FALSE,1.5477,,,,,,,,,,,,,,,,,,,,,,,,,,,,,,
,616f2006b4373ed092c75910,001,2022-04-29_03h00.07.794,classification_task,2021.2.3,Win32,60.0132029,616f2006b4373ed092c75910,626b377229c10585ec392f8a,626b3825e869e48ade68b1df,,,,,,,,,,,,,,,,,,,,,,,l,1,"[""0.095"",""0.402"",""0.740"",""0.811""]","[1,1,0,1]",0,1,1,1,1,1,0,,,0,FALSE,1.8106,,,,,,,,,,,,,,,,,,,,,,,,,,,,,,
,616f2006b4373ed092c75910,001,2022-04-29_03h00.07.794,classification_task,2021.2.3,Win32,60.0132029,616f2006b4373ed092c75910,626b377229c10585ec392f8a,626b3825e869e48ade68b1df,,,,,,,,,,,,,,,,,,,,,,,a,1,"[""0.321"",""0.730"",""0.937"",""0.971""]","[1,0,1,1]",0,2,2,2,1,0,1,,,0,FALSE,1.0275,,,,,,,,,,,,,,,,,,,,,,,,,,,,,,
,616f2006b4373ed092c75910,001,2022-04-29_03h00.07.794,classification_task,2021.2.3,Win32,60.0132029,616f2006b4373ed092c75910,626b377229c10585ec392f8a,626b3825e869e48ade68b1df,,,,,,,,,,,,,,,,,,,,,,,a,1,"[""0.223"",""0.548"",""0.733"",""0.903""]","[1,1,0,1]",0,3,3,3,1,0,0,,,0,FALSE,0.8496,,,,,,,,,,,,,,,,,,,,,,,,,,,,,,
,616f2006b4373ed092c75910,001,2022-04-29_03h00.07.794,classification_task,2021.2.3,Win32,60.0132029,616f2006b4373ed092c75910,626b377229c10585ec392f8a,626b3825e869e48ade68b1df,,,,,,,,,,,,,,,,,,,,,,,a,1,"[""0.753"",""0.503"",""0.937"",""0.971""]","[0,1,1,1]",0,4,4,4,1,0,1,,,0,FALSE,0.8613,,,,,,,,,,,,,,,,,,,,,,,,,,,,,,
,616f2006b4373ed092c75910,001,2022-04-29_03h00.07.794,classification_task,2021.2.3,Win32,60.0132029,616f2006b4373ed092c75910,626b377229c10585ec392f8a,626b3825e869e48ade68b1df,,,,,,,,,,,,,,,,,,,,,,,a,0,"[""0.753"",""0.402"",""0.652"",""0.811""]","[0,1,1,1]",0,5,5,5,1,1,0,,,0,FALSE,0.5418,,,,,,,,,,,,,,,,,,,,,,,,,,,,,,
,616f2006b4373ed092c75910,001,2022-04-29_03h00.07.794,classification_task,2021.2.3,Win32,60.0132029,616f2006b4373ed092c75910,626b377229c10585ec392f8a,626b3825e869e48ade68b1df,,,,,,,,,,,,,,,,,,,,,,,a,1,"[""0.223"",""0.548"",""0.869"",""0.733""]","[1,1,1,0]",0,6,6,6,1,0,0,,,0,FALSE,0.8278,,,,,,,,,,,,,,,,,,,,,,,,,,,,,,
,616f2006b4373ed092c75910,001,2022-04-29_03h00.07.794,classification_task,2021.2.3,Win32,60.0132029,616f2006b4373ed092c75910,626b377229c10585ec392f8a,626b3825e869e48ade68b1df,,,,,,,,,,,,,,,,,,,,,,,l,1,"[""0.095"",""0.402"",""0.652"",""0.772""]","[1,1,1,0]",0,7,7,7,1,1,0,,,0,FALSE,0.6087,,,,,,,,,,,,,,,,,,,,,,,,,,,,,,
,616f2006b4373ed092c75910,001,2022-04-29_03h00.07.794,classification_task,2021.2.3,Win32,60.0132029,616f2006b4373ed092c75910,626b377229c10585ec392f8a,626b3825e869e48ade68b1df,,,,,,,,,,,,,,,,,,,,,,,a,1,"[""0.277"",""0.548"",""0.869"",""0.903""]","[0,1,1,1]",0,8,8,8,1,0,0,,,0,FALSE,0.442,,,,,,,,,,,,,,,,,,,,,,,,,,,,,,
,616f2006b4373ed092c75910,001,2022-04-29_03h00.07.794,classification_task,2021.2.3,Win32,60.0132029,616f2006b4373ed092c75910,626b377229c10585ec392f8a,626b3825e869e48ade68b1df,,,,,,,,,,,,,,,,,,,,,,,a,1,"[""0.321"",""0.503"",""0.937"",""0.259""]","[1,1,1,0]",0,9,9,9,1,0,1,,,0,FALSE,0.7583,,,,,,,,,,,,,,,,,,,,,,,,,,,,,,
,616f2006b4373ed092c75910,001,2022-04-29_03h00.07.794,classification_task,2021.2.3,Win32,60.0132029,616f2006b4373ed092c75910,626b377229c10585ec392f8a,626b3825e869e48ade68b1df,,,,,,,,,,,,,,,,,,,,,,,l,1,"[""0.031"",""0.188"",""0.590"",""0.148""]","[1,1,1,0]",0,10,10,10,1,1,1,,,0,FALSE,0.5515,,,,,,,,,,,,,,,,,,,,,,,,,,,,,,
,616f2006b4373ed092c75910,001,2022-04-29_03h00.07.794,classification_task,2021.2.3,Win32,60.0132029,616f2006b4373ed092c75910,626b377229c10585ec392f8a,626b3825e869e48ade68b1df,,,,,,,,,,,,,,,,,,,,,,,l,1,"[""0.095"",""0.463"",""0.652"",""0.811""]","[1,0,1,1]",0,11,11,11,1,1,0,,,0,FALSE,0.8918,,,,,,,,,,,,,,,,,,,,,,,,,,,,,,
,616f2006b4373ed092c75910,001,2022-04-29_03h00.07.794,classification_task,2021.2.3,Win32,60.0132029,616f2006b4373ed092c75910,626b377229c10585ec392f8a,626b3825e869e48ade68b1df,,,,,,,,,,,,,,,,,,,,,,,l,1,"[""0.031"",""0.188"",""0.445"",""0.690""]","[1,1,0,1]",0,12,12,12,1,1,1,,,0,FALSE,0.6243,,,,,,,,,,,,,,,,,,,,,,,,,,,,,,
,616f2006b4373ed092c75910,001,2022-04-29_03h00.07.794,classification_task,2021.2.3,Win32,60.0132029,616f2006b4373ed092c75910,626b377229c10585ec392f8a,626b3825e869e48ade68b1df,,,,,,,,,,,,,,,,,,,,,,,a,1,"[""0.223"",""0.733"",""0.869"",""0.903""]","[1,0,1,1]",0,13,13,13,1,0,0,,,0,FALSE,0.4881,,,,,,,,,,,,,,,,,,,,,,,,,,,,,,
,616f2006b4373ed092c75910,001,2022-04-29_03h00.07.794,classification_task,2021.2.3,Win32,60.0132029,616f2006b4373ed092c75910,626b377229c10585ec392f8a,626b3825e869e48ade68b1df,,,,,,,,,,,,,,,,,,,,,,,a,1,"[""0.321"",""0.503"",""0.264"",""0.971""]","[1,1,0,1]",0,14,14,14,1,0,1,,,0,FALSE,0.6395,,,,,,,,,,,,,,,,,,,,,,,,,,,,,,
,616f2006b4373ed092c75910,001,2022-04-29_03h00.07.794,classification_task,2021.2.3,Win32,60.0132029,616f2006b4373ed092c75910,626b377229c10585ec392f8a,626b3825e869e48ade68b1df,,,,,,,,,,,,,,,,,,,,,,,a,0,"[""0.772"",""0.188"",""0.590"",""0.690""]","[0,1,1,1]",0,15,15,15,1,1,1,,,0,FALSE,0.5083,,,,,,,,,,,,,,,,,,,,,,,,,,,,,,
,616f2006b4373ed092c75910,001,2022-04-29_03h00.07.794,classification_task,2021.2.3,Win32,60.0132029,616f2006b4373ed092c75910,626b377229c10585ec392f8a,626b3825e869e48ade68b1df,,,,,,,,,,,,,,,,,,,,,,,l,1,"[""0.095"",""0.402"",""0.652"",""0.753""]","[1,1,1,0]",0,16,16,16,1,1,0,,,0,FALSE,0.5851,,,,,,,,,,,,,,,,,,,,,,,,,,,,,,
,616f2006b4373ed092c75910,001,2022-04-29_03h00.07.794,classification_task,2021.2.3,Win32,60.0132029,616f2006b4373ed092c75910,626b377229c10585ec392f8a,626b3825e869e48ade68b1df,,,,,,,,,,,,,,,,,,,,,,,l,1,"[""0.753"",""0.188"",""0.590"",""0.690""]","[0,1,1,1]",0,17,17,17,1,1,1,,,0,FALSE,0.8443,,,,,,,,,,,,,,,,,,,,,,,,,,,,,,
,616f2006b4373ed092c75910,001,2022-04-29_03h00.07.794,classification_task,2021.2.3,Win32,60.0132029,616f2006b4373ed092c75910,626b377229c10585ec392f8a,626b3825e869e48ade68b1df,,,,,,,,,,,,,,,,,,,,,,,l,1,"[""0.095"",""0.739"",""0.652"",""0.811""]","[1,0,1,1]",0,18,18,18,1,1,0,,,0,FALSE,0.7488,,,,,,,,,,,,,,,,,,,,,,,,,,,,,,
,616f2006b4373ed092c75910,001,2022-04-29_03h00.07.794,classification_task,2021.2.3,Win32,60.0132029,616f2006b4373ed092c75910,626b377229c10585ec392f8a,626b3825e869e48ade68b1df,,,,,,,,,,,,,,,,,,,,,,,a,1,"[""0.223"",""0.548"",""0.740"",""0.903""]","[1,1,0,1]",0,19,19,19,1,0,0,,,0,FALSE,0.7113,,,,,,,,,,,,,,,,,,,,,,,,,,,,,,
,616f2006b4373ed092c75910,001,2022-04-29_03h00.07.794,classification_task,2021.2.3,Win32,60.0132029,616f2006b4373ed092c75910,626b377229c10585ec392f8a,626b3825e869e48ade68b1df,,,,,,,,,,,,,,,,,,,,,,,a,1,"[""0.749"",""0.503"",""0.937"",""0.971""]","[0,1,1,1]",0,20,20,20,1,0,1,,,0,FALSE,0.7523,,,,,,,,,,,,,,,,,,,,,,,,,,,,,,
,616f2006b4373ed092c75910,001,2022-04-29_03h00.07.794,classification_task,2021.2.3,Win32,60.0132029,616f2006b4373ed092c75910,626b377229c10585ec392f8a,626b3825e869e48ade68b1df,,,,,,,,,,,,,,,,,,,,,,,a,1,"[""0.223"",""0.733"",""0.869"",""0.903""]","[1,0,1,1]",0,21,21,21,1,0,0,,,0,FALSE,0.8021,,,,,,,,,,,,,,,,,,,,,,,,,,,,,,
,616f2006b4373ed092c75910,001,2022-04-29_03h00.07.794,classification_task,2021.2.3,Win32,60.0132029,616f2006b4373ed092c75910,626b377229c10585ec392f8a,626b3825e869e48ade68b1df,,,,,,,,,,,,,,,,,,,,,,,a,1,"[""0.321"",""0.503"",""0.277"",""0.971""]","[1,1,0,1]",0,22,22,22,1,0,1,,,0,FALSE,0.9569,,,,,,,,,,,,,,,,,,,,,,,,,,,,,,
,616f2006b4373ed092c75910,001,2022-04-29_03h00.07.794,classification_task,2021.2.3,Win32,60.0132029,616f2006b4373ed092c75910,626b377229c10585ec392f8a,626b3825e869e48ade68b1df,,,,,,,,,,,,,,,,,,,,,,,l,1,"[""0.031"",""0.463"",""0.590"",""0.690""]","[1,0,1,1]",0,23,23,23,1,1,1,,,0,FALSE,1.3448,,,,,,,,,,,,,,,,,,,,,,,,,,,,,,
,616f2006b4373ed092c75910,001,2022-04-29_03h00.07.794,classification_task,2021.2.3,Win32,60.0132029,616f2006b4373ed092c75910,626b377229c10585ec392f8a,626b3825e869e48ade68b1df,,,,,,,,,,,,,,,,,,,,,,,a,1,"[""0.321"",""0.264"",""0.937"",""0.971""]","[1,0,1,1]",0,24,24,24,1,0,1,,,0,FALSE,1.7317,,,,,,,,,,,,,,,,,,,,,,,,,,,,,,
,616f2006b4373ed092c75910,001,2022-04-29_03h00.07.794,classification_task,2021.2.3,Win32,60.0132029,616f2006b4373ed092c75910,626b377229c10585ec392f8a,626b3825e869e48ade68b1df,,,,,,,,,,,,,,,,,,,,,,,l,1,"[""0.031"",""0.188"",""0.590"",""0.730""]","[1,1,1,0]",0,25,25,25,1,1,1,,,0,FALSE,1.0117,,,,,,,,,,,,,,,,,,,,,,,,,,,,,,
,616f2006b4373ed092c75910,001,2022-04-29_03h00.07.794,classification_task,2021.2.3,Win32,60.0132029,616f2006b4373ed092c75910,626b377229c10585ec392f8a,626b3825e869e48ade68b1df,,,,,,,,,,,,,,,,,,,,,,,l,1,"[""0.095"",""0.402"",""0.772"",""0.811""]","[1,1,0,1]",0,26,26,26,1,1,0,,,0,FALSE,1.0271,,,,,,,,,,,,,,,,,,,,,,,,,,,,,,
,616f2006b4373ed092c75910,001,2022-04-29_03h00.07.794,classification_task,2021.2.3,Win32,60.0132029,616f2006b4373ed092c75910,626b377229c10585ec392f8a,626b3825e869e48ade68b1df,,,,,,,,,,,,,,,,,,,,,,,a,1,"[""0.321"",""0.503"",""0.937"",""0.730""]","[1,1,1,0]",0,27,27,27,1,0,1,,,0,FALSE,0.5613,,,,,,,,,,,,,,,,,,,,,,,,,,,,,,
,616f2006b4373ed092c75910,001,2022-04-29_03h00.07.794,classification_task,2021.2.3,Win32,60.0132029,616f2006b4373ed092c75910,626b377229c10585ec392f8a,626b3825e869e48ade68b1df,,,,,,,,,,,,,,,,,,,,,,,a,1,"[""0.740"",""0.548"",""0.869"",""0.903""]","[0,1,1,1]",0,28,28,28,1,0,0,,,0,FALSE,0.961,,,,,,,,,,,,,,,,,,,,,,,,,,,,,,
,616f2006b4373ed092c75910,001,2022-04-29_03h00.07.794,classification_task,2021.2.3,Win32,60.0132029,616f2006b4373ed092c75910,626b377229c10585ec392f8a,626b3825e869e48ade68b1df,,,,,,,,,,,,,,,,,,,,,,,a,0,"[""0.730"",""0.402"",""0.652"",""0.811""]","[0,1,1,1]",0,29,29,29,1,1,0,,,0,FALSE,0.5257,,,,,,,,,,,,,,,,,,,,,,,,,,,,,,
,616f2006b4373ed092c75910,001,2022-04-29_03h00.07.794,classification_task,2021.2.3,Win32,60.0132029,616f2006b4373ed092c75910,626b377229c10585ec392f8a,626b3825e869e48ade68b1df,,,,,,,,,,,,,,,,,,,,,,,a,1,"[""0.223"",""0.548"",""0.869"",""0.730""]","[1,1,1,0]",0,30,30,30,1,0,0,,,0,FALSE,0.8202,,,,,,,,,,,,,,,,,,,,,,,,,,,,,,
,616f2006b4373ed092c75910,001,2022-04-29_03h00.07.794,classification_task,2021.2.3,Win32,60.0132029,616f2006b4373ed092c75910,626b377229c10585ec392f8a,626b3825e869e48ade68b1df,,,,,,,,,,,,,,,,,,,,,,,l,1,"[""0.031"",""0.188"",""0.445"",""0.690""]","[1,1,0,1]",0,31,31,31,1,1,1,,,0,FALSE,0.8344,,,,,,,,,,,,,,,,,,,,,,,,,,,,,,
,616f2006b4373ed092c75910,001,2022-04-29_03h00.07.794,classification_task,2021.2.3,Win32,60.0132029,616f2006b4373ed092c75910,626b377229c10585ec392f8a,626b3825e869e48ade68b1df,,,,,,,,,,,,,,,,,,,,,,,l,1,"[""0.095"",""0.402"",""0.281"",""0.811""]","[1,1,0,1]",0,32,32,32,1,1,0,,,0,FALSE,1.0601,,,,,,,,,,,,,,,,,,,,,,,,,,,,,,
,616f2006b4373ed092c75910,001,2022-04-29_03h00.07.794,classification_task,2021.2.3,Win32,60.0132029,616f2006b4373ed092c75910,626b377229c10585ec392f8a,626b3825e869e48ade68b1df,,,,,,,,,,,,,,,,,,,,,,,l,1,"[""0.095"",""0.753"",""0.652"",""0.811""]","[1,0,1,1]",0,33,33,33,1,1,0,,,0,FALSE,0.5622,,,,,,,,,,,,,,,,,,,,,,,,,,,,,,
,616f2006b4373ed092c75910,001,2022-04-29_03h00.07.794,classification_task,2021.2.3,Win32,60.0132029,616f2006b4373ed092c75910,626b377229c10585ec392f8a,626b3825e869e48ade68b1df,,,,,,,,,,,,,,,,,,,,,,,a,1,"[""0.223"",""0.753"",""0.869"",""0.903""]","[1,0,1,1]",0,34,34,34,1,0,0,,,0,FALSE,0.6315,,,,,,,,,,,,,,,,,,,,,,,,,,,,,,
,616f2006b4373ed092c75910,001,2022-04-29_03h00.07.794,classification_task,2021.2.3,Win32,60.0132029,616f2006b4373ed092c75910,626b377229c10585ec392f8a,626b3825e869e48ade68b1df,,,,,,,,,,,,,,,,,,,,,,,a,1,"[""0.321"",""0.503"",""0.275"",""0.971""]","[1,1,0,1]",0,35,35,35,1,0,1,,,0,FALSE,0.6425,,,,,,,,,,,,,,,,,,,,,,,,,,,,,,
,616f2006b4373ed092c75910,001,2022-04-29_03h00.07.794,classification_task,2021.2.3,Win32,60.0132029,616f2006b4373ed092c75910,626b377229c10585ec392f8a,626b3825e869e48ade68b1df,,,,,,,,,,,,,,,,,,,,,,,a,1,"[""0.321"",""0.503"",""0.937"",""0.730""]","[1,1,1,0]",0,36,36,36,1,0,1,,,0,FALSE,0.4895,,,,,,,,,,,,,,,,,,,,,,,,,,,,,,
,616f2006b4373ed092c75910,001,2022-04-29_03h00.07.794,classification_task,2021.2.3,Win32,60.0132029,616f2006b4373ed092c75910,626b377229c10585ec392f8a,626b3825e869e48ade68b1df,,,,,,,,,,,,,,,,,,,,,,,a,1,"[""0.223"",""0.548"",""0.869"",""0.772""]","[1,1,1,0]",0,37,37,37,1,0,0,,,0,FALSE,0.8933,,,,,,,,,,,,,,,,,,,,,,,,,,,,,,
,616f2006b4373ed092c75910,001,2022-04-29_03h00.07.794,classification_task,2021.2.3,Win32,60.0132029,616f2006b4373ed092c75910,626b377229c10585ec392f8a,626b3825e869e48ade68b1df,,,,,,,,,,,,,,,,,,,,,,,l,1,"[""0.031"",""0.730"",""0.590"",""0.690""]","[1,0,1,1]",0,38,38,38,1,1,1,,,0,FALSE,0.7723,,,,,,,,,,,,,,,,,,,,,,,,,,,,,,
,616f2006b4373ed092c75910,001,2022-04-29_03h00.07.794,classification_task,2021.2.3,Win32,60.0132029,616f2006b4373ed092c75910,626b377229c10585ec392f8a,626b3825e869e48ade68b1df,,,,,,,,,,,,,,,,,,,,,,,l,1,"[""0.749"",""0.188"",""0.590"",""0.690""]","[0,1,1,1]",0,39,39,39,1,1,1,,,0,FALSE,1.0359,,,,,,,,,,,,,,,,,,,,,,,,,,,,,,
,616f2006b4373ed092c75910,001,2022-04-29_03h00.07.794,classification_task,2021.2.3,Win32,60.0132029,616f2006b4373ed092c75910,626b377229c10585ec392f8a,626b3825e869e48ade68b1df,,,,,,,,,,,,,,,,,,,,,,,l,1,"[""0.095"",""0.402"",""0.652"",""0.774""]","[1,1,1,0]",0,40,40,40,1,1,0,,,0,FALSE,0.9731,,,,,,,,,,,,,,,,,,,,,,,,,,,,,,
,616f2006b4373ed092c75910,001,2022-04-29_03h00.07.794,classification_task,2021.2.3,Win32,60.0132029,616f2006b4373ed092c75910,626b377229c10585ec392f8a,626b3825e869e48ade68b1df,,,,,,,,,,,,,,,,,,,,,,,a,1,"[""0.321"",""0.148"",""0.937"",""0.971""]","[1,0,1,1]",0,41,41,41,1,0,1,,,0,FALSE,0.9187,,,,,,,,,,,,,,,,,,,,,,,,,,,,,,
,616f2006b4373ed092c75910,001,2022-04-29_03h00.07.794,classification_task,2021.2.3,Win32,60.0132029,616f2006b4373ed092c75910,626b377229c10585ec392f8a,626b3825e869e48ade68b1df,,,,,,,,,,,,,,,,,,,,,,,a,1,"[""0.774"",""0.548"",""0.869"",""0.903""]","[0,1,1,1]",0,42,42,42,1,0,0,,,0,FALSE,0.6168,,,,,,,,,,,,,,,,,,,,,,,,,,,,,,
,616f2006b4373ed092c75910,001,2022-04-29_03h00.07.794,classification_task,2021.2.3,Win32,60.0132029,616f2006b4373ed092c75910,626b377229c10585ec392f8a,626b3825e869e48ade68b1df,,,,,,,,,,,,,,,,,,,,,,,l,1,"[""0.148"",""0.402"",""0.652"",""0.811""]","[0,1,1,1]",0,43,43,43,1,1,0,,,0,FALSE,0.8471,,,,,,,,,,,,,,,,,,,,,,,,,,,,,,
,616f2006b4373ed092c75910,001,2022-04-29_03h00.07.794,classification_task,2021.2.3,Win32,60.0132029,616f2006b4373ed092c75910,626b377229c10585ec392f8a,626b3825e869e48ade68b1df,,,,,,,,,,,,,,,,,,,,,,,a,1,"[""0.223"",""0.548"",""0.772"",""0.903""]","[1,1,0,1]",0,44,44,44,1,0,0,,,0,FALSE,0.7129,,,,,,,,,,,,,,,,,,,,,,,,,,,,,,
,616f2006b4373ed092c75910,001,2022-04-29_03h00.07.794,classification_task,2021.2.3,Win32,60.0132029,616f2006b4373ed092c75910,626b377229c10585ec392f8a,626b3825e869e48ade68b1df,,,,,,,,,,,,,,,,,,,,,,,a,1,"[""0.733"",""0.503"",""0.937"",""0.971""]","[0,1,1,1]",0,45,45,45,1,0,1,,,0,FALSE,0.64,,,,,,,,,,,,,,,,,,,,,,,,,,,,,,
,616f2006b4373ed092c75910,001,2022-04-29_03h00.07.794,classification_task,2021.2.3,Win32,60.0132029,616f2006b4373ed092c75910,626b377229c10585ec392f8a,626b3825e869e48ade68b1df,,,,,,,,,,,,,,,,,,,,,,,l,1,"[""0.031"",""0.188"",""0.590"",""0.259""]","[1,1,1,0]",0,46,46,46,1,1,1,,,0,FALSE,0.6041,,,,,,,,,,,,,,,,,,,,,,,,,,,,,,
,616f2006b4373ed092c75910,001,2022-04-29_03h00.07.794,classification_task,2021.2.3,Win32,60.0132029,616f2006b4373ed092c75910,626b377229c10585ec392f8a,626b3825e869e48ade68b1df,,,,,,,,,,,,,,,,,,,,,,,l,1,"[""0.031"",""0.188"",""0.772"",""0.690""]","[1,1,0,1]",0,47,47,47,1,1,1,,,0,FALSE,0.6272,,,,,,,,,,,,,,,,,,,,,,,,,,,,,,
,616f2006b4373ed092c75910,001,2022-04-29_03h00.07.794,classification_task,2021.2.3,Win32,60.0132029,616f2006b4373ed092c75910,626b377229c10585ec392f8a,626b3825e869e48ade68b1df,,,,,,,,,,,,,,,,,,,,,,,a,1,"[""0.321"",""0.503"",""0.937"",""0.730""]","[1,1,1,0]",0,48,48,48,1,0,1,,,0,FALSE,0.6353,,,,,,,,,,,,,,,,,,,,,,,,,,,,,,
,616f2006b4373ed092c75910,001,2022-04-29_03h00.07.794,classification_task,2021.2.3,Win32,60.0132029,616f2006b4373ed092c75910,626b377229c10585ec392f8a,626b3825e869e48ade68b1df,,,,,,,,,,,,,,,,,,,,,,,l,1,"[""0.095"",""0.402"",""0.652"",""0.264""]","[1,1,1,0]",0,49,49,49,1,1,0,,,0,FALSE,0.6335,,,,,,,,,,,,,,,,,,,,,,,,,,,,,,
,616f2006b4373ed092c75910,001,2022-04-29_03h00.07.794,classification_task,2021.2.3,Win32,60.0132029,616f2006b4373ed092c75910,626b377229c10585ec392f8a,626b3825e869e48ade68b1df,,,,,,,,,,,,,,,,,,,,,,,l,1,"[""0.749"",""0.188"",""0.590"",""0.690""]","[0,1,1,1]",0,50,50,50,1,1,1,,,0,FALSE,1.1117,,,,,,,,,,,,,,,,,,,,,,,,,,,,,,
,616f2006b4373ed092c75910,001,2022-04-29_03h00.07.794,classification_task,2021.2.3,Win32,60.0132029,616f2006b4373ed092c75910,626b377229c10585ec392f8a,626b3825e869e48ade68b1df,,,,,,,,,,,,,,,,,,,,,,,a,1,"[""0.223"",""0.548"",""0.753"",""0.903""]","[1,1,0,1]",0,51,51,51,1,0,0,,,0,FALSE,0.6929,,,,,,,,,,,,,,,,,,,,,,,,,,,,,,
,616f2006b4373ed092c75910,001,2022-04-29_03h00.07.794,classification_task,2021.2.3,Win32,60.0132029,616f2006b4373ed092c75910,626b377229c10585ec392f8a,626b3825e869e48ade68b1df,,,,,,,,,,,,,,,,,,,,,,,l,1,"[""0.095"",""0.402"",""0.730"",""0.811""]","[1,1,0,1]",0,52,52,52,1,1,0,,,0,FALSE,1.1211,,,,,,,,,,,,,,,,,,,,,,,,,,,,,,
,616f2006b4373ed092c75910,001,2022-04-29_03h00.07.794,classification_task,2021.2.3,Win32,60.0132029,616f2006b4373ed092c75910,626b377229c10585ec392f8a,626b3825e869e48ade68b1df,,,,,,,,,,,,,,,,,,,,,,,a,1,"[""0.223"",""0.739"",""0.869"",""0.903""]","[1,0,1,1]",0,53,53,53,1,0,0,,,0,FALSE,0.596,,,,,,,,,,,,,,,,,,,,,,,,,,,,,,
,616f2006b4373ed092c75910,001,2022-04-29_03h00.07.794,classification_task,2021.2.3,Win32,60.0132029,616f2006b4373ed092c75910,626b377229c10585ec392f8a,626b3825e869e48ade68b1df,,,,,,,,,,,,,,,,,,,,,,,l,1,"[""0.031"",""0.188"",""0.590"",""0.463""]","[1,1,1,0]",0,54,54,54,1,1,1,,,0,FALSE,0.4944,,,,,,,,,,,,,,,,,,,,,,,,,,,,,,
,616f2006b4373ed092c75910,001,2022-04-29_03h00.07.794,classification_task,2021.2.3,Win32,60.0132029,616f2006b4373ed092c75910,626b377229c10585ec392f8a,626b3825e869e48ade68b1df,,,,,,,,,,,,,,,,,,,,,,,l,1,"[""0.095"",""0.148"",""0.652"",""0.811""]","[1,0,1,1]",0,55,55,55,1,1,0,,,0,FALSE,0.6766,,,,,,,,,,,,,,,,,,,,,,,,,,,,,,
,616f2006b4373ed092c75910,001,2022-04-29_03h00.07.794,classification_task,2021.2.3,Win32,60.0132029,616f2006b4373ed092c75910,626b377229c10585ec392f8a,626b3825e869e48ade68b1df,,,,,,,,,,,,,,,,,,,,,,,a,1,"[""0.223"",""0.548"",""0.869"",""0.739""]","[1,1,1,0]",0,56,56,56,1,0,0,,,0,FALSE,0.5699,,,,,,,,,,,,,,,,,,,,,,,,,,,,,,
,616f2006b4373ed092c75910,001,2022-04-29_03h00.07.794,classification_task,2021.2.3,Win32,60.0132029,616f2006b4373ed092c75910,626b377229c10585ec392f8a,626b3825e869e48ade68b1df,,,,,,,,,,,,,,,,,,,,,,,a,1,"[""0.321"",""0.281"",""0.937"",""0.971""]","[1,0,1,1]",0,57,57,57,1,0,1,,,0,FALSE,0.6613,,,,,,,,,,,,,,,,,,,,,,,,,,,,,,
,616f2006b4373ed092c75910,001,2022-04-29_03h00.07.794,classification_task,2021.2.3,Win32,60.0132029,616f2006b4373ed092c75910,626b377229c10585ec392f8a,626b3825e869e48ade68b1df,,,,,,,,,,,,,,,,,,,,,,,l,1,"[""0.031"",""0.259"",""0.590"",""0.690""]","[1,0,1,1]",0,58,58,58,1,1,1,,,0,FALSE,0.5382,,,,,,,,,,,,,,,,,,,,,,,,,,,,,,
,616f2006b4373ed092c75910,001,2022-04-29_03h00.07.794,classification_task,2021.2.3,Win32,60.0132029,616f2006b4373ed092c75910,626b377229c10585ec392f8a,626b3825e869e48ade68b1df,,,,,,,,,,,,,,,,,,,,,,,a,1,"[""0.321"",""0.503"",""0.772"",""0.971""]","[1,1,0,1]",0,59,59,59,1,0,1,,,0,FALSE,0.516,,,,,,,,,,,,,,,,,,,,,,,,,,,,,,
,616f2006b4373ed092c75910,001,2022-04-29_03h00.07.794,classification_task,2021.2.3,Win32,60.0132029,616f2006b4373ed092c75910,626b377229c10585ec392f8a,626b3825e869e48ade68b1df,,,,,,,,,,,,,,,,,,,,,,,a,0,"[""0.774"",""0.402"",""0.652"",""0.811""]","[0,1,1,1]",0,60,60,60,1,1,0,,,0,FALSE,0.5875,,,,,,,,,,,,,,,,,,,,,,,,,,,,,,
,616f2006b4373ed092c75910,001,2022-04-29_03h00.07.794,classification_task,2021.2.3,Win32,60.0132029,616f2006b4373ed092c75910,626b377229c10585ec392f8a,626b3825e869e48ade68b1df,,,,,,,,,,,,,,,,,,,,,,,a,1,"[""0.772"",""0.503"",""0.937"",""0.971""]","[0,1,1,1]",0,61,61,61,1,0,1,,,0,FALSE,0.5583,,,,,,,,,,,,,,,,,,,,,,,,,,,,,,
,616f2006b4373ed092c75910,001,2022-04-29_03h00.07.794,classification_task,2021.2.3,Win32,60.0132029,616f2006b4373ed092c75910,626b377229c10585ec392f8a,626b3825e869e48ade68b1df,,,,,,,,,,,,,,,,,,,,,,,a,1,"[""0.749"",""0.548"",""0.869"",""0.903""]","[0,1,1,1]",0,62,62,62,1,0,0,,,0,FALSE,0.4803,,,,,,,,,,,,,,,,,,,,,,,,,,,,,,
,616f2006b4373ed092c75910,001,2022-04-29_03h00.07.794,classification_task,2021.2.3,Win32,60.0132029,616f2006b4373ed092c75910,626b377229c10585ec392f8a,626b3825e869e48ade68b1df,,,,,,,,,,,,,,,,,,,,,,,l,1,"[""0.031"",""0.188"",""0.730"",""0.690""]","[1,1,0,1]",0,63,63,63,1,1,1,,,0,FALSE,0.5116,,,,,,,,,,,,,,,,,,,,,,,,,,,,,,
,616f2006b4373ed092c75910,001,2022-04-29_03h00.07.794,classification_task,2021.2.3,Win32,60.0132029,616f2006b4373ed092c75910,626b377229c10585ec392f8a,626b3825e869e48ade68b1df,,,,,,,,,,,,,,,,,,,,,,,,,,,,,,,,,,,,,,,0, ,,0,0.590828924,127.0494,0,2,2,2,1,2,3,,,,,,,,,,,,,,,,,
,616f2006b4373ed092c75910,001,2022-04-29_03h00.07.794,classification_task,2021.2.3,Win32,60.0132029,616f2006b4373ed092c75910,626b377229c10585ec392f8a,626b3825e869e48ade68b1df,,,,,,,,,,,,,,,,,,,,,,,,,,,,,,,,,,,,,,,1,  ,,0,0.900848765,129.1833,0,2,2,2,1,2,3,,,,,,,,,,,,,,,,,
,616f2006b4373ed092c75910,001,2022-04-29_03h00.07.794,classification_task,2021.2.3,Win32,60.0132029,616f2006b4373ed092c75910,626b377229c10585ec392f8a,626b3825e869e48ade68b1df,,,,,,,,,,,,,,,,,,,,,,,,,,,,,,,,,,,,,,,2,  ,,0,0.521935626,130.8329,0,2,2,2,1,2,3,,,,,,,,,,,,,,,,,
,616f2006b4373ed092c75910,001,2022-04-29_03h00.07.794,classification_task,2021.2.3,Win32,60.0132029,616f2006b4373ed092c75910,626b377229c10585ec392f8a,626b3825e869e48ade68b1df,,,,,,,,,,,,,,,,,,,,,,,,,,,,,,,,,,,,,,,,,,,,,0,2,2,2,1,,3,,,,,,,,,,,,,,,,,
,616f2006b4373ed092c75910,001,2022-04-29_03h00.07.794,classification_task,2021.2.3,Win32,60.0132029,616f2006b4373ed092c75910,626b377229c10585ec392f8a,626b3825e869e48ade68b1df,,,,,,,,,,,,,,,,,,,,,,,,,,,,,,,,,,,,,,,,,,,,,,,,,,,,,I believe the aid is a competent performer,,0.7,0,3,825.7683,0,0,0,0,1,0,,,,
,616f2006b4373ed092c75910,001,2022-04-29_03h00.07.794,classification_task,2021.2.3,Win32,60.0132029,616f2006b4373ed092c75910,626b377229c10585ec392f8a,626b3825e869e48ade68b1df,,,,,,,,,,,,,,,,,,,,,,,,,,,,,,,,,,,,,,,,,,,,,,,,,,,,,I trust the aid,,0.7,0,3,823.2135,0,0,0,0,1,0,,,,
,616f2006b4373ed092c75910,001,2022-04-29_03h00.07.794,classification_task,2021.2.3,Win32,60.0132029,616f2006b4373ed092c75910,626b377229c10585ec392f8a,626b3825e869e48ade68b1df,,,,,,,,,,,,,,,,,,,,,,,,,,,,,,,,,,,,,,,,,,,,,,,,,,,,,I have confidence in the advice given by the aid,,0.7,0,4,831.4433,0,0,0,0,1,0,,,,
,616f2006b4373ed092c75910,001,2022-04-29_03h00.07.794,classification_task,2021.2.3,Win32,60.0132029,616f2006b4373ed092c75910,626b377229c10585ec392f8a,626b3825e869e48ade68b1df,,,,,,,,,,,,,,,,,,,,,,,,,,,,,,,,,,,,,,,,,,,,,,,,,,,,,I can depend on the aid,,0.7,0,4,834.7586,0,0,0,0,1,0,,,,
,616f2006b4373ed092c75910,001,2022-04-29_03h00.07.794,classification_task,2021.2.3,Win32,60.0132029,616f2006b4373ed092c75910,626b377229c10585ec392f8a,626b3825e869e48ade68b1df,,,,,,,,,,,,,,,,,,,,,,,,,,,,,,,,,,,,,,,,,,,,,,,,,,,,,I can rely on the aid to behave in consistent ways,,0.7,0,4,836.7072,0,0,0,0,1,0,,,,
,616f2006b4373ed092c75910,001,2022-04-29_03h00.07.794,classification_task,2021.2.3,Win32,60.0132029,616f2006b4373ed092c75910,626b377229c10585ec392f8a,626b3825e869e48ade68b1df,,,,,,,,,,,,,,,,,,,,,,,,,,,,,,,,,,,,,,,,,,,,,,,,,,,,,I can rely on the aid to do its best every time I take its advice,,0.7,0,4,840.6217,0,0,0,0,1,0,,,,
,616f2006b4373ed092c75910,001,2022-04-29_03h00.07.794,classification_task,2021.2.3,Win32,60.0132029,616f2006b4373ed092c75910,626b377229c10585ec392f8a,626b3825e869e48ade68b1df,,,,,,,,,,,,,,,,,,,,,,,,,,,,,,,,,,,,,,,,,,,,,,,,,,,,,"On trials you completed with assistance from the aid, how frequently did you think the aid was correct?",,0.7,0,50,,0,0,0,0,1,0,,,,
,616f2006b4373ed092c75910,001,2022-04-29_03h00.07.794,classification_task,2021.2.3,Win32,60.0132029,616f2006b4373ed092c75910,626b377229c10585ec392f8a,626b3825e869e48ade68b1df,,,,,,,,,,,,,,,,,,,,,,,,,,,,,,,,,,,,,,,,,,,,,,,,,,,,,"On trials you completed without the aid, how frequently did you think you were correct?",,0.7,0,80,,0,0,0,0,1,0,,,,
,616f2006b4373ed092c75910,001,2022-04-29_03h00.07.794,classification_task,2021.2.3,Win32,60.0132029,616f2006b4373ed092c75910,626b377229c10585ec392f8a,626b3825e869e48ade68b1df,,,,,,,,,,,,,,,,,,,,,,,,,,,,,,,,,,,,,,,,,,,,,,,,,,,,,,,,,,,0,0,0,0,1,,,,,
,616f2006b4373ed092c75910,001,2022-04-29_03h00.07.794,classification_task,2021.2.3,Win32,60.0132029,616f2006b4373ed092c75910,626b377229c10585ec392f8a,626b3825e869e48ade68b1df,,,,,,,,,,,,,,,,,,,,,,,,,,,,,,,,,,,,,,,,,,,,,,,,,,,,,,,,,,,,,,,,,space,7.9977,875.9577,
,616f2006b4373ed092c75910,001,2022-04-29_03h00.07.794,classification_task,2021.2.3,Win32,60.0132029,616f2006b4373ed092c75910,626b377229c10585ec392f8a,626b3825e869e48ade68b1df,,,,,,,,,,,,,,,,,,,,,,,,,,,,,,,,,,,,,,,,,,,,,,,,,,,,,,,,,,,,,,,,,,,,"Mozilla/5.0 (Windows NT 10.0; Win64; x64) AppleWebKit/537.36 (KHTML, like Gecko) Chrome/101.0.4951.41 Safari/537.36"
