usingWebGL,participant,session,date,expName,psychopyVersion,OS,frameRate,study_id,signatures_friend,signatures_foe,band_ranges_top,band_ranges_bottom,formitemText,formtype,formundefined,formitemWidth,formindex,formresponse,formrt,key_resp_2.keys,key_resp_2.rt,tute_resp.keys,tute_resp.rt,tutorial.thisRepN,tutorial.thisTrialN,tutorial.thisN,tutorial.thisIndex,tutorial.ran,key_resp_4.keys,key_resp_4.rt,key_resp.keys,key_resp.corr,key_resp.rt,lines_presented,is_signal_presented,trials.thisRepN,trials.thisTrialN,trials.thisN,trials.thisIndex,trials.ran,vessel,active_band,lines,is_signal,supported_pos,catch_trial,debrief_formindex,debrief_formitemText,debrief_formtype,debrief_formitemWidth,debrief_formresponse,debrief_formrt,phases.thisRepN,phases.thisTrialN,phases.thisN,phases.thisIndex,phases.ran,phases.order,phase,key_resp_3.keys,trustitemText,trusttype,trustitemWidth,trustindex,trustresponse,trustrt,support_status.thisRepN,support_status.thisTrialN,support_status.thisN,support_status.thisIndex,support_status.ran,support_status.order,key_resp_5.keys,key_resp_5.rt,globalClockTime,userAgent,manualCondition
TRUE,6170c9123edfc3ee296cda22,627c6939733d547a7ecbc414,2022-05-11_20h56.36.168,classification_task,2021.2.3,Win32,59.9880024,627c6715c52fd12f31907bcf,,,,,,,,,,,,,,,,,,,,,,,,,,,,,,,,,,,,,,,,,,,,,,,,,,,,,,,,,,,,,,,,,,,,,
,6170c9123edfc3ee296cda22,627c6939733d547a7ecbc414,2022-05-11_20h56.36.168,classification_task,2021.2.3,Win32,59.9880024,627c6715c52fd12f31907bcf,"[[""0.276"",""0.519"",""0.788"",""0.929""],[""0.183"",""0.410"",""0.753"",""0.892""]]","[[""0.103"",""0.142"",""0.464"",""0.699""],[""0.069"",""0.330"",""0.657"",""0.830""]]","[1,10]","[100,1000]",Video game experience,,,0.7,0,,,,,,,,,,,,,,,,,,,,,,,,,,,,,,,,,,,,,,,,,,,,,,,,,,,,,,,,,,,,
,6170c9123edfc3ee296cda22,627c6939733d547a7ecbc414,2022-05-11_20h56.36.168,classification_task,2021.2.3,Win32,59.9880024,627c6715c52fd12f31907bcf,,,,,Approximately how many hours did you spend playing video games in the last week?,,,0.7,0,2,,,,,,,,,,,,,,,,,,,,,,,,,,,,,,,,,,,,,,,,,,,,,,,,,,,,,,,,,,,
,6170c9123edfc3ee296cda22,627c6939733d547a7ecbc414,2022-05-11_20h56.36.168,classification_task,2021.2.3,Win32,59.9880024,627c6715c52fd12f31907bcf,,,,,"Which game did you play the most this year? (Enter ""None"" if you didn't play any)",,,0.7,0,Monster Hunter World,,,,,,,,,,,,,,,,,,,,,,,,,,,,,,,,,,,,,,,,,,,,,,,,,,,,,,,,,,,
,6170c9123edfc3ee296cda22,627c6939733d547a7ecbc414,2022-05-11_20h56.36.168,classification_task,2021.2.3,Win32,59.9880024,627c6715c52fd12f31907bcf,,,,,Visual perception,,,0.7,0,,,,,,,,,,,,,,,,,,,,,,,,,,,,,,,,,,,,,,,,,,,,,,,,,,,,,,,,,,,,
,6170c9123edfc3ee296cda22,627c6939733d547a7ecbc414,2022-05-11_20h56.36.168,classification_task,2021.2.3,Win32,59.9880024,627c6715c52fd12f31907bcf,,,,,Do you have any form of color blindness?,,,0.7,0,No,15.1781,,,,,,,,,,,,,,,,,,,,,,,,,,,,,,,,,,,,,,,,,,,,,,,,,,,,,,,,,,
,6170c9123edfc3ee296cda22,627c6939733d547a7ecbc414,2022-05-11_20h56.36.168,classification_task,2021.2.3,Win32,59.9880024,627c6715c52fd12f31907bcf,,,,,Do you use software to change the colour temperature of your screen (e.g. f.lux)?,,,0.7,0,No,17.6309,,,,,,,,,,,,,,,,,,,,,,,,,,,,,,,,,,,,,,,,,,,,,,,,,,,,,,,,,,
,6170c9123edfc3ee296cda22,627c6939733d547a7ecbc414,2022-05-11_20h56.36.168,classification_task,2021.2.3,Win32,59.9880024,627c6715c52fd12f31907bcf,,,,,,,,,,,,space,21.5217,space,6.9655,0,0,0,0,1,,,,,,,,,,,,,,,,,,,,,,,,,,,,,,,,,,,,,,,,,,,,,,,,,
,6170c9123edfc3ee296cda22,627c6939733d547a7ecbc414,2022-05-11_20h56.36.168,classification_task,2021.2.3,Win32,59.9880024,627c6715c52fd12f31907bcf,,,,,,,,,,,,,,space,6.5464,1,0,1,0,1,,,,,,,,,,,,,,,,,,,,,,,,,,,,,,,,,,,,,,,,,,,,,,,,,
,6170c9123edfc3ee296cda22,627c6939733d547a7ecbc414,2022-05-11_20h56.36.168,classification_task,2021.2.3,Win32,59.9880024,627c6715c52fd12f31907bcf,,,,,,,,,,,,,,space,18.4786,2,0,2,0,1,,,,,,,,,,,,,,,,,,,,,,,,,,,,,,,,,,,,,,,,,,,,,,,,,
,6170c9123edfc3ee296cda22,627c6939733d547a7ecbc414,2022-05-11_20h56.36.168,classification_task,2021.2.3,Win32,59.9880024,627c6715c52fd12f31907bcf,,,,,,,,,,,,,,space,5.9465,3,0,3,0,1,,,,,,,,,,,,,,,,,,,,,,,,,,,,,,,,,,,,,,,,,,,,,,,,,
,6170c9123edfc3ee296cda22,627c6939733d547a7ecbc414,2022-05-11_20h56.36.168,classification_task,2021.2.3,Win32,59.9880024,627c6715c52fd12f31907bcf,,,,,,,,,,,,,,space,24.8374,4,0,4,0,1,,,,,,,,,,,,,,,,,,,,,,,,,,,,,,,,,,,,,,,,,,,,,,,,,
,6170c9123edfc3ee296cda22,627c6939733d547a7ecbc414,2022-05-11_20h56.36.168,classification_task,2021.2.3,Win32,59.9880024,627c6715c52fd12f31907bcf,,,,,,,,,,,,,,,,,,,,,space,9.3769,l,1,2.8095,"[""0.069"",""0.330"",""0.576"",""0.830""]","[1,1,0,1]",0,0,0,0,1,1,1,,,0,FALSE,,,,,,,,,,,,,,,,,,,,,,,,,,,,,,,
,6170c9123edfc3ee296cda22,627c6939733d547a7ecbc414,2022-05-11_20h56.36.168,classification_task,2021.2.3,Win32,59.9880024,627c6715c52fd12f31907bcf,,,,,,,,,,,,,,,,,,,,,,,l,1,3.4588,"[""0.103"",""0.142"",""0.464"",""0.239""]","[1,1,1,0]",0,1,1,1,1,1,0,,,0,FALSE,,,,,,,,,,,,,,,,,,,,,,,,,,,,,,,
,6170c9123edfc3ee296cda22,627c6939733d547a7ecbc414,2022-05-11_20h56.36.168,classification_task,2021.2.3,Win32,59.9880024,627c6715c52fd12f31907bcf,,,,,,,,,,,,,,,,,,,,,,,l,1,3.1866,"[""0.069"",""0.330"",""0.657"",""0.612""]","[1,1,1,0]",0,2,2,2,1,1,1,,,0,FALSE,,,,,,,,,,,,,,,,,,,,,,,,,,,,,,,
,6170c9123edfc3ee296cda22,627c6939733d547a7ecbc414,2022-05-11_20h56.36.168,classification_task,2021.2.3,Win32,59.9880024,627c6715c52fd12f31907bcf,,,,,,,,,,,,,,,,,,,,,,,,0,,"[""0.183"",""0.964"",""0.753"",""0.892""]","[1,0,1,1]",0,3,3,3,1,0,1,,,0,FALSE,,,,,,,,,,,,,,,,,,,,,,,,,,,,,,,
,6170c9123edfc3ee296cda22,627c6939733d547a7ecbc414,2022-05-11_20h56.36.168,classification_task,2021.2.3,Win32,59.9880024,627c6715c52fd12f31907bcf,,,,,,,,,,,,,,,,,,,,,,,a,1,3.2994,"[""0.276"",""0.964"",""0.788"",""0.929""]","[1,0,1,1]",0,4,4,4,1,0,0,,,0,FALSE,,,,,,,,,,,,,,,,,,,,,,,,,,,,,,,
,6170c9123edfc3ee296cda22,627c6939733d547a7ecbc414,2022-05-11_20h56.36.168,classification_task,2021.2.3,Win32,59.9880024,627c6715c52fd12f31907bcf,,,,,,,,,,,,,,,,,,,,,,,a,0,5.7433,"[""0.238"",""0.330"",""0.657"",""0.830""]","[0,1,1,1]",0,5,5,5,1,1,1,,,0,FALSE,,,,,,,,,,,,,,,,,,,,,,,,,,,,,,,
,6170c9123edfc3ee296cda22,627c6939733d547a7ecbc414,2022-05-11_20h56.36.168,classification_task,2021.2.3,Win32,59.9880024,627c6715c52fd12f31907bcf,,,,,,,,,,,,,,,,,,,,,,,,0,,"[""0.970"",""0.142"",""0.464"",""0.699""]","[0,1,1,1]",0,6,6,6,1,1,0,,,0,FALSE,,,,,,,,,,,,,,,,,,,,,,,,,,,,,,,
,6170c9123edfc3ee296cda22,627c6939733d547a7ecbc414,2022-05-11_20h56.36.168,classification_task,2021.2.3,Win32,59.9880024,627c6715c52fd12f31907bcf,,,,,,,,,,,,,,,,,,,,,,,a,1,6.0307,"[""0.276"",""0.519"",""0.788"",""0.217""]","[1,1,1,0]",0,7,7,7,1,0,0,,,0,FALSE,,,,,,,,,,,,,,,,,,,,,,,,,,,,,,,
,6170c9123edfc3ee296cda22,627c6939733d547a7ecbc414,2022-05-11_20h56.36.168,classification_task,2021.2.3,Win32,59.9880024,627c6715c52fd12f31907bcf,,,,,,,,,,,,,,,,,,,,,,,l,1,8.2438,"[""0.103"",""0.028"",""0.464"",""0.699""]","[1,0,1,1]",0,8,8,8,1,1,0,,,0,FALSE,,,,,,,,,,,,,,,,,,,,,,,,,,,,,,,
,6170c9123edfc3ee296cda22,627c6939733d547a7ecbc414,2022-05-11_20h56.36.168,classification_task,2021.2.3,Win32,59.9880024,627c6715c52fd12f31907bcf,,,,,,,,,,,,,,,,,,,,,,,a,1,4.8348,"[""0.587"",""0.410"",""0.753"",""0.892""]","[0,1,1,1]",0,9,9,9,1,0,1,,,0,FALSE,,,,,,,,,,,,,,,,,,,,,,,,,,,,,,,
,6170c9123edfc3ee296cda22,627c6939733d547a7ecbc414,2022-05-11_20h56.36.168,classification_task,2021.2.3,Win32,59.9880024,627c6715c52fd12f31907bcf,,,,,,,,,,,,,,,,,,,,,,,a,1,5.2444,"[""0.964"",""0.519"",""0.788"",""0.929""]","[0,1,1,1]",0,10,10,10,1,0,0,,,0,FALSE,,,,,,,,,,,,,,,,,,,,,,,,,,,,,,,
,6170c9123edfc3ee296cda22,627c6939733d547a7ecbc414,2022-05-11_20h56.36.168,classification_task,2021.2.3,Win32,59.9880024,627c6715c52fd12f31907bcf,,,,,,,,,,,,,,,,,,,,,,,a,1,4.9234,"[""0.183"",""0.410"",""0.753"",""0.217""]","[1,1,1,0]",0,11,11,11,1,0,1,,,0,FALSE,,,,,,,,,,,,,,,,,,,,,,,,,,,,,,,
,6170c9123edfc3ee296cda22,627c6939733d547a7ecbc414,2022-05-11_20h56.36.168,classification_task,2021.2.3,Win32,59.9880024,627c6715c52fd12f31907bcf,,,,,,,,,,,,,,,,,,,,,,,l,1,2.6718,"[""0.103"",""0.142"",""0.964"",""0.699""]","[1,1,0,1]",0,12,12,12,1,1,0,,,0,FALSE,,,,,,,,,,,,,,,,,,,,,,,,,,,,,,,
,6170c9123edfc3ee296cda22,627c6939733d547a7ecbc414,2022-05-11_20h56.36.168,classification_task,2021.2.3,Win32,59.9880024,627c6715c52fd12f31907bcf,,,,,,,,,,,,,,,,,,,,,,,l,1,4.7104,"[""0.069"",""0.587"",""0.657"",""0.830""]","[1,0,1,1]",0,13,13,13,1,1,1,,,0,FALSE,,,,,,,,,,,,,,,,,,,,,,,,,,,,,,,
,6170c9123edfc3ee296cda22,627c6939733d547a7ecbc414,2022-05-11_20h56.36.168,classification_task,2021.2.3,Win32,59.9880024,627c6715c52fd12f31907bcf,,,,,,,,,,,,,,,,,,,,,,,a,1,4.1449,"[""0.183"",""0.410"",""0.217"",""0.892""]","[1,1,0,1]",0,14,14,14,1,0,1,,,0,FALSE,,,,,,,,,,,,,,,,,,,,,,,,,,,,,,,
,6170c9123edfc3ee296cda22,627c6939733d547a7ecbc414,2022-05-11_20h56.36.168,classification_task,2021.2.3,Win32,59.9880024,627c6715c52fd12f31907bcf,,,,,,,,,,,,,,,,,,,,,,,a,1,4.8322,"[""0.276"",""0.519"",""0.238"",""0.929""]","[1,1,0,1]",0,15,15,15,1,0,0,,,0,FALSE,,,,,,,,,,,,,,,,,,,,,,,,,,,,,,,
,6170c9123edfc3ee296cda22,627c6939733d547a7ecbc414,2022-05-11_20h56.36.168,classification_task,2021.2.3,Win32,59.9880024,627c6715c52fd12f31907bcf,,,,,,,,,,,,,,,,,,,,,,,l,1,2.1068,"[""0.103"",""0.142"",""0.464"",""0.030""]","[1,1,1,0]",0,16,16,16,1,1,0,,,0,FALSE,,,,,,,,,,,,,,,,,,,,,,,,,,,,,,,
,6170c9123edfc3ee296cda22,627c6939733d547a7ecbc414,2022-05-11_20h56.36.168,classification_task,2021.2.3,Win32,59.9880024,627c6715c52fd12f31907bcf,,,,,,,,,,,,,,,,,,,,,,,a,1,4.2288,"[""0.183"",""0.410"",""0.612"",""0.892""]","[1,1,0,1]",0,17,17,17,1,0,1,,,0,FALSE,,,,,,,,,,,,,,,,,,,,,,,,,,,,,,,
,6170c9123edfc3ee296cda22,627c6939733d547a7ecbc414,2022-05-11_20h56.36.168,classification_task,2021.2.3,Win32,59.9880024,627c6715c52fd12f31907bcf,,,,,,,,,,,,,,,,,,,,,,,l,1,4.9866,"[""0.612"",""0.142"",""0.464"",""0.699""]","[0,1,1,1]",0,18,18,18,1,1,0,,,0,FALSE,,,,,,,,,,,,,,,,,,,,,,,,,,,,,,,
,6170c9123edfc3ee296cda22,627c6939733d547a7ecbc414,2022-05-11_20h56.36.168,classification_task,2021.2.3,Win32,59.9880024,627c6715c52fd12f31907bcf,,,,,,,,,,,,,,,,,,,,,,,a,1,3.6591,"[""0.183"",""0.410"",""0.753"",""0.554""]","[1,1,1,0]",0,19,19,19,1,0,1,,,0,FALSE,,,,,,,,,,,,,,,,,,,,,,,,,,,,,,,
,6170c9123edfc3ee296cda22,627c6939733d547a7ecbc414,2022-05-11_20h56.36.168,classification_task,2021.2.3,Win32,59.9880024,627c6715c52fd12f31907bcf,,,,,,,,,,,,,,,,,,,,,,,a,1,3.5533,"[""0.964"",""0.410"",""0.753"",""0.892""]","[0,1,1,1]",0,20,20,20,1,0,1,,,0,FALSE,,,,,,,,,,,,,,,,,,,,,,,,,,,,,,,
,6170c9123edfc3ee296cda22,627c6939733d547a7ecbc414,2022-05-11_20h56.36.168,classification_task,2021.2.3,Win32,59.9880024,627c6715c52fd12f31907bcf,,,,,,,,,,,,,,,,,,,,,,,l,1,3.5093,"[""0.069"",""0.330"",""0.657"",""0.612""]","[1,1,1,0]",0,21,21,21,1,1,1,,,0,FALSE,,,,,,,,,,,,,,,,,,,,,,,,,,,,,,,
,6170c9123edfc3ee296cda22,627c6939733d547a7ecbc414,2022-05-11_20h56.36.168,classification_task,2021.2.3,Win32,59.9880024,627c6715c52fd12f31907bcf,,,,,,,,,,,,,,,,,,,,,,,a,1,3.4466,"[""0.183"",""0.964"",""0.753"",""0.892""]","[1,0,1,1]",0,22,22,22,1,0,1,,,0,FALSE,,,,,,,,,,,,,,,,,,,,,,,,,,,,,,,
,6170c9123edfc3ee296cda22,627c6939733d547a7ecbc414,2022-05-11_20h56.36.168,classification_task,2021.2.3,Win32,59.9880024,627c6715c52fd12f31907bcf,,,,,,,,,,,,,,,,,,,,,,,l,1,2.7078,"[""0.030"",""0.330"",""0.657"",""0.830""]","[0,1,1,1]",0,23,23,23,1,1,1,,,0,FALSE,,,,,,,,,,,,,,,,,,,,,,,,,,,,,,,
,6170c9123edfc3ee296cda22,627c6939733d547a7ecbc414,2022-05-11_20h56.36.168,classification_task,2021.2.3,Win32,59.9880024,627c6715c52fd12f31907bcf,,,,,,,,,,,,,,,,,,,,,,,a,1,4.5812,"[""0.276"",""0.569"",""0.788"",""0.929""]","[1,0,1,1]",0,24,24,24,1,0,0,,,0,FALSE,,,,,,,,,,,,,,,,,,,,,,,,,,,,,,,
,6170c9123edfc3ee296cda22,627c6939733d547a7ecbc414,2022-05-11_20h56.36.168,classification_task,2021.2.3,Win32,59.9880024,627c6715c52fd12f31907bcf,,,,,,,,,,,,,,,,,,,,,,,l,1,3.23,"[""0.069"",""0.330"",""0.576"",""0.830""]","[1,1,0,1]",0,25,25,25,1,1,1,,,0,FALSE,,,,,,,,,,,,,,,,,,,,,,,,,,,,,,,
,6170c9123edfc3ee296cda22,627c6939733d547a7ecbc414,2022-05-11_20h56.36.168,classification_task,2021.2.3,Win32,59.9880024,627c6715c52fd12f31907bcf,,,,,,,,,,,,,,,,,,,,,,,l,1,3.4497,"[""0.103"",""0.142"",""0.618"",""0.699""]","[1,1,0,1]",0,26,26,26,1,1,0,,,0,FALSE,,,,,,,,,,,,,,,,,,,,,,,,,,,,,,,
,6170c9123edfc3ee296cda22,627c6939733d547a7ecbc414,2022-05-11_20h56.36.168,classification_task,2021.2.3,Win32,59.9880024,627c6715c52fd12f31907bcf,,,,,,,,,,,,,,,,,,,,,,,a,1,3.4569,"[""0.276"",""0.519"",""0.554"",""0.929""]","[1,1,0,1]",0,27,27,27,1,0,0,,,0,FALSE,,,,,,,,,,,,,,,,,,,,,,,,,,,,,,,
,6170c9123edfc3ee296cda22,627c6939733d547a7ecbc414,2022-05-11_20h56.36.168,classification_task,2021.2.3,Win32,59.9880024,627c6715c52fd12f31907bcf,,,,,,,,,,,,,,,,,,,,,,,a,1,3.7101,"[""0.371"",""0.519"",""0.788"",""0.929""]","[0,1,1,1]",0,28,28,28,1,0,0,,,0,FALSE,,,,,,,,,,,,,,,,,,,,,,,,,,,,,,,
,6170c9123edfc3ee296cda22,627c6939733d547a7ecbc414,2022-05-11_20h56.36.168,classification_task,2021.2.3,Win32,59.9880024,627c6715c52fd12f31907bcf,,,,,,,,,,,,,,,,,,,,,,,l,1,2.5854,"[""0.069"",""0.612"",""0.657"",""0.830""]","[1,0,1,1]",0,29,29,29,1,1,1,,,0,FALSE,,,,,,,,,,,,,,,,,,,,,,,,,,,,,,,
,6170c9123edfc3ee296cda22,627c6939733d547a7ecbc414,2022-05-11_20h56.36.168,classification_task,2021.2.3,Win32,59.9880024,627c6715c52fd12f31907bcf,,,,,,,,,,,,,,,,,,,,,,,l,1,2.9402,"[""0.103"",""0.217"",""0.464"",""0.699""]","[1,0,1,1]",0,30,30,30,1,1,0,,,0,FALSE,,,,,,,,,,,,,,,,,,,,,,,,,,,,,,,
,6170c9123edfc3ee296cda22,627c6939733d547a7ecbc414,2022-05-11_20h56.36.168,classification_task,2021.2.3,Win32,59.9880024,627c6715c52fd12f31907bcf,,,,,,,,,,,,,,,,,,,,,,,a,1,3.9706,"[""0.276"",""0.519"",""0.788"",""0.618""]","[1,1,1,0]",0,31,31,31,1,0,0,,,0,FALSE,,,,,,,,,,,,,,,,,,,,,,,,,,,,,,,
,6170c9123edfc3ee296cda22,627c6939733d547a7ecbc414,2022-05-11_20h56.36.168,classification_task,2021.2.3,Win32,59.9880024,627c6715c52fd12f31907bcf,,,,,,,,,,,,,,,,,,,,,,,,0,,"[""0.276"",""0.519"",""0.788"",""0.217""]","[1,1,1,0]",0,32,32,32,1,0,0,,,0,FALSE,,,,,,,,,,,,,,,,,,,,,,,,,,,,,,,
,6170c9123edfc3ee296cda22,627c6939733d547a7ecbc414,2022-05-11_20h56.36.168,classification_task,2021.2.3,Win32,59.9880024,627c6715c52fd12f31907bcf,,,,,,,,,,,,,,,,,,,,,,,l,0,4.6548,"[""0.587"",""0.519"",""0.788"",""0.929""]","[0,1,1,1]",0,33,33,33,1,0,0,,,0,FALSE,,,,,,,,,,,,,,,,,,,,,,,,,,,,,,,
,6170c9123edfc3ee296cda22,627c6939733d547a7ecbc414,2022-05-11_20h56.36.168,classification_task,2021.2.3,Win32,59.9880024,627c6715c52fd12f31907bcf,,,,,,,,,,,,,,,,,,,,,,,l,0,2.3832,"[""0.183"",""0.410"",""0.028"",""0.892""]","[1,1,0,1]",0,34,34,34,1,0,1,,,0,FALSE,,,,,,,,,,,,,,,,,,,,,,,,,,,,,,,
,6170c9123edfc3ee296cda22,627c6939733d547a7ecbc414,2022-05-11_20h56.36.168,classification_task,2021.2.3,Win32,59.9880024,627c6715c52fd12f31907bcf,,,,,,,,,,,,,,,,,,,,,,,l,1,2.9655,"[""0.622"",""0.330"",""0.657"",""0.830""]","[0,1,1,1]",0,35,35,35,1,1,1,,,0,FALSE,,,,,,,,,,,,,,,,,,,,,,,,,,,,,,,
,6170c9123edfc3ee296cda22,627c6939733d547a7ecbc414,2022-05-11_20h56.36.168,classification_task,2021.2.3,Win32,59.9880024,627c6715c52fd12f31907bcf,,,,,,,,,,,,,,,,,,,,,,,a,0,1.0602,"[""0.103"",""0.142"",""0.622"",""0.699""]","[1,1,0,1]",0,36,36,36,1,1,0,,,0,FALSE,,,,,,,,,,,,,,,,,,,,,,,,,,,,,,,
,6170c9123edfc3ee296cda22,627c6939733d547a7ecbc414,2022-05-11_20h56.36.168,classification_task,2021.2.3,Win32,59.9880024,627c6715c52fd12f31907bcf,,,,,,,,,,,,,,,,,,,,,,,a,1,0.8334,"[""0.276"",""0.618"",""0.788"",""0.929""]","[1,0,1,1]",0,37,37,37,1,0,0,,,0,FALSE,,,,,,,,,,,,,,,,,,,,,,,,,,,,,,,
,6170c9123edfc3ee296cda22,627c6939733d547a7ecbc414,2022-05-11_20h56.36.168,classification_task,2021.2.3,Win32,59.9880024,627c6715c52fd12f31907bcf,,,,,,,,,,,,,,,,,,,,,,,l,1,1.5398,"[""0.069"",""0.030"",""0.657"",""0.830""]","[1,0,1,1]",0,38,38,38,1,1,1,,,0,FALSE,,,,,,,,,,,,,,,,,,,,,,,,,,,,,,,
,6170c9123edfc3ee296cda22,627c6939733d547a7ecbc414,2022-05-11_20h56.36.168,classification_task,2021.2.3,Win32,59.9880024,627c6715c52fd12f31907bcf,,,,,,,,,,,,,,,,,,,,,,,a,1,1.6838,"[""0.276"",""0.519"",""0.964"",""0.929""]","[1,1,0,1]",0,39,39,39,1,0,0,,,0,FALSE,,,,,,,,,,,,,,,,,,,,,,,,,,,,,,,
,6170c9123edfc3ee296cda22,627c6939733d547a7ecbc414,2022-05-11_20h56.36.168,classification_task,2021.2.3,Win32,59.9880024,627c6715c52fd12f31907bcf,,,,,,,,,,,,,,,,,,,,,,,a,1,2.1904,"[""0.183"",""0.587"",""0.753"",""0.892""]","[1,0,1,1]",0,40,40,40,1,0,1,,,0,FALSE,,,,,,,,,,,,,,,,,,,,,,,,,,,,,,,
,6170c9123edfc3ee296cda22,627c6939733d547a7ecbc414,2022-05-11_20h56.36.168,classification_task,2021.2.3,Win32,59.9880024,627c6715c52fd12f31907bcf,,,,,,,,,,,,,,,,,,,,,,,l,1,1.2866,"[""0.103"",""0.576"",""0.464"",""0.699""]","[1,0,1,1]",0,41,41,41,1,1,0,,,0,FALSE,,,,,,,,,,,,,,,,,,,,,,,,,,,,,,,
,6170c9123edfc3ee296cda22,627c6939733d547a7ecbc414,2022-05-11_20h56.36.168,classification_task,2021.2.3,Win32,59.9880024,627c6715c52fd12f31907bcf,,,,,,,,,,,,,,,,,,,,,,,a,0,1.603,"[""0.103"",""0.142"",""0.464"",""0.238""]","[1,1,1,0]",0,42,42,42,1,1,0,,,0,FALSE,,,,,,,,,,,,,,,,,,,,,,,,,,,,,,,
,6170c9123edfc3ee296cda22,627c6939733d547a7ecbc414,2022-05-11_20h56.36.168,classification_task,2021.2.3,Win32,59.9880024,627c6715c52fd12f31907bcf,,,,,,,,,,,,,,,,,,,,,,,a,0,0.8943,"[""0.217"",""0.142"",""0.464"",""0.699""]","[0,1,1,1]",0,43,43,43,1,1,0,,,0,FALSE,,,,,,,,,,,,,,,,,,,,,,,,,,,,,,,
,6170c9123edfc3ee296cda22,627c6939733d547a7ecbc414,2022-05-11_20h56.36.168,classification_task,2021.2.3,Win32,59.9880024,627c6715c52fd12f31907bcf,,,,,,,,,,,,,,,,,,,,,,,a,1,2.5989,"[""0.183"",""0.410"",""0.753"",""0.618""]","[1,1,1,0]",0,44,44,44,1,0,1,,,0,FALSE,,,,,,,,,,,,,,,,,,,,,,,,,,,,,,,
,6170c9123edfc3ee296cda22,627c6939733d547a7ecbc414,2022-05-11_20h56.36.168,classification_task,2021.2.3,Win32,59.9880024,627c6715c52fd12f31907bcf,,,,,,,,,,,,,,,,,,,,,,,a,1,1.3141,"[""0.576"",""0.410"",""0.753"",""0.892""]","[0,1,1,1]",0,45,45,45,1,0,1,,,0,FALSE,,,,,,,,,,,,,,,,,,,,,,,,,,,,,,,
,6170c9123edfc3ee296cda22,627c6939733d547a7ecbc414,2022-05-11_20h56.36.168,classification_task,2021.2.3,Win32,59.9880024,627c6715c52fd12f31907bcf,,,,,,,,,,,,,,,,,,,,,,,l,1,1.8691,"[""0.069"",""0.330"",""0.657"",""0.612""]","[1,1,1,0]",0,46,46,46,1,1,1,,,0,FALSE,,,,,,,,,,,,,,,,,,,,,,,,,,,,,,,
,6170c9123edfc3ee296cda22,627c6939733d547a7ecbc414,2022-05-11_20h56.36.168,classification_task,2021.2.3,Win32,59.9880024,627c6715c52fd12f31907bcf,,,,,,,,,,,,,,,,,,,,,,,l,1,1.0828,"[""0.069"",""0.330"",""0.028"",""0.830""]","[1,1,0,1]",0,47,47,47,1,1,1,,,0,FALSE,,,,,,,,,,,,,,,,,,,,,,,,,,,,,,,
,6170c9123edfc3ee296cda22,627c6939733d547a7ecbc414,2022-05-11_20h56.36.168,classification_task,2021.2.3,Win32,59.9880024,627c6715c52fd12f31907bcf,,,,,,,,,,,,,,,,,,,,,,,l,1,3.3596,"[""0.069"",""0.569"",""0.657"",""0.830""]","[1,0,1,1]",0,48,48,48,1,1,1,,,0,FALSE,,,,,,,,,,,,,,,,,,,,,,,,,,,,,,,
,6170c9123edfc3ee296cda22,627c6939733d547a7ecbc414,2022-05-11_20h56.36.168,classification_task,2021.2.3,Win32,59.9880024,627c6715c52fd12f31907bcf,,,,,,,,,,,,,,,,,,,,,,,a,1,0.9452,"[""0.276"",""0.217"",""0.788"",""0.929""]","[1,0,1,1]",0,49,49,49,1,0,0,,,0,FALSE,,,,,,,,,,,,,,,,,,,,,,,,,,,,,,,
,6170c9123edfc3ee296cda22,627c6939733d547a7ecbc414,2022-05-11_20h56.36.168,classification_task,2021.2.3,Win32,59.9880024,627c6715c52fd12f31907bcf,,,,,,,,,,,,,,,,,,,,,,,a,1,3.0614,"[""0.028"",""0.410"",""0.753"",""0.892""]","[0,1,1,1]",0,50,50,50,1,0,1,,,0,FALSE,,,,,,,,,,,,,,,,,,,,,,,,,,,,,,,
,6170c9123edfc3ee296cda22,627c6939733d547a7ecbc414,2022-05-11_20h56.36.168,classification_task,2021.2.3,Win32,59.9880024,627c6715c52fd12f31907bcf,,,,,,,,,,,,,,,,,,,,,,,a,1,2.8268,"[""0.183"",""0.410"",""0.217"",""0.892""]","[1,1,0,1]",0,51,51,51,1,0,1,,,0,FALSE,,,,,,,,,,,,,,,,,,,,,,,,,,,,,,,
,6170c9123edfc3ee296cda22,627c6939733d547a7ecbc414,2022-05-11_20h56.36.168,classification_task,2021.2.3,Win32,59.9880024,627c6715c52fd12f31907bcf,,,,,,,,,,,,,,,,,,,,,,,l,1,2.7155,"[""0.587"",""0.330"",""0.657"",""0.830""]","[0,1,1,1]",0,52,52,52,1,1,1,,,0,FALSE,,,,,,,,,,,,,,,,,,,,,,,,,,,,,,,
,6170c9123edfc3ee296cda22,627c6939733d547a7ecbc414,2022-05-11_20h56.36.168,classification_task,2021.2.3,Win32,59.9880024,627c6715c52fd12f31907bcf,,,,,,,,,,,,,,,,,,,,,,,a,1,1.7432,"[""0.612"",""0.519"",""0.788"",""0.929""]","[0,1,1,1]",0,53,53,53,1,0,0,,,0,FALSE,,,,,,,,,,,,,,,,,,,,,,,,,,,,,,,
,6170c9123edfc3ee296cda22,627c6939733d547a7ecbc414,2022-05-11_20h56.36.168,classification_task,2021.2.3,Win32,59.9880024,627c6715c52fd12f31907bcf,,,,,,,,,,,,,,,,,,,,,,,l,1,2.401,"[""0.069"",""0.330"",""0.657"",""0.970""]","[1,1,1,0]",0,54,54,54,1,1,1,,,0,FALSE,,,,,,,,,,,,,,,,,,,,,,,,,,,,,,,
,6170c9123edfc3ee296cda22,627c6939733d547a7ecbc414,2022-05-11_20h56.36.168,classification_task,2021.2.3,Win32,59.9880024,627c6715c52fd12f31907bcf,,,,,,,,,,,,,,,,,,,,,,,a,1,1.5165,"[""0.276"",""0.519"",""0.569"",""0.929""]","[1,1,0,1]",0,55,55,55,1,0,0,,,0,FALSE,,,,,,,,,,,,,,,,,,,,,,,,,,,,,,,
,6170c9123edfc3ee296cda22,627c6939733d547a7ecbc414,2022-05-11_20h56.36.168,classification_task,2021.2.3,Win32,59.9880024,627c6715c52fd12f31907bcf,,,,,,,,,,,,,,,,,,,,,,,l,1,1.147,"[""0.103"",""0.142"",""0.464"",""0.217""]","[1,1,1,0]",0,56,56,56,1,1,0,,,0,FALSE,,,,,,,,,,,,,,,,,,,,,,,,,,,,,,,
,6170c9123edfc3ee296cda22,627c6939733d547a7ecbc414,2022-05-11_20h56.36.168,classification_task,2021.2.3,Win32,59.9880024,627c6715c52fd12f31907bcf,,,,,,,,,,,,,,,,,,,,,,,a,1,4.1455,"[""0.183"",""0.410"",""0.753"",""0.612""]","[1,1,1,0]",0,57,57,57,1,0,1,,,0,FALSE,,,,,,,,,,,,,,,,,,,,,,,,,,,,,,,
,6170c9123edfc3ee296cda22,627c6939733d547a7ecbc414,2022-05-11_20h56.36.168,classification_task,2021.2.3,Win32,59.9880024,627c6715c52fd12f31907bcf,,,,,,,,,,,,,,,,,,,,,,,l,1,2.8395,"[""0.964"",""0.142"",""0.464"",""0.699""]","[0,1,1,1]",0,58,58,58,1,1,0,,,0,FALSE,,,,,,,,,,,,,,,,,,,,,,,,,,,,,,,
,6170c9123edfc3ee296cda22,627c6939733d547a7ecbc414,2022-05-11_20h56.36.168,classification_task,2021.2.3,Win32,59.9880024,627c6715c52fd12f31907bcf,,,,,,,,,,,,,,,,,,,,,,,l,1,2.8466,"[""0.103"",""0.612"",""0.464"",""0.699""]","[1,0,1,1]",0,59,59,59,1,1,0,,,0,FALSE,,,,,,,,,,,,,,,,,,,,,,,,,,,,,,,
,6170c9123edfc3ee296cda22,627c6939733d547a7ecbc414,2022-05-11_20h56.36.168,classification_task,2021.2.3,Win32,59.9880024,627c6715c52fd12f31907bcf,,,,,,,,,,,,,,,,,,,,,,,l,1,1.0596,"[""0.103"",""0.142"",""0.618"",""0.699""]","[1,1,0,1]",0,60,60,60,1,1,0,,,0,FALSE,,,,,,,,,,,,,,,,,,,,,,,,,,,,,,,
,6170c9123edfc3ee296cda22,627c6939733d547a7ecbc414,2022-05-11_20h56.36.168,classification_task,2021.2.3,Win32,59.9880024,627c6715c52fd12f31907bcf,,,,,,,,,,,,,,,,,,,,,,,l,1,2.4617,"[""0.069"",""0.330"",""0.217"",""0.830""]","[1,1,0,1]",0,61,61,61,1,1,1,,,0,FALSE,,,,,,,,,,,,,,,,,,,,,,,,,,,,,,,
,6170c9123edfc3ee296cda22,627c6939733d547a7ecbc414,2022-05-11_20h56.36.168,classification_task,2021.2.3,Win32,59.9880024,627c6715c52fd12f31907bcf,,,,,,,,,,,,,,,,,,,,,,,a,1,2.0718,"[""0.183"",""0.028"",""0.753"",""0.892""]","[1,0,1,1]",0,62,62,62,1,0,1,,,0,FALSE,,,,,,,,,,,,,,,,,,,,,,,,,,,,,,,
,6170c9123edfc3ee296cda22,627c6939733d547a7ecbc414,2022-05-11_20h56.36.168,classification_task,2021.2.3,Win32,59.9880024,627c6715c52fd12f31907bcf,,,,,,,,,,,,,,,,,,,,,,,a,1,3.5451,"[""0.276"",""0.519"",""0.788"",""0.612""]","[1,1,1,0]",0,63,63,63,1,0,0,,,0,FALSE,,,,,,,,,,,,,,,,,,,,,,,,,,,,,,,
,6170c9123edfc3ee296cda22,627c6939733d547a7ecbc414,2022-05-11_20h56.36.168,classification_task,2021.2.3,Win32,59.9880024,627c6715c52fd12f31907bcf,,,,,,,,,,,,,,,,,,,,,,,,,,,,,,,,,,,,,,,0, ,,0,0.315255732,420.7615,0,0,0,0,1,2,1,,,,,,,,,,,,,,,,,,
,6170c9123edfc3ee296cda22,627c6939733d547a7ecbc414,2022-05-11_20h56.36.168,classification_task,2021.2.3,Win32,59.9880024,627c6715c52fd12f31907bcf,,,,,,,,,,,,,,,,,,,,,,,,,,,,,,,,,,,,,,,1,  ,,0,5.930059524,428.2921,0,0,0,0,1,2,1,,,,,,,,,,,,,,,,,,
,6170c9123edfc3ee296cda22,627c6939733d547a7ecbc414,2022-05-11_20h56.36.168,classification_task,2021.2.3,Win32,59.9880024,627c6715c52fd12f31907bcf,,,,,,,,,,,,,,,,,,,,,,,,,,,,,,,,,,,,,,,2,  ,,0,4.207727072,434.0547,0,0,0,0,1,2,1,,,,,,,,,,,,,,,,,,
,6170c9123edfc3ee296cda22,627c6939733d547a7ecbc414,2022-05-11_20h56.36.168,classification_task,2021.2.3,Win32,59.9880024,627c6715c52fd12f31907bcf,,,,,,,,,,,,,,,,,,,,,,,,,,,,,,,,,,,,,,,,,,,,,0,0,0,0,1,,1,,,,,,,,,,,,,,,,,,
,6170c9123edfc3ee296cda22,627c6939733d547a7ecbc414,2022-05-11_20h56.36.168,classification_task,2021.2.3,Win32,59.9880024,627c6715c52fd12f31907bcf,,,,,,,,,,,,,,,,,,,,,space,14.8138,a,1,2.5494,"[""0.183"",""0.410"",""0.753"",""0.612""]","[1,1,1,0]",0,0,0,0,1,0,1,,,0,FALSE,,,,,,,,,,,,,,,,,,,,,,,,,,,,,,,
,6170c9123edfc3ee296cda22,627c6939733d547a7ecbc414,2022-05-11_20h56.36.168,classification_task,2021.2.3,Win32,59.9880024,627c6715c52fd12f31907bcf,,,,,,,,,,,,,,,,,,,,,,,a,1,2.5311,"[""0.276"",""0.587"",""0.788"",""0.929""]","[1,0,1,1]",0,1,1,1,1,0,0,,,0,FALSE,,,,,,,,,,,,,,,,,,,,,,,,,,,,,,,
,6170c9123edfc3ee296cda22,627c6939733d547a7ecbc414,2022-05-11_20h56.36.168,classification_task,2021.2.3,Win32,59.9880024,627c6715c52fd12f31907bcf,,,,,,,,,,,,,,,,,,,,,,,l,1,1.4284,"[""0.069"",""0.964"",""0.657"",""0.830""]","[1,0,1,1]",0,2,2,2,1,1,1,,,0,FALSE,,,,,,,,,,,,,,,,,,,,,,,,,,,,,,,
,6170c9123edfc3ee296cda22,627c6939733d547a7ecbc414,2022-05-11_20h56.36.168,classification_task,2021.2.3,Win32,59.9880024,627c6715c52fd12f31907bcf,,,,,,,,,,,,,,,,,,,,,,,l,1,1.1055,"[""0.103"",""0.142"",""0.464"",""0.569""]","[1,1,1,0]",0,3,3,3,1,1,0,,,0,FALSE,,,,,,,,,,,,,,,,,,,,,,,,,,,,,,,
,6170c9123edfc3ee296cda22,627c6939733d547a7ecbc414,2022-05-11_20h56.36.168,classification_task,2021.2.3,Win32,59.9880024,627c6715c52fd12f31907bcf,,,,,,,,,,,,,,,,,,,,,,,l,1,2.4687,"[""0.103"",""0.622"",""0.464"",""0.699""]","[1,0,1,1]",0,4,4,4,1,1,0,,,0,FALSE,,,,,,,,,,,,,,,,,,,,,,,,,,,,,,,
,6170c9123edfc3ee296cda22,627c6939733d547a7ecbc414,2022-05-11_20h56.36.168,classification_task,2021.2.3,Win32,59.9880024,627c6715c52fd12f31907bcf,,,,,,,,,,,,,,,,,,,,,,,l,1,2.9056,"[""0.964"",""0.330"",""0.657"",""0.830""]","[0,1,1,1]",0,5,5,5,1,1,1,,,0,FALSE,,,,,,,,,,,,,,,,,,,,,,,,,,,,,,,
,6170c9123edfc3ee296cda22,627c6939733d547a7ecbc414,2022-05-11_20h56.36.168,classification_task,2021.2.3,Win32,59.9880024,627c6715c52fd12f31907bcf,,,,,,,,,,,,,,,,,,,,,,,l,0,0.9385,"[""0.183"",""0.028"",""0.753"",""0.892""]","[1,0,1,1]",0,6,6,6,1,0,1,,,0,FALSE,,,,,,,,,,,,,,,,,,,,,,,,,,,,,,,
,6170c9123edfc3ee296cda22,627c6939733d547a7ecbc414,2022-05-11_20h56.36.168,classification_task,2021.2.3,Win32,59.9880024,627c6715c52fd12f31907bcf,,,,,,,,,,,,,,,,,,,,,,,l,1,2.1351,"[""0.069"",""0.330"",""0.657"",""0.238""]","[1,1,1,0]",0,7,7,7,1,1,1,,,0,FALSE,,,,,,,,,,,,,,,,,,,,,,,,,,,,,,,
,6170c9123edfc3ee296cda22,627c6939733d547a7ecbc414,2022-05-11_20h56.36.168,classification_task,2021.2.3,Win32,59.9880024,627c6715c52fd12f31907bcf,,,,,,,,,,,,,,,,,,,,,,,a,1,1.2005,"[""0.183"",""0.410"",""0.554"",""0.892""]","[1,1,0,1]",0,8,8,8,1,0,1,,,0,FALSE,,,,,,,,,,,,,,,,,,,,,,,,,,,,,,,
,6170c9123edfc3ee296cda22,627c6939733d547a7ecbc414,2022-05-11_20h56.36.168,classification_task,2021.2.3,Win32,59.9880024,627c6715c52fd12f31907bcf,,,,,,,,,,,,,,,,,,,,,,,l,1,1.4495,"[""0.069"",""0.330"",""0.587"",""0.830""]","[1,1,0,1]",0,9,9,9,1,1,1,,,0,FALSE,,,,,,,,,,,,,,,,,,,,,,,,,,,,,,,
,6170c9123edfc3ee296cda22,627c6939733d547a7ecbc414,2022-05-11_20h56.36.168,classification_task,2021.2.3,Win32,59.9880024,627c6715c52fd12f31907bcf,,,,,,,,,,,,,,,,,,,,,,,a,1,1.5302,"[""0.569"",""0.519"",""0.788"",""0.929""]","[0,1,1,1]",0,10,10,10,1,0,0,,,0,FALSE,,,,,,,,,,,,,,,,,,,,,,,,,,,,,,,
,6170c9123edfc3ee296cda22,627c6939733d547a7ecbc414,2022-05-11_20h56.36.168,classification_task,2021.2.3,Win32,59.9880024,627c6715c52fd12f31907bcf,,,,,,,,,,,,,,,,,,,,,,,l,0,2.6665,"[""0.276"",""0.519"",""0.788"",""0.030""]","[1,1,1,0]",0,11,11,11,1,0,0,,,0,FALSE,,,,,,,,,,,,,,,,,,,,,,,,,,,,,,,
,6170c9123edfc3ee296cda22,627c6939733d547a7ecbc414,2022-05-11_20h56.36.168,classification_task,2021.2.3,Win32,59.9880024,627c6715c52fd12f31907bcf,,,,,,,,,,,,,,,,,,,,,,,a,1,1.4258,"[""0.622"",""0.410"",""0.753"",""0.892""]","[0,1,1,1]",0,12,12,12,1,0,1,,,0,FALSE,,,,,,,,,,,,,,,,,,,,,,,,,,,,,,,
,6170c9123edfc3ee296cda22,627c6939733d547a7ecbc414,2022-05-11_20h56.36.168,classification_task,2021.2.3,Win32,59.9880024,627c6715c52fd12f31907bcf,,,,,,,,,,,,,,,,,,,,,,,l,1,3.8985,"[""0.618"",""0.142"",""0.464"",""0.699""]","[0,1,1,1]",0,13,13,13,1,1,0,,,0,FALSE,,,,,,,,,,,,,,,,,,,,,,,,,,,,,,,
,6170c9123edfc3ee296cda22,627c6939733d547a7ecbc414,2022-05-11_20h56.36.168,classification_task,2021.2.3,Win32,59.9880024,627c6715c52fd12f31907bcf,,,,,,,,,,,,,,,,,,,,,,,l,1,0.9167,"[""0.103"",""0.142"",""0.569"",""0.699""]","[1,1,0,1]",0,14,14,14,1,1,0,,,0,FALSE,,,,,,,,,,,,,,,,,,,,,,,,,,,,,,,
,6170c9123edfc3ee296cda22,627c6939733d547a7ecbc414,2022-05-11_20h56.36.168,classification_task,2021.2.3,Win32,59.9880024,627c6715c52fd12f31907bcf,,,,,,,,,,,,,,,,,,,,,,,a,1,0.995,"[""0.276"",""0.519"",""0.554"",""0.929""]","[1,1,0,1]",0,15,15,15,1,0,0,,,0,FALSE,,,,,,,,,,,,,,,,,,,,,,,,,,,,,,,
,6170c9123edfc3ee296cda22,627c6939733d547a7ecbc414,2022-05-11_20h56.36.168,classification_task,2021.2.3,Win32,59.9880024,627c6715c52fd12f31907bcf,,,,,,,,,,,,,,,,,,,,,,,l,1,2.0663,"[""0.371"",""0.142"",""0.464"",""0.699""]","[0,1,1,1]",0,16,16,16,1,1,0,,,0,FALSE,,,,,,,,,,,,,,,,,,,,,,,,,,,,,,,
,6170c9123edfc3ee296cda22,627c6939733d547a7ecbc414,2022-05-11_20h56.36.168,classification_task,2021.2.3,Win32,59.9880024,627c6715c52fd12f31907bcf,,,,,,,,,,,,,,,,,,,,,,,l,1,0.9459,"[""0.103"",""0.142"",""0.464"",""0.970""]","[1,1,1,0]",0,17,17,17,1,1,0,,,0,FALSE,,,,,,,,,,,,,,,,,,,,,,,,,,,,,,,
,6170c9123edfc3ee296cda22,627c6939733d547a7ecbc414,2022-05-11_20h56.36.168,classification_task,2021.2.3,Win32,59.9880024,627c6715c52fd12f31907bcf,,,,,,,,,,,,,,,,,,,,,,,l,1,2.1886,"[""0.069"",""0.330"",""0.618"",""0.830""]","[1,1,0,1]",0,18,18,18,1,1,1,,,0,FALSE,,,,,,,,,,,,,,,,,,,,,,,,,,,,,,,
,6170c9123edfc3ee296cda22,627c6939733d547a7ecbc414,2022-05-11_20h56.36.168,classification_task,2021.2.3,Win32,59.9880024,627c6715c52fd12f31907bcf,,,,,,,,,,,,,,,,,,,,,,,l,1,1.572,"[""0.103"",""0.371"",""0.464"",""0.699""]","[1,0,1,1]",0,19,19,19,1,1,0,,,0,FALSE,,,,,,,,,,,,,,,,,,,,,,,,,,,,,,,
,6170c9123edfc3ee296cda22,627c6939733d547a7ecbc414,2022-05-11_20h56.36.168,classification_task,2021.2.3,Win32,59.9880024,627c6715c52fd12f31907bcf,,,,,,,,,,,,,,,,,,,,,,,l,0,1.3815,"[""0.183"",""0.410"",""0.030"",""0.892""]","[1,1,0,1]",0,20,20,20,1,0,1,,,0,FALSE,,,,,,,,,,,,,,,,,,,,,,,,,,,,,,,
,6170c9123edfc3ee296cda22,627c6939733d547a7ecbc414,2022-05-11_20h56.36.168,classification_task,2021.2.3,Win32,59.9880024,627c6715c52fd12f31907bcf,,,,,,,,,,,,,,,,,,,,,,,a,1,3.891,"[""0.276"",""0.964"",""0.788"",""0.929""]","[1,0,1,1]",0,21,21,21,1,0,0,,,0,FALSE,,,,,,,,,,,,,,,,,,,,,,,,,,,,,,,
,6170c9123edfc3ee296cda22,627c6939733d547a7ecbc414,2022-05-11_20h56.36.168,classification_task,2021.2.3,Win32,59.9880024,627c6715c52fd12f31907bcf,,,,,,,,,,,,,,,,,,,,,,,l,1,0.8387,"[""0.069"",""0.330"",""0.657"",""0.030""]","[1,1,1,0]",0,22,22,22,1,1,1,,,0,FALSE,,,,,,,,,,,,,,,,,,,,,,,,,,,,,,,
,6170c9123edfc3ee296cda22,627c6939733d547a7ecbc414,2022-05-11_20h56.36.168,classification_task,2021.2.3,Win32,59.9880024,627c6715c52fd12f31907bcf,,,,,,,,,,,,,,,,,,,,,,,a,1,1.5653,"[""0.612"",""0.519"",""0.788"",""0.929""]","[0,1,1,1]",0,23,23,23,1,0,0,,,0,FALSE,,,,,,,,,,,,,,,,,,,,,,,,,,,,,,,
,6170c9123edfc3ee296cda22,627c6939733d547a7ecbc414,2022-05-11_20h56.36.168,classification_task,2021.2.3,Win32,59.9880024,627c6715c52fd12f31907bcf,,,,,,,,,,,,,,,,,,,,,,,a,1,1.5079,"[""0.276"",""0.519"",""0.964"",""0.929""]","[1,1,0,1]",0,24,24,24,1,0,0,,,0,FALSE,,,,,,,,,,,,,,,,,,,,,,,,,,,,,,,
,6170c9123edfc3ee296cda22,627c6939733d547a7ecbc414,2022-05-11_20h56.36.168,classification_task,2021.2.3,Win32,59.9880024,627c6715c52fd12f31907bcf,,,,,,,,,,,,,,,,,,,,,,,a,1,1.5147,"[""0.217"",""0.410"",""0.753"",""0.892""]","[0,1,1,1]",0,25,25,25,1,0,1,,,0,FALSE,,,,,,,,,,,,,,,,,,,,,,,,,,,,,,,
,6170c9123edfc3ee296cda22,627c6939733d547a7ecbc414,2022-05-11_20h56.36.168,classification_task,2021.2.3,Win32,59.9880024,627c6715c52fd12f31907bcf,,,,,,,,,,,,,,,,,,,,,,,l,1,1.0556,"[""0.103"",""0.142"",""0.554"",""0.699""]","[1,1,0,1]",0,26,26,26,1,1,0,,,0,FALSE,,,,,,,,,,,,,,,,,,,,,,,,,,,,,,,
,6170c9123edfc3ee296cda22,627c6939733d547a7ecbc414,2022-05-11_20h56.36.168,classification_task,2021.2.3,Win32,59.9880024,627c6715c52fd12f31907bcf,,,,,,,,,,,,,,,,,,,,,,,a,1,2.68,"[""0.276"",""0.519"",""0.788"",""0.554""]","[1,1,1,0]",0,27,27,27,1,0,0,,,0,FALSE,,,,,,,,,,,,,,,,,,,,,,,,,,,,,,,
,6170c9123edfc3ee296cda22,627c6939733d547a7ecbc414,2022-05-11_20h56.36.168,classification_task,2021.2.3,Win32,59.9880024,627c6715c52fd12f31907bcf,,,,,,,,,,,,,,,,,,,,,,,a,1,1.5423,"[""0.183"",""0.238"",""0.753"",""0.892""]","[1,0,1,1]",0,28,28,28,1,0,1,,,0,FALSE,,,,,,,,,,,,,,,,,,,,,,,,,,,,,,,
,6170c9123edfc3ee296cda22,627c6939733d547a7ecbc414,2022-05-11_20h56.36.168,classification_task,2021.2.3,Win32,59.9880024,627c6715c52fd12f31907bcf,,,,,,,,,,,,,,,,,,,,,,,l,1,1.5706,"[""0.964"",""0.330"",""0.657"",""0.830""]","[0,1,1,1]",0,29,29,29,1,1,1,,,0,FALSE,,,,,,,,,,,,,,,,,,,,,,,,,,,,,,,
,6170c9123edfc3ee296cda22,627c6939733d547a7ecbc414,2022-05-11_20h56.36.168,classification_task,2021.2.3,Win32,59.9880024,627c6715c52fd12f31907bcf,,,,,,,,,,,,,,,,,,,,,,,l,1,2.0488,"[""0.069"",""0.622"",""0.657"",""0.830""]","[1,0,1,1]",0,30,30,30,1,1,1,,,0,FALSE,,,,,,,,,,,,,,,,,,,,,,,,,,,,,,,
,6170c9123edfc3ee296cda22,627c6939733d547a7ecbc414,2022-05-11_20h56.36.168,classification_task,2021.2.3,Win32,59.9880024,627c6715c52fd12f31907bcf,,,,,,,,,,,,,,,,,,,,,,,a,1,1.925,"[""0.183"",""0.410"",""0.753"",""0.612""]","[1,1,1,0]",0,31,31,31,1,0,1,,,0,FALSE,,,,,,,,,,,,,,,,,,,,,,,,,,,,,,,
,6170c9123edfc3ee296cda22,627c6939733d547a7ecbc414,2022-05-11_20h56.36.168,classification_task,2021.2.3,Win32,59.9880024,627c6715c52fd12f31907bcf,,,,,,,,,,,,,,,,,,,,,,,a,1,1.6554,"[""0.183"",""0.410"",""0.753"",""0.569""]","[1,1,1,0]",0,32,32,32,1,0,1,,,0,FALSE,,,,,,,,,,,,,,,,,,,,,,,,,,,,,,,
,6170c9123edfc3ee296cda22,627c6939733d547a7ecbc414,2022-05-11_20h56.36.168,classification_task,2021.2.3,Win32,59.9880024,627c6715c52fd12f31907bcf,,,,,,,,,,,,,,,,,,,,,,,a,1,1.1869,"[""0.183"",""0.410"",""0.612"",""0.892""]","[1,1,0,1]",0,33,33,33,1,0,1,,,0,FALSE,,,,,,,,,,,,,,,,,,,,,,,,,,,,,,,
,6170c9123edfc3ee296cda22,627c6939733d547a7ecbc414,2022-05-11_20h56.36.168,classification_task,2021.2.3,Win32,59.9880024,627c6715c52fd12f31907bcf,,,,,,,,,,,,,,,,,,,,,,,a,1,1.6165,"[""0.183"",""0.569"",""0.753"",""0.892""]","[1,0,1,1]",0,34,34,34,1,0,1,,,0,FALSE,,,,,,,,,,,,,,,,,,,,,,,,,,,,,,,
,6170c9123edfc3ee296cda22,627c6939733d547a7ecbc414,2022-05-11_20h56.36.168,classification_task,2021.2.3,Win32,59.9880024,627c6715c52fd12f31907bcf,,,,,,,,,,,,,,,,,,,,,,,a,1,2.4142,"[""0.276"",""0.519"",""0.788"",""0.217""]","[1,1,1,0]",0,35,35,35,1,0,0,,,0,FALSE,,,,,,,,,,,,,,,,,,,,,,,,,,,,,,,
,6170c9123edfc3ee296cda22,627c6939733d547a7ecbc414,2022-05-11_20h56.36.168,classification_task,2021.2.3,Win32,59.9880024,627c6715c52fd12f31907bcf,,,,,,,,,,,,,,,,,,,,,,,l,1,0.9473,"[""0.069"",""0.330"",""0.657"",""0.239""]","[1,1,1,0]",0,36,36,36,1,1,1,,,0,FALSE,,,,,,,,,,,,,,,,,,,,,,,,,,,,,,,
,6170c9123edfc3ee296cda22,627c6939733d547a7ecbc414,2022-05-11_20h56.36.168,classification_task,2021.2.3,Win32,59.9880024,627c6715c52fd12f31907bcf,,,,,,,,,,,,,,,,,,,,,,,l,1,1.6879,"[""0.554"",""0.142"",""0.464"",""0.699""]","[0,1,1,1]",0,37,37,37,1,1,0,,,0,FALSE,,,,,,,,,,,,,,,,,,,,,,,,,,,,,,,
,6170c9123edfc3ee296cda22,627c6939733d547a7ecbc414,2022-05-11_20h56.36.168,classification_task,2021.2.3,Win32,59.9880024,627c6715c52fd12f31907bcf,,,,,,,,,,,,,,,,,,,,,,,l,1,0.9481,"[""0.103"",""0.142"",""0.464"",""0.238""]","[1,1,1,0]",0,38,38,38,1,1,0,,,0,FALSE,,,,,,,,,,,,,,,,,,,,,,,,,,,,,,,
,6170c9123edfc3ee296cda22,627c6939733d547a7ecbc414,2022-05-11_20h56.36.168,classification_task,2021.2.3,Win32,59.9880024,627c6715c52fd12f31907bcf,,,,,,,,,,,,,,,,,,,,,,,a,1,1.0177,"[""0.622"",""0.519"",""0.788"",""0.929""]","[0,1,1,1]",0,39,39,39,1,0,0,,,0,FALSE,,,,,,,,,,,,,,,,,,,,,,,,,,,,,,,
,6170c9123edfc3ee296cda22,627c6939733d547a7ecbc414,2022-05-11_20h56.36.168,classification_task,2021.2.3,Win32,59.9880024,627c6715c52fd12f31907bcf,,,,,,,,,,,,,,,,,,,,,,,a,1,0.8663,"[""0.276"",""0.519"",""0.554"",""0.929""]","[1,1,0,1]",0,40,40,40,1,0,0,,,0,FALSE,,,,,,,,,,,,,,,,,,,,,,,,,,,,,,,
,6170c9123edfc3ee296cda22,627c6939733d547a7ecbc414,2022-05-11_20h56.36.168,classification_task,2021.2.3,Win32,59.9880024,627c6715c52fd12f31907bcf,,,,,,,,,,,,,,,,,,,,,,,a,1,0.8535,"[""0.276"",""0.028"",""0.788"",""0.929""]","[1,0,1,1]",0,41,41,41,1,0,0,,,0,FALSE,,,,,,,,,,,,,,,,,,,,,,,,,,,,,,,
,6170c9123edfc3ee296cda22,627c6939733d547a7ecbc414,2022-05-11_20h56.36.168,classification_task,2021.2.3,Win32,59.9880024,627c6715c52fd12f31907bcf,,,,,,,,,,,,,,,,,,,,,,,l,1,1.0151,"[""0.069"",""0.612"",""0.657"",""0.830""]","[1,0,1,1]",0,42,42,42,1,1,1,,,0,FALSE,,,,,,,,,,,,,,,,,,,,,,,,,,,,,,,
,6170c9123edfc3ee296cda22,627c6939733d547a7ecbc414,2022-05-11_20h56.36.168,classification_task,2021.2.3,Win32,59.9880024,627c6715c52fd12f31907bcf,,,,,,,,,,,,,,,,,,,,,,,l,1,0.8326,"[""0.103"",""0.142"",""0.030"",""0.699""]","[1,1,0,1]",0,43,43,43,1,1,0,,,0,FALSE,,,,,,,,,,,,,,,,,,,,,,,,,,,,,,,
,6170c9123edfc3ee296cda22,627c6939733d547a7ecbc414,2022-05-11_20h56.36.168,classification_task,2021.2.3,Win32,59.9880024,627c6715c52fd12f31907bcf,,,,,,,,,,,,,,,,,,,,,,,l,1,1.7646,"[""0.103"",""0.612"",""0.464"",""0.699""]","[1,0,1,1]",0,44,44,44,1,1,0,,,0,FALSE,,,,,,,,,,,,,,,,,,,,,,,,,,,,,,,
,6170c9123edfc3ee296cda22,627c6939733d547a7ecbc414,2022-05-11_20h56.36.168,classification_task,2021.2.3,Win32,59.9880024,627c6715c52fd12f31907bcf,,,,,,,,,,,,,,,,,,,,,,,a,0,1.0447,"[""0.239"",""0.330"",""0.657"",""0.830""]","[0,1,1,1]",0,45,45,45,1,1,1,,,0,FALSE,,,,,,,,,,,,,,,,,,,,,,,,,,,,,,,
,6170c9123edfc3ee296cda22,627c6939733d547a7ecbc414,2022-05-11_20h56.36.168,classification_task,2021.2.3,Win32,59.9880024,627c6715c52fd12f31907bcf,,,,,,,,,,,,,,,,,,,,,,,a,1,0.8669,"[""0.554"",""0.410"",""0.753"",""0.892""]","[0,1,1,1]",0,46,46,46,1,0,1,,,0,FALSE,,,,,,,,,,,,,,,,,,,,,,,,,,,,,,,
,6170c9123edfc3ee296cda22,627c6939733d547a7ecbc414,2022-05-11_20h56.36.168,classification_task,2021.2.3,Win32,59.9880024,627c6715c52fd12f31907bcf,,,,,,,,,,,,,,,,,,,,,,,l,1,0.9751,"[""0.069"",""0.330"",""0.612"",""0.830""]","[1,1,0,1]",0,47,47,47,1,1,1,,,0,FALSE,,,,,,,,,,,,,,,,,,,,,,,,,,,,,,,
,6170c9123edfc3ee296cda22,627c6939733d547a7ecbc414,2022-05-11_20h56.36.168,classification_task,2021.2.3,Win32,59.9880024,627c6715c52fd12f31907bcf,,,,,,,,,,,,,,,,,,,,,,,l,1,2.0332,"[""0.069"",""0.330"",""0.970"",""0.830""]","[1,1,0,1]",0,48,48,48,1,1,1,,,0,FALSE,,,,,,,,,,,,,,,,,,,,,,,,,,,,,,,
,6170c9123edfc3ee296cda22,627c6939733d547a7ecbc414,2022-05-11_20h56.36.168,classification_task,2021.2.3,Win32,59.9880024,627c6715c52fd12f31907bcf,,,,,,,,,,,,,,,,,,,,,,,l,0,0.967,"[""0.183"",""0.964"",""0.753"",""0.892""]","[1,0,1,1]",0,49,49,49,1,0,1,,,0,FALSE,,,,,,,,,,,,,,,,,,,,,,,,,,,,,,,
,6170c9123edfc3ee296cda22,627c6939733d547a7ecbc414,2022-05-11_20h56.36.168,classification_task,2021.2.3,Win32,59.9880024,627c6715c52fd12f31907bcf,,,,,,,,,,,,,,,,,,,,,,,l,1,3.1261,"[""0.103"",""0.142"",""0.028"",""0.699""]","[1,1,0,1]",0,50,50,50,1,1,0,,,0,FALSE,,,,,,,,,,,,,,,,,,,,,,,,,,,,,,,
,6170c9123edfc3ee296cda22,627c6939733d547a7ecbc414,2022-05-11_20h56.36.168,classification_task,2021.2.3,Win32,59.9880024,627c6715c52fd12f31907bcf,,,,,,,,,,,,,,,,,,,,,,,a,1,1.1428,"[""0.612"",""0.410"",""0.753"",""0.892""]","[0,1,1,1]",0,51,51,51,1,0,1,,,0,FALSE,,,,,,,,,,,,,,,,,,,,,,,,,,,,,,,
,6170c9123edfc3ee296cda22,627c6939733d547a7ecbc414,2022-05-11_20h56.36.168,classification_task,2021.2.3,Win32,59.9880024,627c6715c52fd12f31907bcf,,,,,,,,,,,,,,,,,,,,,,,l,1,1.2812,"[""0.069"",""0.618"",""0.657"",""0.830""]","[1,0,1,1]",0,52,52,52,1,1,1,,,0,FALSE,,,,,,,,,,,,,,,,,,,,,,,,,,,,,,,
,6170c9123edfc3ee296cda22,627c6939733d547a7ecbc414,2022-05-11_20h56.36.168,classification_task,2021.2.3,Win32,59.9880024,627c6715c52fd12f31907bcf,,,,,,,,,,,,,,,,,,,,,,,a,1,1.1822,"[""0.183"",""0.410"",""0.753"",""0.554""]","[1,1,1,0]",0,53,53,53,1,0,1,,,0,FALSE,,,,,,,,,,,,,,,,,,,,,,,,,,,,,,,
,6170c9123edfc3ee296cda22,627c6939733d547a7ecbc414,2022-05-11_20h56.36.168,classification_task,2021.2.3,Win32,59.9880024,627c6715c52fd12f31907bcf,,,,,,,,,,,,,,,,,,,,,,,a,0,1.767,"[""0.028"",""0.142"",""0.464"",""0.699""]","[0,1,1,1]",0,54,54,54,1,1,0,,,0,FALSE,,,,,,,,,,,,,,,,,,,,,,,,,,,,,,,
,6170c9123edfc3ee296cda22,627c6939733d547a7ecbc414,2022-05-11_20h56.36.168,classification_task,2021.2.3,Win32,59.9880024,627c6715c52fd12f31907bcf,,,,,,,,,,,,,,,,,,,,,,,l,1,0.7294,"[""0.103"",""0.142"",""0.464"",""0.569""]","[1,1,1,0]",0,55,55,55,1,1,0,,,0,FALSE,,,,,,,,,,,,,,,,,,,,,,,,,,,,,,,
,6170c9123edfc3ee296cda22,627c6939733d547a7ecbc414,2022-05-11_20h56.36.168,classification_task,2021.2.3,Win32,59.9880024,627c6715c52fd12f31907bcf,,,,,,,,,,,,,,,,,,,,,,,a,1,2.0163,"[""0.276"",""0.519"",""0.788"",""0.964""]","[1,1,1,0]",0,56,56,56,1,0,0,,,0,FALSE,,,,,,,,,,,,,,,,,,,,,,,,,,,,,,,
,6170c9123edfc3ee296cda22,627c6939733d547a7ecbc414,2022-05-11_20h56.36.168,classification_task,2021.2.3,Win32,59.9880024,627c6715c52fd12f31907bcf,,,,,,,,,,,,,,,,,,,,,,,a,1,1.1944,"[""0.276"",""0.587"",""0.788"",""0.929""]","[1,0,1,1]",0,57,57,57,1,0,0,,,0,FALSE,,,,,,,,,,,,,,,,,,,,,,,,,,,,,,,
,6170c9123edfc3ee296cda22,627c6939733d547a7ecbc414,2022-05-11_20h56.36.168,classification_task,2021.2.3,Win32,59.9880024,627c6715c52fd12f31907bcf,,,,,,,,,,,,,,,,,,,,,,,l,1,1.4127,"[""0.103"",""0.587"",""0.464"",""0.699""]","[1,0,1,1]",0,58,58,58,1,1,0,,,0,FALSE,,,,,,,,,,,,,,,,,,,,,,,,,,,,,,,
,6170c9123edfc3ee296cda22,627c6939733d547a7ecbc414,2022-05-11_20h56.36.168,classification_task,2021.2.3,Win32,59.9880024,627c6715c52fd12f31907bcf,,,,,,,,,,,,,,,,,,,,,,,a,0,1.14,"[""0.554"",""0.330"",""0.657"",""0.830""]","[0,1,1,1]",0,59,59,59,1,1,1,,,0,FALSE,,,,,,,,,,,,,,,,,,,,,,,,,,,,,,,
,6170c9123edfc3ee296cda22,627c6939733d547a7ecbc414,2022-05-11_20h56.36.168,classification_task,2021.2.3,Win32,59.9880024,627c6715c52fd12f31907bcf,,,,,,,,,,,,,,,,,,,,,,,a,1,1.1218,"[""0.276"",""0.519"",""0.239"",""0.929""]","[1,1,0,1]",0,60,60,60,1,0,0,,,0,FALSE,,,,,,,,,,,,,,,,,,,,,,,,,,,,,,,
,6170c9123edfc3ee296cda22,627c6939733d547a7ecbc414,2022-05-11_20h56.36.168,classification_task,2021.2.3,Win32,59.9880024,627c6715c52fd12f31907bcf,,,,,,,,,,,,,,,,,,,,,,,a,1,1.1348,"[""0.238"",""0.519"",""0.788"",""0.929""]","[0,1,1,1]",0,61,61,61,1,0,0,,,0,FALSE,,,,,,,,,,,,,,,,,,,,,,,,,,,,,,,
,6170c9123edfc3ee296cda22,627c6939733d547a7ecbc414,2022-05-11_20h56.36.168,classification_task,2021.2.3,Win32,59.9880024,627c6715c52fd12f31907bcf,,,,,,,,,,,,,,,,,,,,,,,l,0,1.6079,"[""0.183"",""0.410"",""0.970"",""0.892""]","[1,1,0,1]",0,62,62,62,1,0,1,,,0,FALSE,,,,,,,,,,,,,,,,,,,,,,,,,,,,,,,
,6170c9123edfc3ee296cda22,627c6939733d547a7ecbc414,2022-05-11_20h56.36.168,classification_task,2021.2.3,Win32,59.9880024,627c6715c52fd12f31907bcf,,,,,,,,,,,,,,,,,,,,,,,l,1,1.4336,"[""0.069"",""0.330"",""0.657"",""0.612""]","[1,1,1,0]",0,63,63,63,1,1,1,,,0,FALSE,,,,,,,,,,,,,,,,,,,,,,,,,,,,,,,
,6170c9123edfc3ee296cda22,627c6939733d547a7ecbc414,2022-05-11_20h56.36.168,classification_task,2021.2.3,Win32,59.9880024,627c6715c52fd12f31907bcf,,,,,,,,,,,,,,,,,,,,,,,,,,,,,,,,,,,,,,,0, ,,0,4.448853616,186.4995,0,1,1,1,1,2,2,,,,,,,,,,,,,,,,,,
,6170c9123edfc3ee296cda22,627c6939733d547a7ecbc414,2022-05-11_20h56.36.168,classification_task,2021.2.3,Win32,59.9880024,627c6715c52fd12f31907bcf,,,,,,,,,,,,,,,,,,,,,,,,,,,,,,,,,,,,,,,1,  ,,0,7.204585538,189.0818,0,1,1,1,1,2,2,,,,,,,,,,,,,,,,,,
,6170c9123edfc3ee296cda22,627c6939733d547a7ecbc414,2022-05-11_20h56.36.168,classification_task,2021.2.3,Win32,59.9880024,627c6715c52fd12f31907bcf,,,,,,,,,,,,,,,,,,,,,,,,,,,,,,,,,,,,,,,2,  ,,0,6.550099206,191.3458,0,1,1,1,1,2,2,,,,,,,,,,,,,,,,,,
,6170c9123edfc3ee296cda22,627c6939733d547a7ecbc414,2022-05-11_20h56.36.168,classification_task,2021.2.3,Win32,59.9880024,627c6715c52fd12f31907bcf,,,,,,,,,,,,,,,,,,,,,,,,,,,,,,,,,,,,,,,,,,,,,0,1,1,1,1,,2,,,,,,,,,,,,,,,,,,
,6170c9123edfc3ee296cda22,627c6939733d547a7ecbc414,2022-05-11_20h56.36.168,classification_task,2021.2.3,Win32,59.9880024,627c6715c52fd12f31907bcf,,,,,,,,,,,,,,,,,,,,,space,5.055,l,0,2.3828,"[""0.276"",""0.519"",""0.970"",""0.929""]","[1,1,0,1]",0,0,0,0,1,0,0,,,0,FALSE,,,,,,,,,,,,,,,,,,,,,,,,,,,,,,,
,6170c9123edfc3ee296cda22,627c6939733d547a7ecbc414,2022-05-11_20h56.36.168,classification_task,2021.2.3,Win32,59.9880024,627c6715c52fd12f31907bcf,,,,,,,,,,,,,,,,,,,,,,,a,1,3.3495,"[""0.276"",""0.519"",""0.788"",""0.239""]","[1,1,1,0]",0,1,1,1,1,0,0,,,0,FALSE,,,,,,,,,,,,,,,,,,,,,,,,,,,,,,,
,6170c9123edfc3ee296cda22,627c6939733d547a7ecbc414,2022-05-11_20h56.36.168,classification_task,2021.2.3,Win32,59.9880024,627c6715c52fd12f31907bcf,,,,,,,,,,,,,,,,,,,,,,,l,1,6.6273,"[""0.238"",""0.330"",""0.657"",""0.830""]","[0,1,1,1]",0,2,2,2,1,1,1,,,0,FALSE,,,,,,,,,,,,,,,,,,,,,,,,,,,,,,,
,6170c9123edfc3ee296cda22,627c6939733d547a7ecbc414,2022-05-11_20h56.36.168,classification_task,2021.2.3,Win32,59.9880024,627c6715c52fd12f31907bcf,,,,,,,,,,,,,,,,,,,,,,,a,1,2.3938,"[""0.276"",""0.028"",""0.788"",""0.929""]","[1,0,1,1]",0,3,3,3,1,0,0,,,0,FALSE,,,,,,,,,,,,,,,,,,,,,,,,,,,,,,,
,6170c9123edfc3ee296cda22,627c6939733d547a7ecbc414,2022-05-11_20h56.36.168,classification_task,2021.2.3,Win32,59.9880024,627c6715c52fd12f31907bcf,,,,,,,,,,,,,,,,,,,,,,,l,1,1.0741,"[""0.103"",""0.142"",""0.371"",""0.699""]","[1,1,0,1]",0,4,4,4,1,1,0,,,0,FALSE,,,,,,,,,,,,,,,,,,,,,,,,,,,,,,,
,6170c9123edfc3ee296cda22,627c6939733d547a7ecbc414,2022-05-11_20h56.36.168,classification_task,2021.2.3,Win32,59.9880024,627c6715c52fd12f31907bcf,,,,,,,,,,,,,,,,,,,,,,,a,1,1.0374,"[""0.183"",""0.410"",""0.964"",""0.892""]","[1,1,0,1]",0,5,5,5,1,0,1,,,0,FALSE,,,,,,,,,,,,,,,,,,,,,,,,,,,,,,,
,6170c9123edfc3ee296cda22,627c6939733d547a7ecbc414,2022-05-11_20h56.36.168,classification_task,2021.2.3,Win32,59.9880024,627c6715c52fd12f31907bcf,,,,,,,,,,,,,,,,,,,,,,,l,1,1.4442,"[""0.103"",""0.569"",""0.464"",""0.699""]","[1,0,1,1]",0,6,6,6,1,1,0,,,0,FALSE,,,,,,,,,,,,,,,,,,,,,,,,,,,,,,,
,6170c9123edfc3ee296cda22,627c6939733d547a7ecbc414,2022-05-11_20h56.36.168,classification_task,2021.2.3,Win32,59.9880024,627c6715c52fd12f31907bcf,,,,,,,,,,,,,,,,,,,,,,,a,1,3.0799,"[""0.183"",""0.238"",""0.753"",""0.892""]","[1,0,1,1]",0,7,7,7,1,0,1,,,0,FALSE,,,,,,,,,,,,,,,,,,,,,,,,,,,,,,,
,6170c9123edfc3ee296cda22,627c6939733d547a7ecbc414,2022-05-11_20h56.36.168,classification_task,2021.2.3,Win32,59.9880024,627c6715c52fd12f31907bcf,,,,,,,,,,,,,,,,,,,,,,,l,1,3.4953,"[""0.069"",""0.330"",""0.569"",""0.830""]","[1,1,0,1]",0,8,8,8,1,1,1,,,0,FALSE,,,,,,,,,,,,,,,,,,,,,,,,,,,,,,,
,6170c9123edfc3ee296cda22,627c6939733d547a7ecbc414,2022-05-11_20h56.36.168,classification_task,2021.2.3,Win32,59.9880024,627c6715c52fd12f31907bcf,,,,,,,,,,,,,,,,,,,,,,,a,1,1.8633,"[""0.576"",""0.519"",""0.788"",""0.929""]","[0,1,1,1]",0,9,9,9,1,0,0,,,0,FALSE,,,,,,,,,,,,,,,,,,,,,,,,,,,,,,,
,6170c9123edfc3ee296cda22,627c6939733d547a7ecbc414,2022-05-11_20h56.36.168,classification_task,2021.2.3,Win32,59.9880024,627c6715c52fd12f31907bcf,,,,,,,,,,,,,,,,,,,,,,,a,1,3.5156,"[""0.238"",""0.410"",""0.753"",""0.892""]","[0,1,1,1]",0,10,10,10,1,0,1,,,0,FALSE,,,,,,,,,,,,,,,,,,,,,,,,,,,,,,,
,6170c9123edfc3ee296cda22,627c6939733d547a7ecbc414,2022-05-11_20h56.36.168,classification_task,2021.2.3,Win32,59.9880024,627c6715c52fd12f31907bcf,,,,,,,,,,,,,,,,,,,,,,,l,1,1.204,"[""0.103"",""0.142"",""0.464"",""0.238""]","[1,1,1,0]",0,11,11,11,1,1,0,,,0,FALSE,,,,,,,,,,,,,,,,,,,,,,,,,,,,,,,
,6170c9123edfc3ee296cda22,627c6939733d547a7ecbc414,2022-05-11_20h56.36.168,classification_task,2021.2.3,Win32,59.9880024,627c6715c52fd12f31907bcf,,,,,,,,,,,,,,,,,,,,,,,l,1,2.7816,"[""0.069"",""0.330"",""0.657"",""0.618""]","[1,1,1,0]",0,12,12,12,1,1,1,,,0,FALSE,,,,,,,,,,,,,,,,,,,,,,,,,,,,,,,
,6170c9123edfc3ee296cda22,627c6939733d547a7ecbc414,2022-05-11_20h56.36.168,classification_task,2021.2.3,Win32,59.9880024,627c6715c52fd12f31907bcf,,,,,,,,,,,,,,,,,,,,,,,a,1,1.3566,"[""0.183"",""0.410"",""0.753"",""0.612""]","[1,1,1,0]",0,13,13,13,1,0,1,,,0,FALSE,,,,,,,,,,,,,,,,,,,,,,,,,,,,,,,
,6170c9123edfc3ee296cda22,627c6939733d547a7ecbc414,2022-05-11_20h56.36.168,classification_task,2021.2.3,Win32,59.9880024,627c6715c52fd12f31907bcf,,,,,,,,,,,,,,,,,,,,,,,l,1,2.5617,"[""0.970"",""0.142"",""0.464"",""0.699""]","[0,1,1,1]",0,14,14,14,1,1,0,,,0,FALSE,,,,,,,,,,,,,,,,,,,,,,,,,,,,,,,
,6170c9123edfc3ee296cda22,627c6939733d547a7ecbc414,2022-05-11_20h56.36.168,classification_task,2021.2.3,Win32,59.9880024,627c6715c52fd12f31907bcf,,,,,,,,,,,,,,,,,,,,,,,l,1,2.3532,"[""0.069"",""0.612"",""0.657"",""0.830""]","[1,0,1,1]",0,15,15,15,1,1,1,,,0,FALSE,,,,,,,,,,,,,,,,,,,,,,,,,,,,,,,
,6170c9123edfc3ee296cda22,627c6939733d547a7ecbc414,2022-05-11_20h56.36.168,classification_task,2021.2.3,Win32,59.9880024,627c6715c52fd12f31907bcf,,,,,,,,,,,,,,,,,,,,,,,l,1,2.2969,"[""0.970"",""0.142"",""0.464"",""0.699""]","[0,1,1,1]",0,16,16,16,1,1,0,,,0,FALSE,,,,,,,,,,,,,,,,,,,,,,,,,,,,,,,
,6170c9123edfc3ee296cda22,627c6939733d547a7ecbc414,2022-05-11_20h56.36.168,classification_task,2021.2.3,Win32,59.9880024,627c6715c52fd12f31907bcf,,,,,,,,,,,,,,,,,,,,,,,l,1,1.3008,"[""0.103"",""0.142"",""0.622"",""0.699""]","[1,1,0,1]",0,17,17,17,1,1,0,,,0,FALSE,,,,,,,,,,,,,,,,,,,,,,,,,,,,,,,
,6170c9123edfc3ee296cda22,627c6939733d547a7ecbc414,2022-05-11_20h56.36.168,classification_task,2021.2.3,Win32,59.9880024,627c6715c52fd12f31907bcf,,,,,,,,,,,,,,,,,,,,,,,l,1,3.0799,"[""0.069"",""0.330"",""0.657"",""0.238""]","[1,1,1,0]",0,18,18,18,1,1,1,,,0,FALSE,,,,,,,,,,,,,,,,,,,,,,,,,,,,,,,
,6170c9123edfc3ee296cda22,627c6939733d547a7ecbc414,2022-05-11_20h56.36.168,classification_task,2021.2.3,Win32,59.9880024,627c6715c52fd12f31907bcf,,,,,,,,,,,,,,,,,,,,,,,a,1,1.0164,"[""0.183"",""0.410"",""0.753"",""0.612""]","[1,1,1,0]",0,19,19,19,1,0,1,,,0,FALSE,,,,,,,,,,,,,,,,,,,,,,,,,,,,,,,
,6170c9123edfc3ee296cda22,627c6939733d547a7ecbc414,2022-05-11_20h56.36.168,classification_task,2021.2.3,Win32,59.9880024,627c6715c52fd12f31907bcf,,,,,,,,,,,,,,,,,,,,,,,a,1,1.7822,"[""0.964"",""0.519"",""0.788"",""0.929""]","[0,1,1,1]",0,20,20,20,1,0,0,,,0,FALSE,,,,,,,,,,,,,,,,,,,,,,,,,,,,,,,
,6170c9123edfc3ee296cda22,627c6939733d547a7ecbc414,2022-05-11_20h56.36.168,classification_task,2021.2.3,Win32,59.9880024,627c6715c52fd12f31907bcf,,,,,,,,,,,,,,,,,,,,,,,a,1,4.0792,"[""0.276"",""0.612"",""0.788"",""0.929""]","[1,0,1,1]",0,21,21,21,1,0,0,,,0,FALSE,,,,,,,,,,,,,,,,,,,,,,,,,,,,,,,
,6170c9123edfc3ee296cda22,627c6939733d547a7ecbc414,2022-05-11_20h56.36.168,classification_task,2021.2.3,Win32,59.9880024,627c6715c52fd12f31907bcf,,,,,,,,,,,,,,,,,,,,,,,l,1,2.236,"[""0.069"",""0.330"",""0.964"",""0.830""]","[1,1,0,1]",0,22,22,22,1,1,1,,,0,FALSE,,,,,,,,,,,,,,,,,,,,,,,,,,,,,,,
,6170c9123edfc3ee296cda22,627c6939733d547a7ecbc414,2022-05-11_20h56.36.168,classification_task,2021.2.3,Win32,59.9880024,627c6715c52fd12f31907bcf,,,,,,,,,,,,,,,,,,,,,,,a,0,3.7014,"[""0.069"",""0.612"",""0.657"",""0.830""]","[1,0,1,1]",0,23,23,23,1,1,1,,,0,FALSE,,,,,,,,,,,,,,,,,,,,,,,,,,,,,,,
,6170c9123edfc3ee296cda22,627c6939733d547a7ecbc414,2022-05-11_20h56.36.168,classification_task,2021.2.3,Win32,59.9880024,627c6715c52fd12f31907bcf,,,,,,,,,,,,,,,,,,,,,,,l,1,1.2503,"[""0.103"",""0.587"",""0.464"",""0.699""]","[1,0,1,1]",0,24,24,24,1,1,0,,,0,FALSE,,,,,,,,,,,,,,,,,,,,,,,,,,,,,,,
,6170c9123edfc3ee296cda22,627c6939733d547a7ecbc414,2022-05-11_20h56.36.168,classification_task,2021.2.3,Win32,59.9880024,627c6715c52fd12f31907bcf,,,,,,,,,,,,,,,,,,,,,,,a,1,1.0425,"[""0.183"",""0.410"",""0.612"",""0.892""]","[1,1,0,1]",0,25,25,25,1,0,1,,,0,FALSE,,,,,,,,,,,,,,,,,,,,,,,,,,,,,,,
,6170c9123edfc3ee296cda22,627c6939733d547a7ecbc414,2022-05-11_20h56.36.168,classification_task,2021.2.3,Win32,59.9880024,627c6715c52fd12f31907bcf,,,,,,,,,,,,,,,,,,,,,,,l,1,1.2078,"[""0.103"",""0.142"",""0.464"",""0.587""]","[1,1,1,0]",0,26,26,26,1,1,0,,,0,FALSE,,,,,,,,,,,,,,,,,,,,,,,,,,,,,,,
,6170c9123edfc3ee296cda22,627c6939733d547a7ecbc414,2022-05-11_20h56.36.168,classification_task,2021.2.3,Win32,59.9880024,627c6715c52fd12f31907bcf,,,,,,,,,,,,,,,,,,,,,,,a,1,1.0322,"[""0.612"",""0.410"",""0.753"",""0.892""]","[0,1,1,1]",0,27,27,27,1,0,1,,,0,FALSE,,,,,,,,,,,,,,,,,,,,,,,,,,,,,,,
,6170c9123edfc3ee296cda22,627c6939733d547a7ecbc414,2022-05-11_20h56.36.168,classification_task,2021.2.3,Win32,59.9880024,627c6715c52fd12f31907bcf,,,,,,,,,,,,,,,,,,,,,,,l,0,1.9701,"[""0.276"",""0.519"",""0.788"",""0.030""]","[1,1,1,0]",0,28,28,28,1,0,0,,,0,FALSE,,,,,,,,,,,,,,,,,,,,,,,,,,,,,,,
,6170c9123edfc3ee296cda22,627c6939733d547a7ecbc414,2022-05-11_20h56.36.168,classification_task,2021.2.3,Win32,59.9880024,627c6715c52fd12f31907bcf,,,,,,,,,,,,,,,,,,,,,,,a,1,1.1396,"[""0.276"",""0.519"",""0.612"",""0.929""]","[1,1,0,1]",0,29,29,29,1,0,0,,,0,FALSE,,,,,,,,,,,,,,,,,,,,,,,,,,,,,,,
,6170c9123edfc3ee296cda22,627c6939733d547a7ecbc414,2022-05-11_20h56.36.168,classification_task,2021.2.3,Win32,59.9880024,627c6715c52fd12f31907bcf,,,,,,,,,,,,,,,,,,,,,,,a,1,1.2154,"[""0.183"",""0.028"",""0.753"",""0.892""]","[1,0,1,1]",0,30,30,30,1,0,1,,,0,FALSE,,,,,,,,,,,,,,,,,,,,,,,,,,,,,,,
,6170c9123edfc3ee296cda22,627c6939733d547a7ecbc414,2022-05-11_20h56.36.168,classification_task,2021.2.3,Win32,59.9880024,627c6715c52fd12f31907bcf,,,,,,,,,,,,,,,,,,,,,,,l,1,5.1295,"[""0.028"",""0.330"",""0.657"",""0.830""]","[0,1,1,1]",0,31,31,31,1,1,1,,,0,FALSE,,,,,,,,,,,,,,,,,,,,,,,,,,,,,,,
,6170c9123edfc3ee296cda22,627c6939733d547a7ecbc414,2022-05-11_20h56.36.168,classification_task,2021.2.3,Win32,59.9880024,627c6715c52fd12f31907bcf,,,,,,,,,,,,,,,,,,,,,,,a,1,0.9929,"[""0.183"",""0.239"",""0.753"",""0.892""]","[1,0,1,1]",0,32,32,32,1,0,1,,,0,FALSE,,,,,,,,,,,,,,,,,,,,,,,,,,,,,,,
,6170c9123edfc3ee296cda22,627c6939733d547a7ecbc414,2022-05-11_20h56.36.168,classification_task,2021.2.3,Win32,59.9880024,627c6715c52fd12f31907bcf,,,,,,,,,,,,,,,,,,,,,,,l,1,3.7783,"[""0.576"",""0.142"",""0.464"",""0.699""]","[0,1,1,1]",0,33,33,33,1,1,0,,,0,FALSE,,,,,,,,,,,,,,,,,,,,,,,,,,,,,,,
,6170c9123edfc3ee296cda22,627c6939733d547a7ecbc414,2022-05-11_20h56.36.168,classification_task,2021.2.3,Win32,59.9880024,627c6715c52fd12f31907bcf,,,,,,,,,,,,,,,,,,,,,,,a,1,2.7891,"[""0.276"",""0.519"",""0.554"",""0.929""]","[1,1,0,1]",0,34,34,34,1,0,0,,,0,FALSE,,,,,,,,,,,,,,,,,,,,,,,,,,,,,,,
,6170c9123edfc3ee296cda22,627c6939733d547a7ecbc414,2022-05-11_20h56.36.168,classification_task,2021.2.3,Win32,59.9880024,627c6715c52fd12f31907bcf,,,,,,,,,,,,,,,,,,,,,,,l,1,1.1052,"[""0.103"",""0.612"",""0.464"",""0.699""]","[1,0,1,1]",0,35,35,35,1,1,0,,,0,FALSE,,,,,,,,,,,,,,,,,,,,,,,,,,,,,,,
,6170c9123edfc3ee296cda22,627c6939733d547a7ecbc414,2022-05-11_20h56.36.168,classification_task,2021.2.3,Win32,59.9880024,627c6715c52fd12f31907bcf,,,,,,,,,,,,,,,,,,,,,,,a,0,4.8475,"[""0.970"",""0.330"",""0.657"",""0.830""]","[0,1,1,1]",0,36,36,36,1,1,1,,,0,FALSE,,,,,,,,,,,,,,,,,,,,,,,,,,,,,,,
,6170c9123edfc3ee296cda22,627c6939733d547a7ecbc414,2022-05-11_20h56.36.168,classification_task,2021.2.3,Win32,59.9880024,627c6715c52fd12f31907bcf,,,,,,,,,,,,,,,,,,,,,,,a,1,1.4564,"[""0.183"",""0.410"",""0.970"",""0.892""]","[1,1,0,1]",0,37,37,37,1,0,1,,,0,FALSE,,,,,,,,,,,,,,,,,,,,,,,,,,,,,,,
,6170c9123edfc3ee296cda22,627c6939733d547a7ecbc414,2022-05-11_20h56.36.168,classification_task,2021.2.3,Win32,59.9880024,627c6715c52fd12f31907bcf,,,,,,,,,,,,,,,,,,,,,,,l,1,1.2144,"[""0.069"",""0.217"",""0.657"",""0.830""]","[1,0,1,1]",0,38,38,38,1,1,1,,,0,FALSE,,,,,,,,,,,,,,,,,,,,,,,,,,,,,,,
,6170c9123edfc3ee296cda22,627c6939733d547a7ecbc414,2022-05-11_20h56.36.168,classification_task,2021.2.3,Win32,59.9880024,627c6715c52fd12f31907bcf,,,,,,,,,,,,,,,,,,,,,,,a,1,1.0241,"[""0.618"",""0.410"",""0.753"",""0.892""]","[0,1,1,1]",0,39,39,39,1,0,1,,,0,FALSE,,,,,,,,,,,,,,,,,,,,,,,,,,,,,,,
,6170c9123edfc3ee296cda22,627c6939733d547a7ecbc414,2022-05-11_20h56.36.168,classification_task,2021.2.3,Win32,59.9880024,627c6715c52fd12f31907bcf,,,,,,,,,,,,,,,,,,,,,,,l,1,1.8856,"[""0.069"",""0.330"",""0.587"",""0.830""]","[1,1,0,1]",0,40,40,40,1,1,1,,,0,FALSE,,,,,,,,,,,,,,,,,,,,,,,,,,,,,,,
,6170c9123edfc3ee296cda22,627c6939733d547a7ecbc414,2022-05-11_20h56.36.168,classification_task,2021.2.3,Win32,59.9880024,627c6715c52fd12f31907bcf,,,,,,,,,,,,,,,,,,,,,,,l,1,2.1136,"[""0.103"",""0.142"",""0.587"",""0.699""]","[1,1,0,1]",0,41,41,41,1,1,0,,,0,FALSE,,,,,,,,,,,,,,,,,,,,,,,,,,,,,,,
,6170c9123edfc3ee296cda22,627c6939733d547a7ecbc414,2022-05-11_20h56.36.168,classification_task,2021.2.3,Win32,59.9880024,627c6715c52fd12f31907bcf,,,,,,,,,,,,,,,,,,,,,,,a,1,1.839,"[""0.276"",""0.554"",""0.788"",""0.929""]","[1,0,1,1]",0,42,42,42,1,0,0,,,0,FALSE,,,,,,,,,,,,,,,,,,,,,,,,,,,,,,,
,6170c9123edfc3ee296cda22,627c6939733d547a7ecbc414,2022-05-11_20h56.36.168,classification_task,2021.2.3,Win32,59.9880024,627c6715c52fd12f31907bcf,,,,,,,,,,,,,,,,,,,,,,,a,1,2.3626,"[""0.276"",""0.519"",""0.788"",""0.030""]","[1,1,1,0]",0,43,43,43,1,0,0,,,0,FALSE,,,,,,,,,,,,,,,,,,,,,,,,,,,,,,,
,6170c9123edfc3ee296cda22,627c6939733d547a7ecbc414,2022-05-11_20h56.36.168,classification_task,2021.2.3,Win32,59.9880024,627c6715c52fd12f31907bcf,,,,,,,,,,,,,,,,,,,,,,,a,1,2.6203,"[""0.183"",""0.410"",""0.753"",""0.964""]","[1,1,1,0]",0,44,44,44,1,0,1,,,0,FALSE,,,,,,,,,,,,,,,,,,,,,,,,,,,,,,,
,6170c9123edfc3ee296cda22,627c6939733d547a7ecbc414,2022-05-11_20h56.36.168,classification_task,2021.2.3,Win32,59.9880024,627c6715c52fd12f31907bcf,,,,,,,,,,,,,,,,,,,,,,,l,1,1.7033,"[""0.069"",""0.330"",""0.657"",""0.028""]","[1,1,1,0]",0,45,45,45,1,1,1,,,0,FALSE,,,,,,,,,,,,,,,,,,,,,,,,,,,,,,,
,6170c9123edfc3ee296cda22,627c6939733d547a7ecbc414,2022-05-11_20h56.36.168,classification_task,2021.2.3,Win32,59.9880024,627c6715c52fd12f31907bcf,,,,,,,,,,,,,,,,,,,,,,,a,1,2.0539,"[""0.612"",""0.519"",""0.788"",""0.929""]","[0,1,1,1]",0,46,46,46,1,0,0,,,0,FALSE,,,,,,,,,,,,,,,,,,,,,,,,,,,,,,,
,6170c9123edfc3ee296cda22,627c6939733d547a7ecbc414,2022-05-11_20h56.36.168,classification_task,2021.2.3,Win32,59.9880024,627c6715c52fd12f31907bcf,,,,,,,,,,,,,,,,,,,,,,,l,1,1.3828,"[""0.103"",""0.142"",""0.464"",""0.612""]","[1,1,1,0]",0,47,47,47,1,1,0,,,0,FALSE,,,,,,,,,,,,,,,,,,,,,,,,,,,,,,,
,6170c9123edfc3ee296cda22,627c6939733d547a7ecbc414,2022-05-11_20h56.36.168,classification_task,2021.2.3,Win32,59.9880024,627c6715c52fd12f31907bcf,,,,,,,,,,,,,,,,,,,,,,,a,1,0.9069,"[""0.183"",""0.410"",""0.569"",""0.892""]","[1,1,0,1]",0,48,48,48,1,0,1,,,0,FALSE,,,,,,,,,,,,,,,,,,,,,,,,,,,,,,,
,6170c9123edfc3ee296cda22,627c6939733d547a7ecbc414,2022-05-11_20h56.36.168,classification_task,2021.2.3,Win32,59.9880024,627c6715c52fd12f31907bcf,,,,,,,,,,,,,,,,,,,,,,,a,1,4.5879,"[""0.371"",""0.519"",""0.788"",""0.929""]","[0,1,1,1]",0,49,49,49,1,0,0,,,0,FALSE,,,,,,,,,,,,,,,,,,,,,,,,,,,,,,,
,6170c9123edfc3ee296cda22,627c6939733d547a7ecbc414,2022-05-11_20h56.36.168,classification_task,2021.2.3,Win32,59.9880024,627c6715c52fd12f31907bcf,,,,,,,,,,,,,,,,,,,,,,,l,1,0.8039,"[""0.103"",""0.142"",""0.464"",""0.622""]","[1,1,1,0]",0,50,50,50,1,1,0,,,0,FALSE,,,,,,,,,,,,,,,,,,,,,,,,,,,,,,,
,6170c9123edfc3ee296cda22,627c6939733d547a7ecbc414,2022-05-11_20h56.36.168,classification_task,2021.2.3,Win32,59.9880024,627c6715c52fd12f31907bcf,,,,,,,,,,,,,,,,,,,,,,,a,1,1.0718,"[""0.183"",""0.970"",""0.753"",""0.892""]","[1,0,1,1]",0,51,51,51,1,0,1,,,0,FALSE,,,,,,,,,,,,,,,,,,,,,,,,,,,,,,,
,6170c9123edfc3ee296cda22,627c6939733d547a7ecbc414,2022-05-11_20h56.36.168,classification_task,2021.2.3,Win32,59.9880024,627c6715c52fd12f31907bcf,,,,,,,,,,,,,,,,,,,,,,,l,1,3.9809,"[""0.069"",""0.330"",""0.030"",""0.830""]","[1,1,0,1]",0,52,52,52,1,1,1,,,0,FALSE,,,,,,,,,,,,,,,,,,,,,,,,,,,,,,,
,6170c9123edfc3ee296cda22,627c6939733d547a7ecbc414,2022-05-11_20h56.36.168,classification_task,2021.2.3,Win32,59.9880024,627c6715c52fd12f31907bcf,,,,,,,,,,,,,,,,,,,,,,,l,1,1.2054,"[""0.103"",""0.142"",""0.622"",""0.699""]","[1,1,0,1]",0,53,53,53,1,1,0,,,0,FALSE,,,,,,,,,,,,,,,,,,,,,,,,,,,,,,,
,6170c9123edfc3ee296cda22,627c6939733d547a7ecbc414,2022-05-11_20h56.36.168,classification_task,2021.2.3,Win32,59.9880024,627c6715c52fd12f31907bcf,,,,,,,,,,,,,,,,,,,,,,,a,1,2.4101,"[""0.276"",""0.519"",""0.788"",""0.239""]","[1,1,1,0]",0,54,54,54,1,0,0,,,0,FALSE,,,,,,,,,,,,,,,,,,,,,,,,,,,,,,,
,6170c9123edfc3ee296cda22,627c6939733d547a7ecbc414,2022-05-11_20h56.36.168,classification_task,2021.2.3,Win32,59.9880024,627c6715c52fd12f31907bcf,,,,,,,,,,,,,,,,,,,,,,,a,1,1.7461,"[""0.276"",""0.519"",""0.554"",""0.929""]","[1,1,0,1]",0,55,55,55,1,0,0,,,0,FALSE,,,,,,,,,,,,,,,,,,,,,,,,,,,,,,,
,6170c9123edfc3ee296cda22,627c6939733d547a7ecbc414,2022-05-11_20h56.36.168,classification_task,2021.2.3,Win32,59.9880024,627c6715c52fd12f31907bcf,,,,,,,,,,,,,,,,,,,,,,,a,1,3.479,"[""0.276"",""0.217"",""0.788"",""0.929""]","[1,0,1,1]",0,56,56,56,1,0,0,,,0,FALSE,,,,,,,,,,,,,,,,,,,,,,,,,,,,,,,
,6170c9123edfc3ee296cda22,627c6939733d547a7ecbc414,2022-05-11_20h56.36.168,classification_task,2021.2.3,Win32,59.9880024,627c6715c52fd12f31907bcf,,,,,,,,,,,,,,,,,,,,,,,a,1,1.6159,"[""0.183"",""0.410"",""0.753"",""0.217""]","[1,1,1,0]",0,57,57,57,1,0,1,,,0,FALSE,,,,,,,,,,,,,,,,,,,,,,,,,,,,,,,
,6170c9123edfc3ee296cda22,627c6939733d547a7ecbc414,2022-05-11_20h56.36.168,classification_task,2021.2.3,Win32,59.9880024,627c6715c52fd12f31907bcf,,,,,,,,,,,,,,,,,,,,,,,l,1,1.4212,"[""0.069"",""0.612"",""0.657"",""0.830""]","[1,0,1,1]",0,58,58,58,1,1,1,,,0,FALSE,,,,,,,,,,,,,,,,,,,,,,,,,,,,,,,
,6170c9123edfc3ee296cda22,627c6939733d547a7ecbc414,2022-05-11_20h56.36.168,classification_task,2021.2.3,Win32,59.9880024,627c6715c52fd12f31907bcf,,,,,,,,,,,,,,,,,,,,,,,a,1,2.1633,"[""0.028"",""0.410"",""0.753"",""0.892""]","[0,1,1,1]",0,59,59,59,1,0,1,,,0,FALSE,,,,,,,,,,,,,,,,,,,,,,,,,,,,,,,
,6170c9123edfc3ee296cda22,627c6939733d547a7ecbc414,2022-05-11_20h56.36.168,classification_task,2021.2.3,Win32,59.9880024,627c6715c52fd12f31907bcf,,,,,,,,,,,,,,,,,,,,,,,l,1,1.7213,"[""0.103"",""0.028"",""0.464"",""0.699""]","[1,0,1,1]",0,60,60,60,1,1,0,,,0,FALSE,,,,,,,,,,,,,,,,,,,,,,,,,,,,,,,
,6170c9123edfc3ee296cda22,627c6939733d547a7ecbc414,2022-05-11_20h56.36.168,classification_task,2021.2.3,Win32,59.9880024,627c6715c52fd12f31907bcf,,,,,,,,,,,,,,,,,,,,,,,l,1,2.3057,"[""0.069"",""0.330"",""0.657"",""0.238""]","[1,1,1,0]",0,61,61,61,1,1,1,,,0,FALSE,,,,,,,,,,,,,,,,,,,,,,,,,,,,,,,
,6170c9123edfc3ee296cda22,627c6939733d547a7ecbc414,2022-05-11_20h56.36.168,classification_task,2021.2.3,Win32,59.9880024,627c6715c52fd12f31907bcf,,,,,,,,,,,,,,,,,,,,,,,l,1,1.7378,"[""0.964"",""0.142"",""0.464"",""0.699""]","[0,1,1,1]",0,62,62,62,1,1,0,,,0,FALSE,,,,,,,,,,,,,,,,,,,,,,,,,,,,,,,
,6170c9123edfc3ee296cda22,627c6939733d547a7ecbc414,2022-05-11_20h56.36.168,classification_task,2021.2.3,Win32,59.9880024,627c6715c52fd12f31907bcf,,,,,,,,,,,,,,,,,,,,,,,l,1,2.5107,"[""0.964"",""0.330"",""0.657"",""0.830""]","[0,1,1,1]",0,63,63,63,1,1,1,,,0,FALSE,,,,,,,,,,,,,,,,,,,,,,,,,,,,,,,
,6170c9123edfc3ee296cda22,627c6939733d547a7ecbc414,2022-05-11_20h56.36.168,classification_task,2021.2.3,Win32,59.9880024,627c6715c52fd12f31907bcf,,,,,,,,,,,,,,,,,,,,,,,,,,,,,,,,,,,,,,,0, ,,0,7.859071869,217.2897,0,2,2,2,1,2,3,,,,,,,,,,,,,,,,,,
,6170c9123edfc3ee296cda22,627c6939733d547a7ecbc414,2022-05-11_20h56.36.168,classification_task,2021.2.3,Win32,59.9880024,627c6715c52fd12f31907bcf,,,,,,,,,,,,,,,,,,,,,,,,,,,,,,,,,,,,,,,1,  ,,0,9.340277778,219.805,0,2,2,2,1,2,3,,,,,,,,,,,,,,,,,,
,6170c9123edfc3ee296cda22,627c6939733d547a7ecbc414,2022-05-11_20h56.36.168,classification_task,2021.2.3,Win32,59.9880024,627c6715c52fd12f31907bcf,,,,,,,,,,,,,,,,,,,,,,,,,,,,,,,,,,,,,,,2,  ,,0,7.82462522,221.0548,0,2,2,2,1,2,3,,,,,,,,,,,,,,,,,,
,6170c9123edfc3ee296cda22,627c6939733d547a7ecbc414,2022-05-11_20h56.36.168,classification_task,2021.2.3,Win32,59.9880024,627c6715c52fd12f31907bcf,,,,,,,,,,,,,,,,,,,,,,,,,,,,,,,,,,,,,,,,,,,,,0,2,2,2,1,,3,,,,,,,,,,,,,,,,,,
,6170c9123edfc3ee296cda22,627c6939733d547a7ecbc414,2022-05-11_20h56.36.168,classification_task,2021.2.3,Win32,59.9880024,627c6715c52fd12f31907bcf,,,,,,,,,,,,,,,,,,,,,,,,,,,,,,,,,,,,,,,,,,,,,,,,,,,,,I believe the aid is a competent performer,,0.7,0,5,905.4617,0,0,0,0,1,0,,,,,
,6170c9123edfc3ee296cda22,627c6939733d547a7ecbc414,2022-05-11_20h56.36.168,classification_task,2021.2.3,Win32,59.9880024,627c6715c52fd12f31907bcf,,,,,,,,,,,,,,,,,,,,,,,,,,,,,,,,,,,,,,,,,,,,,,,,,,,,,I trust the aid,,0.7,0,4,869.6826,0,0,0,0,1,0,,,,,
,6170c9123edfc3ee296cda22,627c6939733d547a7ecbc414,2022-05-11_20h56.36.168,classification_task,2021.2.3,Win32,59.9880024,627c6715c52fd12f31907bcf,,,,,,,,,,,,,,,,,,,,,,,,,,,,,,,,,,,,,,,,,,,,,,,,,,,,,I have confidence in the advice given by the aid,,0.7,0,5,872.3357,0,0,0,0,1,0,,,,,
,6170c9123edfc3ee296cda22,627c6939733d547a7ecbc414,2022-05-11_20h56.36.168,classification_task,2021.2.3,Win32,59.9880024,627c6715c52fd12f31907bcf,,,,,,,,,,,,,,,,,,,,,,,,,,,,,,,,,,,,,,,,,,,,,,,,,,,,,I can depend on the aid,,0.7,0,2,873.5997,0,0,0,0,1,0,,,,,
,6170c9123edfc3ee296cda22,627c6939733d547a7ecbc414,2022-05-11_20h56.36.168,classification_task,2021.2.3,Win32,59.9880024,627c6715c52fd12f31907bcf,,,,,,,,,,,,,,,,,,,,,,,,,,,,,,,,,,,,,,,,,,,,,,,,,,,,,I can rely on the aid to behave in consistent ways,,0.7,0,2,879.9256,0,0,0,0,1,0,,,,,
,6170c9123edfc3ee296cda22,627c6939733d547a7ecbc414,2022-05-11_20h56.36.168,classification_task,2021.2.3,Win32,59.9880024,627c6715c52fd12f31907bcf,,,,,,,,,,,,,,,,,,,,,,,,,,,,,,,,,,,,,,,,,,,,,,,,,,,,,I can rely on the aid to do its best every time I take its advice,,0.7,0,4,883.8283,0,0,0,0,1,0,,,,,
,6170c9123edfc3ee296cda22,627c6939733d547a7ecbc414,2022-05-11_20h56.36.168,classification_task,2021.2.3,Win32,59.9880024,627c6715c52fd12f31907bcf,,,,,,,,,,,,,,,,,,,,,,,,,,,,,,,,,,,,,,,,,,,,,,,,,,,,,"On trials you completed with assistance from the aid, how frequently did you think the aid was correct?",,0.7,0,70%,,0,0,0,0,1,0,,,,,
,6170c9123edfc3ee296cda22,627c6939733d547a7ecbc414,2022-05-11_20h56.36.168,classification_task,2021.2.3,Win32,59.9880024,627c6715c52fd12f31907bcf,,,,,,,,,,,,,,,,,,,,,,,,,,,,,,,,,,,,,,,,,,,,,,,,,,,,,"On trials you completed without the aid, how frequently did you think you were correct?",,0.7,0,40%,,0,0,0,0,1,0,,,,,
,6170c9123edfc3ee296cda22,627c6939733d547a7ecbc414,2022-05-11_20h56.36.168,classification_task,2021.2.3,Win32,59.9880024,627c6715c52fd12f31907bcf,,,,,,,,,,,,,,,,,,,,,,,,,,,,,,,,,,,,,,,,,,,,,,,,,,,,,,,,,,,0,0,0,0,1,,,,,,
,6170c9123edfc3ee296cda22,627c6939733d547a7ecbc414,2022-05-11_20h56.36.168,classification_task,2021.2.3,Win32,59.9880024,627c6715c52fd12f31907bcf,,,,,,,,,,,,,,,,,,,,,,,,,,,,,,,,,,,,,,,,,,,,,,,,,,,,,,,,,,,,,,,,,space,8.2508,923.5968,,
,6170c9123edfc3ee296cda22,627c6939733d547a7ecbc414,2022-05-11_20h56.36.168,classification_task,2021.2.3,Win32,59.9880024,627c6715c52fd12f31907bcf,,,,,,,,,,,,,,,,,,,,,,,,,,,,,,,,,,,,,,,,,,,,,,,,,,,,,,,,,,,,,,,,,,,,"Mozilla/5.0 (Windows NT 6.3; Win64; x64) AppleWebKit/537.36 (KHTML, like Gecko) Chrome/101.0.4951.54 Safari/537.36",
,6170c9123edfc3ee296cda22,627c6939733d547a7ecbc414,2022-05-11_20h56.36.168,classification_task,2021.2.3,Win32,59.9880024,627c6715c52fd12f31907bcf,,,,,,,,,,,,,,,,,,,,,,,,,,,,,,,,,,,,,,,,,,,,,,,,,,,,,,,,,,,,,,,,,,,,,LOWLIGHT
