usingWebGL,participant,session,date,expName,psychopyVersion,OS,frameRate,study_id,signatures_friend,signatures_foe,band_ranges_top,band_ranges_bottom,formitemText,formtype,formundefined,formitemWidth,formindex,formresponse,formrt,key_resp_2.keys,key_resp_2.rt,tute_resp.keys,tute_resp.rt,tutorial.thisRepN,tutorial.thisTrialN,tutorial.thisN,tutorial.thisIndex,tutorial.ran,key_resp_4.keys,key_resp_4.rt,key_resp.keys,key_resp.corr,lines_presented,is_signal_presented,trials.thisRepN,trials.thisTrialN,trials.thisN,trials.thisIndex,trials.ran,vessel,active_band,lines,is_signal,supported_pos,catch_trial,key_resp.rt,debrief_formindex,debrief_formitemText,debrief_formtype,debrief_formitemWidth,debrief_formresponse,debrief_formrt,phases.thisRepN,phases.thisTrialN,phases.thisN,phases.thisIndex,phases.ran,phases.order,phase,key_resp_3.keys,trustitemText,trusttype,trustitemWidth,trustindex,trustresponse,trustrt,support_status.thisRepN,support_status.thisTrialN,support_status.thisN,support_status.thisIndex,support_status.ran,support_status.order,key_resp_5.keys,key_resp_5.rt,globalClockTime,userAgent,manualCondition
TRUE,61715a02a3c88f5fb082a424,627c76debd5990ea8d3336b7,2022-05-12_04h58.03.561,classification_task,2021.2.3,Win32,59.99160118,627c6715c52fd12f31907bd0,,,,,,,,,,,,,,,,,,,,,,,,,,,,,,,,,,,,,,,,,,,,,,,,,,,,,,,,,,,,,,,,,,,,,
,61715a02a3c88f5fb082a424,627c76debd5990ea8d3336b7,2022-05-12_04h58.03.561,classification_task,2021.2.3,Win32,59.99160118,627c6715c52fd12f31907bd0,"[[""0.164"",""0.545"",""0.842"",""0.888""],[""0.201"",""0.510"",""0.941"",""0.974""]]","[[""0.078"",""0.125"",""0.597"",""0.741""],[""0.034"",""0.364"",""0.467"",""0.689""]]","[1,10]","[100,1000]",Video game experience,,,0.7,0,,,,,,,,,,,,,,,,,,,,,,,,,,,,,,,,,,,,,,,,,,,,,,,,,,,,,,,,,,,,
,61715a02a3c88f5fb082a424,627c76debd5990ea8d3336b7,2022-05-12_04h58.03.561,classification_task,2021.2.3,Win32,59.99160118,627c6715c52fd12f31907bd0,,,,,Approximately how many hours did you spend playing video games in the last week?,,,0.7,0,0,,,,,,,,,,,,,,,,,,,,,,,,,,,,,,,,,,,,,,,,,,,,,,,,,,,,,,,,,,,
,61715a02a3c88f5fb082a424,627c76debd5990ea8d3336b7,2022-05-12_04h58.03.561,classification_task,2021.2.3,Win32,59.99160118,627c6715c52fd12f31907bd0,,,,,"Which game did you play the most this year? (Enter ""None"" if you didn't play any)",,,0.7,0,None,,,,,,,,,,,,,,,,,,,,,,,,,,,,,,,,,,,,,,,,,,,,,,,,,,,,,,,,,,,
,61715a02a3c88f5fb082a424,627c76debd5990ea8d3336b7,2022-05-12_04h58.03.561,classification_task,2021.2.3,Win32,59.99160118,627c6715c52fd12f31907bd0,,,,,Visual perception,,,0.7,0,,,,,,,,,,,,,,,,,,,,,,,,,,,,,,,,,,,,,,,,,,,,,,,,,,,,,,,,,,,,
,61715a02a3c88f5fb082a424,627c76debd5990ea8d3336b7,2022-05-12_04h58.03.561,classification_task,2021.2.3,Win32,59.99160118,627c6715c52fd12f31907bd0,,,,,Do you have any form of color blindness?,,,0.7,0,No,29.8927,,,,,,,,,,,,,,,,,,,,,,,,,,,,,,,,,,,,,,,,,,,,,,,,,,,,,,,,,,
,61715a02a3c88f5fb082a424,627c76debd5990ea8d3336b7,2022-05-12_04h58.03.561,classification_task,2021.2.3,Win32,59.99160118,627c6715c52fd12f31907bd0,,,,,Do you use software to change the colour temperature of your screen (e.g. f.lux)?,,,0.7,0,No,35.726,,,,,,,,,,,,,,,,,,,,,,,,,,,,,,,,,,,,,,,,,,,,,,,,,,,,,,,,,,
,61715a02a3c88f5fb082a424,627c76debd5990ea8d3336b7,2022-05-12_04h58.03.561,classification_task,2021.2.3,Win32,59.99160118,627c6715c52fd12f31907bd0,,,,,,,,,,,,space,58.6484,space,11.4188,0,0,0,0,1,,,,,,,,,,,,,,,,,,,,,,,,,,,,,,,,,,,,,,,,,,,,,,,,,
,61715a02a3c88f5fb082a424,627c76debd5990ea8d3336b7,2022-05-12_04h58.03.561,classification_task,2021.2.3,Win32,59.99160118,627c6715c52fd12f31907bd0,,,,,,,,,,,,,,space,12.7129,1,0,1,0,1,,,,,,,,,,,,,,,,,,,,,,,,,,,,,,,,,,,,,,,,,,,,,,,,,
,61715a02a3c88f5fb082a424,627c76debd5990ea8d3336b7,2022-05-12_04h58.03.561,classification_task,2021.2.3,Win32,59.99160118,627c6715c52fd12f31907bd0,,,,,,,,,,,,,,space,32.4632,2,0,2,0,1,,,,,,,,,,,,,,,,,,,,,,,,,,,,,,,,,,,,,,,,,,,,,,,,,
,61715a02a3c88f5fb082a424,627c76debd5990ea8d3336b7,2022-05-12_04h58.03.561,classification_task,2021.2.3,Win32,59.99160118,627c6715c52fd12f31907bd0,,,,,,,,,,,,,,space,20.8885,3,0,3,0,1,,,,,,,,,,,,,,,,,,,,,,,,,,,,,,,,,,,,,,,,,,,,,,,,,
,61715a02a3c88f5fb082a424,627c76debd5990ea8d3336b7,2022-05-12_04h58.03.561,classification_task,2021.2.3,Win32,59.99160118,627c6715c52fd12f31907bd0,,,,,,,,,,,,,,space,25.3577,4,0,4,0,1,,,,,,,,,,,,,,,,,,,,,,,,,,,,,,,,,,,,,,,,,,,,,,,,,
,61715a02a3c88f5fb082a424,627c76debd5990ea8d3336b7,2022-05-12_04h58.03.561,classification_task,2021.2.3,Win32,59.99160118,627c6715c52fd12f31907bd0,,,,,,,,,,,,,,,,,,,,,space,167.9504,,0,"[""0.078"",""0.125"",""0.253"",""0.741""]","[1,1,0,1]",0,0,0,0,1,1,0,,,0,FALSE,,,,,,,,,,,,,,,,,,,,,,,,,,,,,,,,
,61715a02a3c88f5fb082a424,627c76debd5990ea8d3336b7,2022-05-12_04h58.03.561,classification_task,2021.2.3,Win32,59.99160118,627c6715c52fd12f31907bd0,,,,,,,,,,,,,,,,,,,,,,,l,0,"[""0.164"",""0.545"",""0.314"",""0.888""]","[1,1,0,1]",0,1,1,1,1,0,0,,,0,FALSE,3.3843,,,,,,,,,,,,,,,,,,,,,,,,,,,,,,,
,61715a02a3c88f5fb082a424,627c76debd5990ea8d3336b7,2022-05-12_04h58.03.561,classification_task,2021.2.3,Win32,59.99160118,627c6715c52fd12f31907bd0,,,,,,,,,,,,,,,,,,,,,,,a,1,"[""0.201"",""0.510"",""0.290"",""0.974""]","[1,1,0,1]",0,2,2,2,1,0,1,,,0,FALSE,1.5854,,,,,,,,,,,,,,,,,,,,,,,,,,,,,,,
,61715a02a3c88f5fb082a424,627c76debd5990ea8d3336b7,2022-05-12_04h58.03.561,classification_task,2021.2.3,Win32,59.99160118,627c6715c52fd12f31907bd0,,,,,,,,,,,,,,,,,,,,,,,l,0,"[""0.289"",""0.510"",""0.941"",""0.974""]","[0,1,1,1]",0,3,3,3,1,0,1,,,0,FALSE,4.4257,,,,,,,,,,,,,,,,,,,,,,,,,,,,,,,
,61715a02a3c88f5fb082a424,627c76debd5990ea8d3336b7,2022-05-12_04h58.03.561,classification_task,2021.2.3,Win32,59.99160118,627c6715c52fd12f31907bd0,,,,,,,,,,,,,,,,,,,,,,,a,0,"[""0.034"",""0.364"",""0.277"",""0.689""]","[1,1,0,1]",0,4,4,4,1,1,1,,,0,FALSE,0.5896,,,,,,,,,,,,,,,,,,,,,,,,,,,,,,,
,61715a02a3c88f5fb082a424,627c76debd5990ea8d3336b7,2022-05-12_04h58.03.561,classification_task,2021.2.3,Win32,59.99160118,627c6715c52fd12f31907bd0,,,,,,,,,,,,,,,,,,,,,,,a,0,"[""0.078"",""0.290"",""0.597"",""0.741""]","[1,0,1,1]",0,5,5,5,1,1,0,,,0,FALSE,3.4628,,,,,,,,,,,,,,,,,,,,,,,,,,,,,,,
,61715a02a3c88f5fb082a424,627c76debd5990ea8d3336b7,2022-05-12_04h58.03.561,classification_task,2021.2.3,Win32,59.99160118,627c6715c52fd12f31907bd0,,,,,,,,,,,,,,,,,,,,,,,l,1,"[""0.329"",""0.364"",""0.467"",""0.689""]","[0,1,1,1]",0,6,6,6,1,1,1,,,0,FALSE,1.5695,,,,,,,,,,,,,,,,,,,,,,,,,,,,,,,
,61715a02a3c88f5fb082a424,627c76debd5990ea8d3336b7,2022-05-12_04h58.03.561,classification_task,2021.2.3,Win32,59.99160118,627c6715c52fd12f31907bd0,,,,,,,,,,,,,,,,,,,,,,,l,0,"[""0.201"",""0.510"",""0.941"",""0.314""]","[1,1,1,0]",0,7,7,7,1,0,1,,,0,FALSE,2.357,,,,,,,,,,,,,,,,,,,,,,,,,,,,,,,
,61715a02a3c88f5fb082a424,627c76debd5990ea8d3336b7,2022-05-12_04h58.03.561,classification_task,2021.2.3,Win32,59.99160118,627c6715c52fd12f31907bd0,,,,,,,,,,,,,,,,,,,,,,,l,0,"[""0.248"",""0.545"",""0.842"",""0.888""]","[0,1,1,1]",0,8,8,8,1,0,0,,,0,FALSE,4.2497,,,,,,,,,,,,,,,,,,,,,,,,,,,,,,,
,61715a02a3c88f5fb082a424,627c76debd5990ea8d3336b7,2022-05-12_04h58.03.561,classification_task,2021.2.3,Win32,59.99160118,627c6715c52fd12f31907bd0,,,,,,,,,,,,,,,,,,,,,,,a,0,"[""0.314"",""0.125"",""0.597"",""0.741""]","[0,1,1,1]",0,9,9,9,1,1,0,,,0,FALSE,4.9359,,,,,,,,,,,,,,,,,,,,,,,,,,,,,,,
,61715a02a3c88f5fb082a424,627c76debd5990ea8d3336b7,2022-05-12_04h58.03.561,classification_task,2021.2.3,Win32,59.99160118,627c6715c52fd12f31907bd0,,,,,,,,,,,,,,,,,,,,,,,l,1,"[""0.034"",""0.292"",""0.467"",""0.689""]","[1,0,1,1]",0,10,10,10,1,1,1,,,0,FALSE,7.0892,,,,,,,,,,,,,,,,,,,,,,,,,,,,,,,
,61715a02a3c88f5fb082a424,627c76debd5990ea8d3336b7,2022-05-12_04h58.03.561,classification_task,2021.2.3,Win32,59.99160118,627c6715c52fd12f31907bd0,,,,,,,,,,,,,,,,,,,,,,,a,1,"[""0.164"",""0.545"",""0.842"",""0.415""]","[1,1,1,0]",0,11,11,11,1,0,0,,,0,FALSE,4.0331,,,,,,,,,,,,,,,,,,,,,,,,,,,,,,,
,61715a02a3c88f5fb082a424,627c76debd5990ea8d3336b7,2022-05-12_04h58.03.561,classification_task,2021.2.3,Win32,59.99160118,627c6715c52fd12f31907bd0,,,,,,,,,,,,,,,,,,,,,,,a,0,"[""0.034"",""0.364"",""0.467"",""0.408""]","[1,1,1,0]",0,12,12,12,1,1,1,,,0,FALSE,3.8964,,,,,,,,,,,,,,,,,,,,,,,,,,,,,,,
,61715a02a3c88f5fb082a424,627c76debd5990ea8d3336b7,2022-05-12_04h58.03.561,classification_task,2021.2.3,Win32,59.99160118,627c6715c52fd12f31907bd0,,,,,,,,,,,,,,,,,,,,,,,l,1,"[""0.078"",""0.125"",""0.597"",""0.243""]","[1,1,1,0]",0,13,13,13,1,1,0,,,0,FALSE,3.0109,,,,,,,,,,,,,,,,,,,,,,,,,,,,,,,
,61715a02a3c88f5fb082a424,627c76debd5990ea8d3336b7,2022-05-12_04h58.03.561,classification_task,2021.2.3,Win32,59.99160118,627c6715c52fd12f31907bd0,,,,,,,,,,,,,,,,,,,,,,,l,0,"[""0.164"",""0.253"",""0.842"",""0.888""]","[1,0,1,1]",0,14,14,14,1,0,0,,,0,FALSE,5.2607,,,,,,,,,,,,,,,,,,,,,,,,,,,,,,,
,61715a02a3c88f5fb082a424,627c76debd5990ea8d3336b7,2022-05-12_04h58.03.561,classification_task,2021.2.3,Win32,59.99160118,627c6715c52fd12f31907bd0,,,,,,,,,,,,,,,,,,,,,,,l,0,"[""0.201"",""0.408"",""0.941"",""0.974""]","[1,0,1,1]",0,15,15,15,1,0,1,,,0,FALSE,2.0375,,,,,,,,,,,,,,,,,,,,,,,,,,,,,,,
,61715a02a3c88f5fb082a424,627c76debd5990ea8d3336b7,2022-05-12_04h58.03.561,classification_task,2021.2.3,Win32,59.99160118,627c6715c52fd12f31907bd0,,,,,,,,,,,,,,,,,,,,,,,a,0,"[""0.034"",""0.329"",""0.467"",""0.689""]","[1,0,1,1]",0,16,16,16,1,1,1,,,0,FALSE,2.9667,,,,,,,,,,,,,,,,,,,,,,,,,,,,,,,
,61715a02a3c88f5fb082a424,627c76debd5990ea8d3336b7,2022-05-12_04h58.03.561,classification_task,2021.2.3,Win32,59.99160118,627c6715c52fd12f31907bd0,,,,,,,,,,,,,,,,,,,,,,,l,0,"[""0.799"",""0.545"",""0.842"",""0.888""]","[0,1,1,1]",0,17,17,17,1,0,0,,,0,FALSE,3.4208,,,,,,,,,,,,,,,,,,,,,,,,,,,,,,,
,61715a02a3c88f5fb082a424,627c76debd5990ea8d3336b7,2022-05-12_04h58.03.561,classification_task,2021.2.3,Win32,59.99160118,627c6715c52fd12f31907bd0,,,,,,,,,,,,,,,,,,,,,,,l,0,"[""0.164"",""0.545"",""0.842"",""0.408""]","[1,1,1,0]",0,18,18,18,1,0,0,,,0,FALSE,5.3655,,,,,,,,,,,,,,,,,,,,,,,,,,,,,,,
,61715a02a3c88f5fb082a424,627c76debd5990ea8d3336b7,2022-05-12_04h58.03.561,classification_task,2021.2.3,Win32,59.99160118,627c6715c52fd12f31907bd0,,,,,,,,,,,,,,,,,,,,,,,a,1,"[""0.201"",""0.253"",""0.941"",""0.974""]","[1,0,1,1]",0,19,19,19,1,0,1,,,0,FALSE,3.863,,,,,,,,,,,,,,,,,,,,,,,,,,,,,,,
,61715a02a3c88f5fb082a424,627c76debd5990ea8d3336b7,2022-05-12_04h58.03.561,classification_task,2021.2.3,Win32,59.99160118,627c6715c52fd12f31907bd0,,,,,,,,,,,,,,,,,,,,,,,a,1,"[""0.799"",""0.510"",""0.941"",""0.974""]","[0,1,1,1]",0,20,20,20,1,0,1,,,0,FALSE,4.8795,,,,,,,,,,,,,,,,,,,,,,,,,,,,,,,
,61715a02a3c88f5fb082a424,627c76debd5990ea8d3336b7,2022-05-12_04h58.03.561,classification_task,2021.2.3,Win32,59.99160118,627c6715c52fd12f31907bd0,,,,,,,,,,,,,,,,,,,,,,,l,1,"[""0.034"",""0.364"",""0.292"",""0.689""]","[1,1,0,1]",0,21,21,21,1,1,1,,,0,FALSE,2.4103,,,,,,,,,,,,,,,,,,,,,,,,,,,,,,,
,61715a02a3c88f5fb082a424,627c76debd5990ea8d3336b7,2022-05-12_04h58.03.561,classification_task,2021.2.3,Win32,59.99160118,627c6715c52fd12f31907bd0,,,,,,,,,,,,,,,,,,,,,,,a,1,"[""0.164"",""0.545"",""0.415"",""0.888""]","[1,1,0,1]",0,22,22,22,1,0,0,,,0,FALSE,3.0443,,,,,,,,,,,,,,,,,,,,,,,,,,,,,,,
,61715a02a3c88f5fb082a424,627c76debd5990ea8d3336b7,2022-05-12_04h58.03.561,classification_task,2021.2.3,Win32,59.99160118,627c6715c52fd12f31907bd0,,,,,,,,,,,,,,,,,,,,,,,a,0,"[""0.078"",""0.125"",""0.329"",""0.741""]","[1,1,0,1]",0,23,23,23,1,1,0,,,0,FALSE,4.2329,,,,,,,,,,,,,,,,,,,,,,,,,,,,,,,
,61715a02a3c88f5fb082a424,627c76debd5990ea8d3336b7,2022-05-12_04h58.03.561,classification_task,2021.2.3,Win32,59.99160118,627c6715c52fd12f31907bd0,,,,,,,,,,,,,,,,,,,,,,,l,1,"[""0.034"",""0.364"",""0.467"",""0.277""]","[1,1,1,0]",0,24,24,24,1,1,1,,,0,FALSE,3.5452,,,,,,,,,,,,,,,,,,,,,,,,,,,,,,,
,61715a02a3c88f5fb082a424,627c76debd5990ea8d3336b7,2022-05-12_04h58.03.561,classification_task,2021.2.3,Win32,59.99160118,627c6715c52fd12f31907bd0,,,,,,,,,,,,,,,,,,,,,,,l,1,"[""0.329"",""0.364"",""0.467"",""0.689""]","[0,1,1,1]",0,25,25,25,1,1,1,,,0,FALSE,2.482,,,,,,,,,,,,,,,,,,,,,,,,,,,,,,,
,61715a02a3c88f5fb082a424,627c76debd5990ea8d3336b7,2022-05-12_04h58.03.561,classification_task,2021.2.3,Win32,59.99160118,627c6715c52fd12f31907bd0,,,,,,,,,,,,,,,,,,,,,,,a,1,"[""0.201"",""0.510"",""0.941"",""0.804""]","[1,1,1,0]",0,26,26,26,1,0,1,,,0,FALSE,3.0851,,,,,,,,,,,,,,,,,,,,,,,,,,,,,,,
,61715a02a3c88f5fb082a424,627c76debd5990ea8d3336b7,2022-05-12_04h58.03.561,classification_task,2021.2.3,Win32,59.99160118,627c6715c52fd12f31907bd0,,,,,,,,,,,,,,,,,,,,,,,a,1,"[""0.201"",""0.510"",""0.804"",""0.974""]","[1,1,0,1]",0,27,27,27,1,0,1,,,0,FALSE,1.9704,,,,,,,,,,,,,,,,,,,,,,,,,,,,,,,
,61715a02a3c88f5fb082a424,627c76debd5990ea8d3336b7,2022-05-12_04h58.03.561,classification_task,2021.2.3,Win32,59.99160118,627c6715c52fd12f31907bd0,,,,,,,,,,,,,,,,,,,,,,,l,1,"[""0.078"",""0.290"",""0.597"",""0.741""]","[1,0,1,1]",0,28,28,28,1,1,0,,,0,FALSE,3.4176,,,,,,,,,,,,,,,,,,,,,,,,,,,,,,,
,61715a02a3c88f5fb082a424,627c76debd5990ea8d3336b7,2022-05-12_04h58.03.561,classification_task,2021.2.3,Win32,59.99160118,627c6715c52fd12f31907bd0,,,,,,,,,,,,,,,,,,,,,,,l,1,"[""0.078"",""0.125"",""0.597"",""0.248""]","[1,1,1,0]",0,29,29,29,1,1,0,,,0,FALSE,3.2943,,,,,,,,,,,,,,,,,,,,,,,,,,,,,,,
,61715a02a3c88f5fb082a424,627c76debd5990ea8d3336b7,2022-05-12_04h58.03.561,classification_task,2021.2.3,Win32,59.99160118,627c6715c52fd12f31907bd0,,,,,,,,,,,,,,,,,,,,,,,a,1,"[""0.164"",""0.253"",""0.842"",""0.888""]","[1,0,1,1]",0,30,30,30,1,0,0,,,0,FALSE,3.1075,,,,,,,,,,,,,,,,,,,,,,,,,,,,,,,
,61715a02a3c88f5fb082a424,627c76debd5990ea8d3336b7,2022-05-12_04h58.03.561,classification_task,2021.2.3,Win32,59.99160118,627c6715c52fd12f31907bd0,,,,,,,,,,,,,,,,,,,,,,,l,1,"[""0.412"",""0.125"",""0.597"",""0.741""]","[0,1,1,1]",0,31,31,31,1,1,0,,,0,FALSE,3.7068,,,,,,,,,,,,,,,,,,,,,,,,,,,,,,,
,61715a02a3c88f5fb082a424,627c76debd5990ea8d3336b7,2022-05-12_04h58.03.561,classification_task,2021.2.3,Win32,59.99160118,627c6715c52fd12f31907bd0,,,,,,,,,,,,,,,,,,,,,,,l,1,"[""0.078"",""0.125"",""0.289"",""0.741""]","[1,1,0,1]",0,32,32,32,1,1,0,,,0,FALSE,5.6208,,,,,,,,,,,,,,,,,,,,,,,,,,,,,,,
,61715a02a3c88f5fb082a424,627c76debd5990ea8d3336b7,2022-05-12_04h58.03.561,classification_task,2021.2.3,Win32,59.99160118,627c6715c52fd12f31907bd0,,,,,,,,,,,,,,,,,,,,,,,l,1,"[""0.078"",""0.415"",""0.597"",""0.741""]","[1,0,1,1]",0,33,33,33,1,1,0,,,0,FALSE,4.5621,,,,,,,,,,,,,,,,,,,,,,,,,,,,,,,
,61715a02a3c88f5fb082a424,627c76debd5990ea8d3336b7,2022-05-12_04h58.03.561,classification_task,2021.2.3,Win32,59.99160118,627c6715c52fd12f31907bd0,,,,,,,,,,,,,,,,,,,,,,,a,0,"[""0.034"",""0.364"",""0.292"",""0.689""]","[1,1,0,1]",0,34,34,34,1,1,1,,,0,FALSE,5.381,,,,,,,,,,,,,,,,,,,,,,,,,,,,,,,
,61715a02a3c88f5fb082a424,627c76debd5990ea8d3336b7,2022-05-12_04h58.03.561,classification_task,2021.2.3,Win32,59.99160118,627c6715c52fd12f31907bd0,,,,,,,,,,,,,,,,,,,,,,,l,0,"[""0.164"",""0.545"",""0.290"",""0.888""]","[1,1,0,1]",0,35,35,35,1,0,0,,,0,FALSE,2.6738,,,,,,,,,,,,,,,,,,,,,,,,,,,,,,,
,61715a02a3c88f5fb082a424,627c76debd5990ea8d3336b7,2022-05-12_04h58.03.561,classification_task,2021.2.3,Win32,59.99160118,627c6715c52fd12f31907bd0,,,,,,,,,,,,,,,,,,,,,,,l,0,"[""0.201"",""0.290"",""0.941"",""0.974""]","[1,0,1,1]",0,36,36,36,1,0,1,,,0,FALSE,1.5675,,,,,,,,,,,,,,,,,,,,,,,,,,,,,,,
,61715a02a3c88f5fb082a424,627c76debd5990ea8d3336b7,2022-05-12_04h58.03.561,classification_task,2021.2.3,Win32,59.99160118,627c6715c52fd12f31907bd0,,,,,,,,,,,,,,,,,,,,,,,a,0,"[""0.408"",""0.125"",""0.597"",""0.741""]","[0,1,1,1]",0,37,37,37,1,1,0,,,0,FALSE,1.6257,,,,,,,,,,,,,,,,,,,,,,,,,,,,,,,
,61715a02a3c88f5fb082a424,627c76debd5990ea8d3336b7,2022-05-12_04h58.03.561,classification_task,2021.2.3,Win32,59.99160118,627c6715c52fd12f31907bd0,,,,,,,,,,,,,,,,,,,,,,,l,0,"[""0.164"",""0.545"",""0.842"",""0.799""]","[1,1,1,0]",0,38,38,38,1,0,0,,,0,FALSE,1.5377,,,,,,,,,,,,,,,,,,,,,,,,,,,,,,,
,61715a02a3c88f5fb082a424,627c76debd5990ea8d3336b7,2022-05-12_04h58.03.561,classification_task,2021.2.3,Win32,59.99160118,627c6715c52fd12f31907bd0,,,,,,,,,,,,,,,,,,,,,,,a,0,"[""0.078"",""0.125"",""0.597"",""0.314""]","[1,1,1,0]",0,39,39,39,1,1,0,,,0,FALSE,3.0933,,,,,,,,,,,,,,,,,,,,,,,,,,,,,,,
,61715a02a3c88f5fb082a424,627c76debd5990ea8d3336b7,2022-05-12_04h58.03.561,classification_task,2021.2.3,Win32,59.99160118,627c6715c52fd12f31907bd0,,,,,,,,,,,,,,,,,,,,,,,a,1,"[""0.201"",""0.510"",""0.329"",""0.974""]","[1,1,0,1]",0,40,40,40,1,0,1,,,0,FALSE,1.1914,,,,,,,,,,,,,,,,,,,,,,,,,,,,,,,
,61715a02a3c88f5fb082a424,627c76debd5990ea8d3336b7,2022-05-12_04h58.03.561,classification_task,2021.2.3,Win32,59.99160118,627c6715c52fd12f31907bd0,,,,,,,,,,,,,,,,,,,,,,,a,1,"[""0.164"",""0.243"",""0.842"",""0.888""]","[1,0,1,1]",0,41,41,41,1,0,0,,,0,FALSE,1.9516,,,,,,,,,,,,,,,,,,,,,,,,,,,,,,,
,61715a02a3c88f5fb082a424,627c76debd5990ea8d3336b7,2022-05-12_04h58.03.561,classification_task,2021.2.3,Win32,59.99160118,627c6715c52fd12f31907bd0,,,,,,,,,,,,,,,,,,,,,,,a,1,"[""0.412"",""0.510"",""0.941"",""0.974""]","[0,1,1,1]",0,42,42,42,1,0,1,,,0,FALSE,1.8248,,,,,,,,,,,,,,,,,,,,,,,,,,,,,,,
,61715a02a3c88f5fb082a424,627c76debd5990ea8d3336b7,2022-05-12_04h58.03.561,classification_task,2021.2.3,Win32,59.99160118,627c6715c52fd12f31907bd0,,,,,,,,,,,,,,,,,,,,,,,l,1,"[""0.277"",""0.364"",""0.467"",""0.689""]","[0,1,1,1]",0,43,43,43,1,1,1,,,0,FALSE,2.1759,,,,,,,,,,,,,,,,,,,,,,,,,,,,,,,
,61715a02a3c88f5fb082a424,627c76debd5990ea8d3336b7,2022-05-12_04h58.03.561,classification_task,2021.2.3,Win32,59.99160118,627c6715c52fd12f31907bd0,,,,,,,,,,,,,,,,,,,,,,,a,1,"[""0.201"",""0.510"",""0.941"",""0.799""]","[1,1,1,0]",0,44,44,44,1,0,1,,,0,FALSE,1.0093,,,,,,,,,,,,,,,,,,,,,,,,,,,,,,,
,61715a02a3c88f5fb082a424,627c76debd5990ea8d3336b7,2022-05-12_04h58.03.561,classification_task,2021.2.3,Win32,59.99160118,627c6715c52fd12f31907bd0,,,,,,,,,,,,,,,,,,,,,,,a,1,"[""0.775"",""0.545"",""0.842"",""0.888""]","[0,1,1,1]",0,45,45,45,1,0,0,,,0,FALSE,2.0083,,,,,,,,,,,,,,,,,,,,,,,,,,,,,,,
,61715a02a3c88f5fb082a424,627c76debd5990ea8d3336b7,2022-05-12_04h58.03.561,classification_task,2021.2.3,Win32,59.99160118,627c6715c52fd12f31907bd0,,,,,,,,,,,,,,,,,,,,,,,l,1,"[""0.034"",""0.364"",""0.467"",""0.277""]","[1,1,1,0]",0,46,46,46,1,1,1,,,0,FALSE,1.6075,,,,,,,,,,,,,,,,,,,,,,,,,,,,,,,
,61715a02a3c88f5fb082a424,627c76debd5990ea8d3336b7,2022-05-12_04h58.03.561,classification_task,2021.2.3,Win32,59.99160118,627c6715c52fd12f31907bd0,,,,,,,,,,,,,,,,,,,,,,,a,0,"[""0.034"",""0.290"",""0.467"",""0.689""]","[1,0,1,1]",0,47,47,47,1,1,1,,,0,FALSE,2.7367,,,,,,,,,,,,,,,,,,,,,,,,,,,,,,,
,61715a02a3c88f5fb082a424,627c76debd5990ea8d3336b7,2022-05-12_04h58.03.561,classification_task,2021.2.3,Win32,59.99160118,627c6715c52fd12f31907bd0,,,,,,,,,,,,,,,,,,,,,,,l,0,"[""0.164"",""0.545"",""0.842"",""0.248""]","[1,1,1,0]",0,48,48,48,1,0,0,,,0,FALSE,1.8265,,,,,,,,,,,,,,,,,,,,,,,,,,,,,,,
,61715a02a3c88f5fb082a424,627c76debd5990ea8d3336b7,2022-05-12_04h58.03.561,classification_task,2021.2.3,Win32,59.99160118,627c6715c52fd12f31907bd0,,,,,,,,,,,,,,,,,,,,,,,a,1,"[""0.277"",""0.510"",""0.941"",""0.974""]","[0,1,1,1]",0,49,49,49,1,0,1,,,0,FALSE,1.398,,,,,,,,,,,,,,,,,,,,,,,,,,,,,,,
,61715a02a3c88f5fb082a424,627c76debd5990ea8d3336b7,2022-05-12_04h58.03.561,classification_task,2021.2.3,Win32,59.99160118,627c6715c52fd12f31907bd0,,,,,,,,,,,,,,,,,,,,,,,a,1,"[""0.799"",""0.545"",""0.842"",""0.888""]","[0,1,1,1]",0,50,50,50,1,0,0,,,0,FALSE,1.7392,,,,,,,,,,,,,,,,,,,,,,,,,,,,,,,
,61715a02a3c88f5fb082a424,627c76debd5990ea8d3336b7,2022-05-12_04h58.03.561,classification_task,2021.2.3,Win32,59.99160118,627c6715c52fd12f31907bd0,,,,,,,,,,,,,,,,,,,,,,,a,0,"[""0.775"",""0.364"",""0.467"",""0.689""]","[0,1,1,1]",0,51,51,51,1,1,1,,,0,FALSE,1.3048,,,,,,,,,,,,,,,,,,,,,,,,,,,,,,,
,61715a02a3c88f5fb082a424,627c76debd5990ea8d3336b7,2022-05-12_04h58.03.561,classification_task,2021.2.3,Win32,59.99160118,627c6715c52fd12f31907bd0,,,,,,,,,,,,,,,,,,,,,,,l,1,"[""0.078"",""0.125"",""0.408"",""0.741""]","[1,1,0,1]",0,52,52,52,1,1,0,,,0,FALSE,1.2334,,,,,,,,,,,,,,,,,,,,,,,,,,,,,,,
,61715a02a3c88f5fb082a424,627c76debd5990ea8d3336b7,2022-05-12_04h58.03.561,classification_task,2021.2.3,Win32,59.99160118,627c6715c52fd12f31907bd0,,,,,,,,,,,,,,,,,,,,,,,a,1,"[""0.164"",""0.804"",""0.842"",""0.888""]","[1,0,1,1]",0,53,53,53,1,0,0,,,0,FALSE,1.9808,,,,,,,,,,,,,,,,,,,,,,,,,,,,,,,
,61715a02a3c88f5fb082a424,627c76debd5990ea8d3336b7,2022-05-12_04h58.03.561,classification_task,2021.2.3,Win32,59.99160118,627c6715c52fd12f31907bd0,,,,,,,,,,,,,,,,,,,,,,,l,1,"[""0.034"",""0.253"",""0.467"",""0.689""]","[1,0,1,1]",0,54,54,54,1,1,1,,,0,FALSE,1.5015,,,,,,,,,,,,,,,,,,,,,,,,,,,,,,,
,61715a02a3c88f5fb082a424,627c76debd5990ea8d3336b7,2022-05-12_04h58.03.561,classification_task,2021.2.3,Win32,59.99160118,627c6715c52fd12f31907bd0,,,,,,,,,,,,,,,,,,,,,,,a,1,"[""0.201"",""0.329"",""0.941"",""0.974""]","[1,0,1,1]",0,55,55,55,1,0,1,,,0,FALSE,1.2534,,,,,,,,,,,,,,,,,,,,,,,,,,,,,,,
,61715a02a3c88f5fb082a424,627c76debd5990ea8d3336b7,2022-05-12_04h58.03.561,classification_task,2021.2.3,Win32,59.99160118,627c6715c52fd12f31907bd0,,,,,,,,,,,,,,,,,,,,,,,l,1,"[""0.034"",""0.364"",""0.467"",""0.289""]","[1,1,1,0]",0,56,56,56,1,1,1,,,0,FALSE,2.0287,,,,,,,,,,,,,,,,,,,,,,,,,,,,,,,
,61715a02a3c88f5fb082a424,627c76debd5990ea8d3336b7,2022-05-12_04h58.03.561,classification_task,2021.2.3,Win32,59.99160118,627c6715c52fd12f31907bd0,,,,,,,,,,,,,,,,,,,,,,,a,0,"[""0.078"",""0.775"",""0.597"",""0.741""]","[1,0,1,1]",0,57,57,57,1,1,0,,,0,FALSE,1.9111,,,,,,,,,,,,,,,,,,,,,,,,,,,,,,,
,61715a02a3c88f5fb082a424,627c76debd5990ea8d3336b7,2022-05-12_04h58.03.561,classification_task,2021.2.3,Win32,59.99160118,627c6715c52fd12f31907bd0,,,,,,,,,,,,,,,,,,,,,,,a,0,"[""0.078"",""0.125"",""0.597"",""0.277""]","[1,1,1,0]",0,58,58,58,1,1,0,,,0,FALSE,1.762,,,,,,,,,,,,,,,,,,,,,,,,,,,,,,,
,61715a02a3c88f5fb082a424,627c76debd5990ea8d3336b7,2022-05-12_04h58.03.561,classification_task,2021.2.3,Win32,59.99160118,627c6715c52fd12f31907bd0,,,,,,,,,,,,,,,,,,,,,,,l,1,"[""0.253"",""0.125"",""0.597"",""0.741""]","[0,1,1,1]",0,59,59,59,1,1,0,,,0,FALSE,0.6048,,,,,,,,,,,,,,,,,,,,,,,,,,,,,,,
,61715a02a3c88f5fb082a424,627c76debd5990ea8d3336b7,2022-05-12_04h58.03.561,classification_task,2021.2.3,Win32,59.99160118,627c6715c52fd12f31907bd0,,,,,,,,,,,,,,,,,,,,,,,a,1,"[""0.201"",""0.510"",""0.941"",""0.292""]","[1,1,1,0]",0,60,60,60,1,0,1,,,0,FALSE,1.3541,,,,,,,,,,,,,,,,,,,,,,,,,,,,,,,
,61715a02a3c88f5fb082a424,627c76debd5990ea8d3336b7,2022-05-12_04h58.03.561,classification_task,2021.2.3,Win32,59.99160118,627c6715c52fd12f31907bd0,,,,,,,,,,,,,,,,,,,,,,,l,0,"[""0.164"",""0.545"",""0.775"",""0.888""]","[1,1,0,1]",0,61,61,61,1,0,0,,,0,FALSE,1.2933,,,,,,,,,,,,,,,,,,,,,,,,,,,,,,,
,61715a02a3c88f5fb082a424,627c76debd5990ea8d3336b7,2022-05-12_04h58.03.561,classification_task,2021.2.3,Win32,59.99160118,627c6715c52fd12f31907bd0,,,,,,,,,,,,,,,,,,,,,,,l,0,"[""0.201"",""0.510"",""0.412"",""0.974""]","[1,1,0,1]",0,62,62,62,1,0,1,,,0,FALSE,1.1883,,,,,,,,,,,,,,,,,,,,,,,,,,,,,,,
,61715a02a3c88f5fb082a424,627c76debd5990ea8d3336b7,2022-05-12_04h58.03.561,classification_task,2021.2.3,Win32,59.99160118,627c6715c52fd12f31907bd0,,,,,,,,,,,,,,,,,,,,,,,a,0,"[""0.034"",""0.364"",""0.289"",""0.689""]","[1,1,0,1]",0,63,63,63,1,1,1,,,0,FALSE,0.3035,,,,,,,,,,,,,,,,,,,,,,,,,,,,,,,
,61715a02a3c88f5fb082a424,627c76debd5990ea8d3336b7,2022-05-12_04h58.03.561,classification_task,2021.2.3,Win32,59.99160118,627c6715c52fd12f31907bd0,,,,,,,,,,,,,,,,,,,,,,,,,,,,,,,,,,,,,,,0, ,,0,8.306878307,651.5074,0,0,0,0,1,2,1,,,,,,,,,,,,,,,,,,
,61715a02a3c88f5fb082a424,627c76debd5990ea8d3336b7,2022-05-12_04h58.03.561,classification_task,2021.2.3,Win32,59.99160118,627c6715c52fd12f31907bd0,,,,,,,,,,,,,,,,,,,,,,,,,,,,,,,,,,,,,,,1,  ,,0,10,659.6412,0,0,0,0,1,2,1,,,,,,,,,,,,,,,,,,
,61715a02a3c88f5fb082a424,627c76debd5990ea8d3336b7,2022-05-12_04h58.03.561,classification_task,2021.2.3,Win32,59.99160118,627c6715c52fd12f31907bd0,,,,,,,,,,,,,,,,,,,,,,,,,,,,,,,,,,,,,,,2,  ,,0,10,670.4662,0,0,0,0,1,2,1,,,,,,,,,,,,,,,,,,
,61715a02a3c88f5fb082a424,627c76debd5990ea8d3336b7,2022-05-12_04h58.03.561,classification_task,2021.2.3,Win32,59.99160118,627c6715c52fd12f31907bd0,,,,,,,,,,,,,,,,,,,,,,,,,,,,,,,,,,,,,,,,,,,,,0,0,0,0,1,,1,,,,,,,,,,,,,,,,,,
,61715a02a3c88f5fb082a424,627c76debd5990ea8d3336b7,2022-05-12_04h58.03.561,classification_task,2021.2.3,Win32,59.99160118,627c6715c52fd12f31907bd0,,,,,,,,,,,,,,,,,,,,,space,19.1225,a,1,"[""0.201"",""0.510"",""0.941"",""0.329""]","[1,1,1,0]",0,0,0,0,1,0,1,,,0,FALSE,2.7797,,,,,,,,,,,,,,,,,,,,,,,,,,,,,,,
,61715a02a3c88f5fb082a424,627c76debd5990ea8d3336b7,2022-05-12_04h58.03.561,classification_task,2021.2.3,Win32,59.99160118,627c6715c52fd12f31907bd0,,,,,,,,,,,,,,,,,,,,,,,a,0,"[""0.804"",""0.125"",""0.597"",""0.741""]","[0,1,1,1]",0,1,1,1,1,1,0,,,0,FALSE,1.9172,,,,,,,,,,,,,,,,,,,,,,,,,,,,,,,
,61715a02a3c88f5fb082a424,627c76debd5990ea8d3336b7,2022-05-12_04h58.03.561,classification_task,2021.2.3,Win32,59.99160118,627c6715c52fd12f31907bd0,,,,,,,,,,,,,,,,,,,,,,,a,0,"[""0.034"",""0.364"",""0.467"",""0.412""]","[1,1,1,0]",0,2,2,2,1,1,1,,,0,FALSE,1.2938,,,,,,,,,,,,,,,,,,,,,,,,,,,,,,,
,61715a02a3c88f5fb082a424,627c76debd5990ea8d3336b7,2022-05-12_04h58.03.561,classification_task,2021.2.3,Win32,59.99160118,627c6715c52fd12f31907bd0,,,,,,,,,,,,,,,,,,,,,,,l,1,"[""0.034"",""0.364"",""0.289"",""0.689""]","[1,1,0,1]",0,3,3,3,1,1,1,,,0,FALSE,1.347,,,,,,,,,,,,,,,,,,,,,,,,,,,,,,,
,61715a02a3c88f5fb082a424,627c76debd5990ea8d3336b7,2022-05-12_04h58.03.561,classification_task,2021.2.3,Win32,59.99160118,627c6715c52fd12f31907bd0,,,,,,,,,,,,,,,,,,,,,,,a,0,"[""0.078"",""0.125"",""0.597"",""0.408""]","[1,1,1,0]",0,4,4,4,1,1,0,,,0,FALSE,2.5068,,,,,,,,,,,,,,,,,,,,,,,,,,,,,,,
,61715a02a3c88f5fb082a424,627c76debd5990ea8d3336b7,2022-05-12_04h58.03.561,classification_task,2021.2.3,Win32,59.99160118,627c6715c52fd12f31907bd0,,,,,,,,,,,,,,,,,,,,,,,a,1,"[""0.201"",""0.510"",""0.253"",""0.974""]","[1,1,0,1]",0,5,5,5,1,0,1,,,0,FALSE,1.1044,,,,,,,,,,,,,,,,,,,,,,,,,,,,,,,
,61715a02a3c88f5fb082a424,627c76debd5990ea8d3336b7,2022-05-12_04h58.03.561,classification_task,2021.2.3,Win32,59.99160118,627c6715c52fd12f31907bd0,,,,,,,,,,,,,,,,,,,,,,,a,1,"[""0.164"",""0.545"",""0.842"",""0.804""]","[1,1,1,0]",0,6,6,6,1,0,0,,,0,FALSE,1.214,,,,,,,,,,,,,,,,,,,,,,,,,,,,,,,
,61715a02a3c88f5fb082a424,627c76debd5990ea8d3336b7,2022-05-12_04h58.03.561,classification_task,2021.2.3,Win32,59.99160118,627c6715c52fd12f31907bd0,,,,,,,,,,,,,,,,,,,,,,,a,1,"[""0.329"",""0.510"",""0.941"",""0.974""]","[0,1,1,1]",0,7,7,7,1,0,1,,,0,FALSE,1.6849,,,,,,,,,,,,,,,,,,,,,,,,,,,,,,,
,61715a02a3c88f5fb082a424,627c76debd5990ea8d3336b7,2022-05-12_04h58.03.561,classification_task,2021.2.3,Win32,59.99160118,627c6715c52fd12f31907bd0,,,,,,,,,,,,,,,,,,,,,,,a,0,"[""0.078"",""0.415"",""0.597"",""0.741""]","[1,0,1,1]",0,8,8,8,1,1,0,,,0,FALSE,1.3638,,,,,,,,,,,,,,,,,,,,,,,,,,,,,,,
,61715a02a3c88f5fb082a424,627c76debd5990ea8d3336b7,2022-05-12_04h58.03.561,classification_task,2021.2.3,Win32,59.99160118,627c6715c52fd12f31907bd0,,,,,,,,,,,,,,,,,,,,,,,l,1,"[""0.078"",""0.125"",""0.277"",""0.741""]","[1,1,0,1]",0,9,9,9,1,1,0,,,0,FALSE,0.8161,,,,,,,,,,,,,,,,,,,,,,,,,,,,,,,
,61715a02a3c88f5fb082a424,627c76debd5990ea8d3336b7,2022-05-12_04h58.03.561,classification_task,2021.2.3,Win32,59.99160118,627c6715c52fd12f31907bd0,,,,,,,,,,,,,,,,,,,,,,,l,1,"[""0.289"",""0.364"",""0.467"",""0.689""]","[0,1,1,1]",0,10,10,10,1,1,1,,,0,FALSE,1.1073,,,,,,,,,,,,,,,,,,,,,,,,,,,,,,,
,61715a02a3c88f5fb082a424,627c76debd5990ea8d3336b7,2022-05-12_04h58.03.561,classification_task,2021.2.3,Win32,59.99160118,627c6715c52fd12f31907bd0,,,,,,,,,,,,,,,,,,,,,,,a,1,"[""0.277"",""0.545"",""0.842"",""0.888""]","[0,1,1,1]",0,11,11,11,1,0,0,,,0,FALSE,1.3822,,,,,,,,,,,,,,,,,,,,,,,,,,,,,,,
,61715a02a3c88f5fb082a424,627c76debd5990ea8d3336b7,2022-05-12_04h58.03.561,classification_task,2021.2.3,Win32,59.99160118,627c6715c52fd12f31907bd0,,,,,,,,,,,,,,,,,,,,,,,a,1,"[""0.164"",""0.292"",""0.842"",""0.888""]","[1,0,1,1]",0,12,12,12,1,0,0,,,0,FALSE,0.9691,,,,,,,,,,,,,,,,,,,,,,,,,,,,,,,
,61715a02a3c88f5fb082a424,627c76debd5990ea8d3336b7,2022-05-12_04h58.03.561,classification_task,2021.2.3,Win32,59.99160118,627c6715c52fd12f31907bd0,,,,,,,,,,,,,,,,,,,,,,,a,1,"[""0.201"",""0.799"",""0.941"",""0.974""]","[1,0,1,1]",0,13,13,13,1,0,1,,,0,FALSE,2.5054,,,,,,,,,,,,,,,,,,,,,,,,,,,,,,,
,61715a02a3c88f5fb082a424,627c76debd5990ea8d3336b7,2022-05-12_04h58.03.561,classification_task,2021.2.3,Win32,59.99160118,627c6715c52fd12f31907bd0,,,,,,,,,,,,,,,,,,,,,,,l,1,"[""0.034"",""0.289"",""0.467"",""0.689""]","[1,0,1,1]",0,14,14,14,1,1,1,,,0,FALSE,0.7667,,,,,,,,,,,,,,,,,,,,,,,,,,,,,,,
,61715a02a3c88f5fb082a424,627c76debd5990ea8d3336b7,2022-05-12_04h58.03.561,classification_task,2021.2.3,Win32,59.99160118,627c6715c52fd12f31907bd0,,,,,,,,,,,,,,,,,,,,,,,l,0,"[""0.164"",""0.545"",""0.289"",""0.888""]","[1,1,0,1]",0,15,15,15,1,0,0,,,0,FALSE,1.4518,,,,,,,,,,,,,,,,,,,,,,,,,,,,,,,
,61715a02a3c88f5fb082a424,627c76debd5990ea8d3336b7,2022-05-12_04h58.03.561,classification_task,2021.2.3,Win32,59.99160118,627c6715c52fd12f31907bd0,,,,,,,,,,,,,,,,,,,,,,,l,0,"[""0.164"",""0.545"",""0.289"",""0.888""]","[1,1,0,1]",0,16,16,16,1,0,0,,,0,FALSE,1.0797,,,,,,,,,,,,,,,,,,,,,,,,,,,,,,,
,61715a02a3c88f5fb082a424,627c76debd5990ea8d3336b7,2022-05-12_04h58.03.561,classification_task,2021.2.3,Win32,59.99160118,627c6715c52fd12f31907bd0,,,,,,,,,,,,,,,,,,,,,,,a,0,"[""0.277"",""0.125"",""0.597"",""0.741""]","[0,1,1,1]",0,17,17,17,1,1,0,,,0,FALSE,0.5712,,,,,,,,,,,,,,,,,,,,,,,,,,,,,,,
,61715a02a3c88f5fb082a424,627c76debd5990ea8d3336b7,2022-05-12_04h58.03.561,classification_task,2021.2.3,Win32,59.99160118,627c6715c52fd12f31907bd0,,,,,,,,,,,,,,,,,,,,,,,l,1,"[""0.034"",""0.248"",""0.467"",""0.689""]","[1,0,1,1]",0,18,18,18,1,1,1,,,0,FALSE,1.2318,,,,,,,,,,,,,,,,,,,,,,,,,,,,,,,
,61715a02a3c88f5fb082a424,627c76debd5990ea8d3336b7,2022-05-12_04h58.03.561,classification_task,2021.2.3,Win32,59.99160118,627c6715c52fd12f31907bd0,,,,,,,,,,,,,,,,,,,,,,,l,1,"[""0.290"",""0.364"",""0.467"",""0.689""]","[0,1,1,1]",0,19,19,19,1,1,1,,,0,FALSE,1.1564,,,,,,,,,,,,,,,,,,,,,,,,,,,,,,,
,61715a02a3c88f5fb082a424,627c76debd5990ea8d3336b7,2022-05-12_04h58.03.561,classification_task,2021.2.3,Win32,59.99160118,627c6715c52fd12f31907bd0,,,,,,,,,,,,,,,,,,,,,,,a,1,"[""0.164"",""0.314"",""0.842"",""0.888""]","[1,0,1,1]",0,20,20,20,1,0,0,,,0,FALSE,1.4745,,,,,,,,,,,,,,,,,,,,,,,,,,,,,,,
,61715a02a3c88f5fb082a424,627c76debd5990ea8d3336b7,2022-05-12_04h58.03.561,classification_task,2021.2.3,Win32,59.99160118,627c6715c52fd12f31907bd0,,,,,,,,,,,,,,,,,,,,,,,l,1,"[""0.034"",""0.364"",""0.467"",""0.248""]","[1,1,1,0]",0,21,21,21,1,1,1,,,0,FALSE,0.8838,,,,,,,,,,,,,,,,,,,,,,,,,,,,,,,
,61715a02a3c88f5fb082a424,627c76debd5990ea8d3336b7,2022-05-12_04h58.03.561,classification_task,2021.2.3,Win32,59.99160118,627c6715c52fd12f31907bd0,,,,,,,,,,,,,,,,,,,,,,,l,1,"[""0.034"",""0.364"",""0.289"",""0.689""]","[1,1,0,1]",0,22,22,22,1,1,1,,,0,FALSE,0.9972,,,,,,,,,,,,,,,,,,,,,,,,,,,,,,,
,61715a02a3c88f5fb082a424,627c76debd5990ea8d3336b7,2022-05-12_04h58.03.561,classification_task,2021.2.3,Win32,59.99160118,627c6715c52fd12f31907bd0,,,,,,,,,,,,,,,,,,,,,,,a,1,"[""0.201"",""0.510"",""0.941"",""0.412""]","[1,1,1,0]",0,23,23,23,1,0,1,,,0,FALSE,0.9296,,,,,,,,,,,,,,,,,,,,,,,,,,,,,,,
,61715a02a3c88f5fb082a424,627c76debd5990ea8d3336b7,2022-05-12_04h58.03.561,classification_task,2021.2.3,Win32,59.99160118,627c6715c52fd12f31907bd0,,,,,,,,,,,,,,,,,,,,,,,a,1,"[""0.412"",""0.545"",""0.842"",""0.888""]","[0,1,1,1]",0,24,24,24,1,0,0,,,0,FALSE,1.805,,,,,,,,,,,,,,,,,,,,,,,,,,,,,,,
,61715a02a3c88f5fb082a424,627c76debd5990ea8d3336b7,2022-05-12_04h58.03.561,classification_task,2021.2.3,Win32,59.99160118,627c6715c52fd12f31907bd0,,,,,,,,,,,,,,,,,,,,,,,l,1,"[""0.078"",""0.125"",""0.290"",""0.741""]","[1,1,0,1]",0,25,25,25,1,1,0,,,0,FALSE,1.5112,,,,,,,,,,,,,,,,,,,,,,,,,,,,,,,
,61715a02a3c88f5fb082a424,627c76debd5990ea8d3336b7,2022-05-12_04h58.03.561,classification_task,2021.2.3,Win32,59.99160118,627c6715c52fd12f31907bd0,,,,,,,,,,,,,,,,,,,,,,,a,1,"[""0.201"",""0.510"",""0.415"",""0.974""]","[1,1,0,1]",0,26,26,26,1,0,1,,,0,FALSE,1.5652,,,,,,,,,,,,,,,,,,,,,,,,,,,,,,,
,61715a02a3c88f5fb082a424,627c76debd5990ea8d3336b7,2022-05-12_04h58.03.561,classification_task,2021.2.3,Win32,59.99160118,627c6715c52fd12f31907bd0,,,,,,,,,,,,,,,,,,,,,,,a,1,"[""0.164"",""0.545"",""0.842"",""0.248""]","[1,1,1,0]",0,27,27,27,1,0,0,,,0,FALSE,1.5145,,,,,,,,,,,,,,,,,,,,,,,,,,,,,,,
,61715a02a3c88f5fb082a424,627c76debd5990ea8d3336b7,2022-05-12_04h58.03.561,classification_task,2021.2.3,Win32,59.99160118,627c6715c52fd12f31907bd0,,,,,,,,,,,,,,,,,,,,,,,a,0,"[""0.078"",""0.125"",""0.597"",""0.314""]","[1,1,1,0]",0,28,28,28,1,1,0,,,0,FALSE,1.1012,,,,,,,,,,,,,,,,,,,,,,,,,,,,,,,
,61715a02a3c88f5fb082a424,627c76debd5990ea8d3336b7,2022-05-12_04h58.03.561,classification_task,2021.2.3,Win32,59.99160118,627c6715c52fd12f31907bd0,,,,,,,,,,,,,,,,,,,,,,,a,1,"[""0.201"",""0.248"",""0.941"",""0.974""]","[1,0,1,1]",0,29,29,29,1,0,1,,,0,FALSE,0.765,,,,,,,,,,,,,,,,,,,,,,,,,,,,,,,
,61715a02a3c88f5fb082a424,627c76debd5990ea8d3336b7,2022-05-12_04h58.03.561,classification_task,2021.2.3,Win32,59.99160118,627c6715c52fd12f31907bd0,,,,,,,,,,,,,,,,,,,,,,,a,0,"[""0.078"",""0.303"",""0.597"",""0.741""]","[1,0,1,1]",0,30,30,30,1,1,0,,,0,FALSE,0.7542,,,,,,,,,,,,,,,,,,,,,,,,,,,,,,,
,61715a02a3c88f5fb082a424,627c76debd5990ea8d3336b7,2022-05-12_04h58.03.561,classification_task,2021.2.3,Win32,59.99160118,627c6715c52fd12f31907bd0,,,,,,,,,,,,,,,,,,,,,,,a,1,"[""0.799"",""0.510"",""0.941"",""0.974""]","[0,1,1,1]",0,31,31,31,1,0,1,,,0,FALSE,1.0614,,,,,,,,,,,,,,,,,,,,,,,,,,,,,,,
,61715a02a3c88f5fb082a424,627c76debd5990ea8d3336b7,2022-05-12_04h58.03.561,classification_task,2021.2.3,Win32,59.99160118,627c6715c52fd12f31907bd0,,,,,,,,,,,,,,,,,,,,,,,a,1,"[""0.201"",""0.510"",""0.303"",""0.974""]","[1,1,0,1]",0,32,32,32,1,0,1,,,0,FALSE,1.4186,,,,,,,,,,,,,,,,,,,,,,,,,,,,,,,
,61715a02a3c88f5fb082a424,627c76debd5990ea8d3336b7,2022-05-12_04h58.03.561,classification_task,2021.2.3,Win32,59.99160118,627c6715c52fd12f31907bd0,,,,,,,,,,,,,,,,,,,,,,,l,1,"[""0.078"",""0.292"",""0.597"",""0.741""]","[1,0,1,1]",0,33,33,33,1,1,0,,,0,FALSE,1.0449,,,,,,,,,,,,,,,,,,,,,,,,,,,,,,,
,61715a02a3c88f5fb082a424,627c76debd5990ea8d3336b7,2022-05-12_04h58.03.561,classification_task,2021.2.3,Win32,59.99160118,627c6715c52fd12f31907bd0,,,,,,,,,,,,,,,,,,,,,,,l,1,"[""0.034"",""0.364"",""0.467"",""0.277""]","[1,1,1,0]",0,34,34,34,1,1,1,,,0,FALSE,0.8743,,,,,,,,,,,,,,,,,,,,,,,,,,,,,,,
,61715a02a3c88f5fb082a424,627c76debd5990ea8d3336b7,2022-05-12_04h58.03.561,classification_task,2021.2.3,Win32,59.99160118,627c6715c52fd12f31907bd0,,,,,,,,,,,,,,,,,,,,,,,l,1,"[""0.078"",""0.125"",""0.597"",""0.804""]","[1,1,1,0]",0,35,35,35,1,1,0,,,0,FALSE,1.3988,,,,,,,,,,,,,,,,,,,,,,,,,,,,,,,
,61715a02a3c88f5fb082a424,627c76debd5990ea8d3336b7,2022-05-12_04h58.03.561,classification_task,2021.2.3,Win32,59.99160118,627c6715c52fd12f31907bd0,,,,,,,,,,,,,,,,,,,,,,,a,1,"[""0.314"",""0.510"",""0.941"",""0.974""]","[0,1,1,1]",0,36,36,36,1,0,1,,,0,FALSE,0.8607,,,,,,,,,,,,,,,,,,,,,,,,,,,,,,,
,61715a02a3c88f5fb082a424,627c76debd5990ea8d3336b7,2022-05-12_04h58.03.561,classification_task,2021.2.3,Win32,59.99160118,627c6715c52fd12f31907bd0,,,,,,,,,,,,,,,,,,,,,,,a,0,"[""0.034"",""0.804"",""0.467"",""0.689""]","[1,0,1,1]",0,37,37,37,1,1,1,,,0,FALSE,2.5881,,,,,,,,,,,,,,,,,,,,,,,,,,,,,,,
,61715a02a3c88f5fb082a424,627c76debd5990ea8d3336b7,2022-05-12_04h58.03.561,classification_task,2021.2.3,Win32,59.99160118,627c6715c52fd12f31907bd0,,,,,,,,,,,,,,,,,,,,,,,l,0,"[""0.201"",""0.277"",""0.941"",""0.974""]","[1,0,1,1]",0,38,38,38,1,0,1,,,0,FALSE,0.7615,,,,,,,,,,,,,,,,,,,,,,,,,,,,,,,
,61715a02a3c88f5fb082a424,627c76debd5990ea8d3336b7,2022-05-12_04h58.03.561,classification_task,2021.2.3,Win32,59.99160118,627c6715c52fd12f31907bd0,,,,,,,,,,,,,,,,,,,,,,,a,1,"[""0.201"",""0.510"",""0.941"",""0.253""]","[1,1,1,0]",0,39,39,39,1,0,1,,,0,FALSE,1.164,,,,,,,,,,,,,,,,,,,,,,,,,,,,,,,
,61715a02a3c88f5fb082a424,627c76debd5990ea8d3336b7,2022-05-12_04h58.03.561,classification_task,2021.2.3,Win32,59.99160118,627c6715c52fd12f31907bd0,,,,,,,,,,,,,,,,,,,,,,,a,1,"[""0.290"",""0.545"",""0.842"",""0.888""]","[0,1,1,1]",0,40,40,40,1,0,0,,,0,FALSE,1.2375,,,,,,,,,,,,,,,,,,,,,,,,,,,,,,,
,61715a02a3c88f5fb082a424,627c76debd5990ea8d3336b7,2022-05-12_04h58.03.561,classification_task,2021.2.3,Win32,59.99160118,627c6715c52fd12f31907bd0,,,,,,,,,,,,,,,,,,,,,,,a,1,"[""0.164"",""0.545"",""0.289"",""0.888""]","[1,1,0,1]",0,41,41,41,1,0,0,,,0,FALSE,0.9072,,,,,,,,,,,,,,,,,,,,,,,,,,,,,,,
,61715a02a3c88f5fb082a424,627c76debd5990ea8d3336b7,2022-05-12_04h58.03.561,classification_task,2021.2.3,Win32,59.99160118,627c6715c52fd12f31907bd0,,,,,,,,,,,,,,,,,,,,,,,l,1,"[""0.034"",""0.364"",""0.314"",""0.689""]","[1,1,0,1]",0,42,42,42,1,1,1,,,0,FALSE,0.9984,,,,,,,,,,,,,,,,,,,,,,,,,,,,,,,
,61715a02a3c88f5fb082a424,627c76debd5990ea8d3336b7,2022-05-12_04h58.03.561,classification_task,2021.2.3,Win32,59.99160118,627c6715c52fd12f31907bd0,,,,,,,,,,,,,,,,,,,,,,,l,1,"[""0.078"",""0.125"",""0.277"",""0.741""]","[1,1,0,1]",0,43,43,43,1,1,0,,,0,FALSE,1.2392,,,,,,,,,,,,,,,,,,,,,,,,,,,,,,,
,61715a02a3c88f5fb082a424,627c76debd5990ea8d3336b7,2022-05-12_04h58.03.561,classification_task,2021.2.3,Win32,59.99160118,627c6715c52fd12f31907bd0,,,,,,,,,,,,,,,,,,,,,,,l,1,"[""0.329"",""0.125"",""0.597"",""0.741""]","[0,1,1,1]",0,44,44,44,1,1,0,,,0,FALSE,1.7111,,,,,,,,,,,,,,,,,,,,,,,,,,,,,,,
,61715a02a3c88f5fb082a424,627c76debd5990ea8d3336b7,2022-05-12_04h58.03.561,classification_task,2021.2.3,Win32,59.99160118,627c6715c52fd12f31907bd0,,,,,,,,,,,,,,,,,,,,,,,l,1,"[""0.408"",""0.364"",""0.467"",""0.689""]","[0,1,1,1]",0,45,45,45,1,1,1,,,0,FALSE,0.8865,,,,,,,,,,,,,,,,,,,,,,,,,,,,,,,
,61715a02a3c88f5fb082a424,627c76debd5990ea8d3336b7,2022-05-12_04h58.03.561,classification_task,2021.2.3,Win32,59.99160118,627c6715c52fd12f31907bd0,,,,,,,,,,,,,,,,,,,,,,,a,1,"[""0.164"",""0.412"",""0.842"",""0.888""]","[1,0,1,1]",0,46,46,46,1,0,0,,,0,FALSE,1.0164,,,,,,,,,,,,,,,,,,,,,,,,,,,,,,,
,61715a02a3c88f5fb082a424,627c76debd5990ea8d3336b7,2022-05-12_04h58.03.561,classification_task,2021.2.3,Win32,59.99160118,627c6715c52fd12f31907bd0,,,,,,,,,,,,,,,,,,,,,,,a,1,"[""0.164"",""0.545"",""0.842"",""0.253""]","[1,1,1,0]",0,47,47,47,1,0,0,,,0,FALSE,1.0994,,,,,,,,,,,,,,,,,,,,,,,,,,,,,,,
,61715a02a3c88f5fb082a424,627c76debd5990ea8d3336b7,2022-05-12_04h58.03.561,classification_task,2021.2.3,Win32,59.99160118,627c6715c52fd12f31907bd0,,,,,,,,,,,,,,,,,,,,,,,a,1,"[""0.164"",""0.545"",""0.415"",""0.888""]","[1,1,0,1]",0,48,48,48,1,0,0,,,0,FALSE,0.8463,,,,,,,,,,,,,,,,,,,,,,,,,,,,,,,
,61715a02a3c88f5fb082a424,627c76debd5990ea8d3336b7,2022-05-12_04h58.03.561,classification_task,2021.2.3,Win32,59.99160118,627c6715c52fd12f31907bd0,,,,,,,,,,,,,,,,,,,,,,,a,0,"[""0.034"",""0.364"",""0.467"",""0.799""]","[1,1,1,0]",0,49,49,49,1,1,1,,,0,FALSE,1.0668,,,,,,,,,,,,,,,,,,,,,,,,,,,,,,,
,61715a02a3c88f5fb082a424,627c76debd5990ea8d3336b7,2022-05-12_04h58.03.561,classification_task,2021.2.3,Win32,59.99160118,627c6715c52fd12f31907bd0,,,,,,,,,,,,,,,,,,,,,,,l,1,"[""0.034"",""0.364"",""0.775"",""0.689""]","[1,1,0,1]",0,50,50,50,1,1,1,,,0,FALSE,0.634,,,,,,,,,,,,,,,,,,,,,,,,,,,,,,,
,61715a02a3c88f5fb082a424,627c76debd5990ea8d3336b7,2022-05-12_04h58.03.561,classification_task,2021.2.3,Win32,59.99160118,627c6715c52fd12f31907bd0,,,,,,,,,,,,,,,,,,,,,,,l,1,"[""0.078"",""0.243"",""0.597"",""0.741""]","[1,0,1,1]",0,51,51,51,1,1,0,,,0,FALSE,2.0175,,,,,,,,,,,,,,,,,,,,,,,,,,,,,,,
,61715a02a3c88f5fb082a424,627c76debd5990ea8d3336b7,2022-05-12_04h58.03.561,classification_task,2021.2.3,Win32,59.99160118,627c6715c52fd12f31907bd0,,,,,,,,,,,,,,,,,,,,,,,a,1,"[""0.201"",""0.510"",""0.941"",""0.314""]","[1,1,1,0]",0,52,52,52,1,0,1,,,0,FALSE,0.8348,,,,,,,,,,,,,,,,,,,,,,,,,,,,,,,
,61715a02a3c88f5fb082a424,627c76debd5990ea8d3336b7,2022-05-12_04h58.03.561,classification_task,2021.2.3,Win32,59.99160118,627c6715c52fd12f31907bd0,,,,,,,,,,,,,,,,,,,,,,,l,1,"[""0.078"",""0.125"",""0.799"",""0.741""]","[1,1,0,1]",0,53,53,53,1,1,0,,,0,FALSE,2.3658,,,,,,,,,,,,,,,,,,,,,,,,,,,,,,,
,61715a02a3c88f5fb082a424,627c76debd5990ea8d3336b7,2022-05-12_04h58.03.561,classification_task,2021.2.3,Win32,59.99160118,627c6715c52fd12f31907bd0,,,,,,,,,,,,,,,,,,,,,,,l,1,"[""0.314"",""0.125"",""0.597"",""0.741""]","[0,1,1,1]",0,54,54,54,1,1,0,,,0,FALSE,1.9105,,,,,,,,,,,,,,,,,,,,,,,,,,,,,,,
,61715a02a3c88f5fb082a424,627c76debd5990ea8d3336b7,2022-05-12_04h58.03.561,classification_task,2021.2.3,Win32,59.99160118,627c6715c52fd12f31907bd0,,,,,,,,,,,,,,,,,,,,,,,a,1,"[""0.243"",""0.545"",""0.842"",""0.888""]","[0,1,1,1]",0,55,55,55,1,0,0,,,0,FALSE,1.2327,,,,,,,,,,,,,,,,,,,,,,,,,,,,,,,
,61715a02a3c88f5fb082a424,627c76debd5990ea8d3336b7,2022-05-12_04h58.03.561,classification_task,2021.2.3,Win32,59.99160118,627c6715c52fd12f31907bd0,,,,,,,,,,,,,,,,,,,,,,,a,1,"[""0.799"",""0.510"",""0.941"",""0.974""]","[0,1,1,1]",0,56,56,56,1,0,1,,,0,FALSE,0.8439,,,,,,,,,,,,,,,,,,,,,,,,,,,,,,,
,61715a02a3c88f5fb082a424,627c76debd5990ea8d3336b7,2022-05-12_04h58.03.561,classification_task,2021.2.3,Win32,59.99160118,627c6715c52fd12f31907bd0,,,,,,,,,,,,,,,,,,,,,,,a,1,"[""0.201"",""0.775"",""0.941"",""0.974""]","[1,0,1,1]",0,57,57,57,1,0,1,,,0,FALSE,0.7991,,,,,,,,,,,,,,,,,,,,,,,,,,,,,,,
,61715a02a3c88f5fb082a424,627c76debd5990ea8d3336b7,2022-05-12_04h58.03.561,classification_task,2021.2.3,Win32,59.99160118,627c6715c52fd12f31907bd0,,,,,,,,,,,,,,,,,,,,,,,a,1,"[""0.164"",""0.243"",""0.842"",""0.888""]","[1,0,1,1]",0,58,58,58,1,0,0,,,0,FALSE,0.7489,,,,,,,,,,,,,,,,,,,,,,,,,,,,,,,
,61715a02a3c88f5fb082a424,627c76debd5990ea8d3336b7,2022-05-12_04h58.03.561,classification_task,2021.2.3,Win32,59.99160118,627c6715c52fd12f31907bd0,,,,,,,,,,,,,,,,,,,,,,,a,1,"[""0.201"",""0.510"",""0.314"",""0.974""]","[1,1,0,1]",0,59,59,59,1,0,1,,,0,FALSE,0.717,,,,,,,,,,,,,,,,,,,,,,,,,,,,,,,
,61715a02a3c88f5fb082a424,627c76debd5990ea8d3336b7,2022-05-12_04h58.03.561,classification_task,2021.2.3,Win32,59.99160118,627c6715c52fd12f31907bd0,,,,,,,,,,,,,,,,,,,,,,,l,1,"[""0.078"",""0.125"",""0.597"",""0.253""]","[1,1,1,0]",0,60,60,60,1,1,0,,,0,FALSE,0.9173,,,,,,,,,,,,,,,,,,,,,,,,,,,,,,,
,61715a02a3c88f5fb082a424,627c76debd5990ea8d3336b7,2022-05-12_04h58.03.561,classification_task,2021.2.3,Win32,59.99160118,627c6715c52fd12f31907bd0,,,,,,,,,,,,,,,,,,,,,,,a,1,"[""0.164"",""0.545"",""0.842"",""0.775""]","[1,1,1,0]",0,61,61,61,1,0,0,,,0,FALSE,1.7207,,,,,,,,,,,,,,,,,,,,,,,,,,,,,,,
,61715a02a3c88f5fb082a424,627c76debd5990ea8d3336b7,2022-05-12_04h58.03.561,classification_task,2021.2.3,Win32,59.99160118,627c6715c52fd12f31907bd0,,,,,,,,,,,,,,,,,,,,,,,l,1,"[""0.034"",""0.243"",""0.467"",""0.689""]","[1,0,1,1]",0,62,62,62,1,1,1,,,0,FALSE,1.1186,,,,,,,,,,,,,,,,,,,,,,,,,,,,,,,
,61715a02a3c88f5fb082a424,627c76debd5990ea8d3336b7,2022-05-12_04h58.03.561,classification_task,2021.2.3,Win32,59.99160118,627c6715c52fd12f31907bd0,,,,,,,,,,,,,,,,,,,,,,,l,1,"[""0.329"",""0.364"",""0.467"",""0.689""]","[0,1,1,1]",0,63,63,63,1,1,1,,,0,FALSE,1.1898,,,,,,,,,,,,,,,,,,,,,,,,,,,,,,,
,61715a02a3c88f5fb082a424,627c76debd5990ea8d3336b7,2022-05-12_04h58.03.561,classification_task,2021.2.3,Win32,59.99160118,627c6715c52fd12f31907bd0,,,,,,,,,,,,,,,,,,,,,,,,,,,,,,,,,,,,,,,0, ,,0,6.274526014,174.13,0,1,1,1,1,2,2,,,,,,,,,,,,,,,,,,
,61715a02a3c88f5fb082a424,627c76debd5990ea8d3336b7,2022-05-12_04h58.03.561,classification_task,2021.2.3,Win32,59.99160118,627c6715c52fd12f31907bd0,,,,,,,,,,,,,,,,,,,,,,,,,,,,,,,,,,,,,,,1,  ,,0,7.82462522,180.0371,0,1,1,1,1,2,2,,,,,,,,,,,,,,,,,,
,61715a02a3c88f5fb082a424,627c76debd5990ea8d3336b7,2022-05-12_04h58.03.561,classification_task,2021.2.3,Win32,59.99160118,627c6715c52fd12f31907bd0,,,,,,,,,,,,,,,,,,,,,,,,,,,,,,,,,,,,,,,2,  ,,0,8.065751764,183.1017,0,1,1,1,1,2,2,,,,,,,,,,,,,,,,,,
,61715a02a3c88f5fb082a424,627c76debd5990ea8d3336b7,2022-05-12_04h58.03.561,classification_task,2021.2.3,Win32,59.99160118,627c6715c52fd12f31907bd0,,,,,,,,,,,,,,,,,,,,,,,,,,,,,,,,,,,,,,,,,,,,,0,1,1,1,1,,2,,,,,,,,,,,,,,,,,,
,61715a02a3c88f5fb082a424,627c76debd5990ea8d3336b7,2022-05-12_04h58.03.561,classification_task,2021.2.3,Win32,59.99160118,627c6715c52fd12f31907bd0,,,,,,,,,,,,,,,,,,,,,space,15.017,l,1,"[""0.034"",""0.292"",""0.467"",""0.689""]","[1,0,1,1]",0,0,0,0,1,1,1,,,0,FALSE,1.9189,,,,,,,,,,,,,,,,,,,,,,,,,,,,,,,
,61715a02a3c88f5fb082a424,627c76debd5990ea8d3336b7,2022-05-12_04h58.03.561,classification_task,2021.2.3,Win32,59.99160118,627c6715c52fd12f31907bd0,,,,,,,,,,,,,,,,,,,,,,,a,1,"[""0.314"",""0.545"",""0.842"",""0.888""]","[0,1,1,1]",0,1,1,1,1,0,0,,,0,FALSE,1.481,,,,,,,,,,,,,,,,,,,,,,,,,,,,,,,
,61715a02a3c88f5fb082a424,627c76debd5990ea8d3336b7,2022-05-12_04h58.03.561,classification_task,2021.2.3,Win32,59.99160118,627c6715c52fd12f31907bd0,,,,,,,,,,,,,,,,,,,,,,,a,1,"[""0.164"",""0.290"",""0.842"",""0.888""]","[1,0,1,1]",0,2,2,2,1,0,0,,,0,FALSE,0.6817,,,,,,,,,,,,,,,,,,,,,,,,,,,,,,,
,61715a02a3c88f5fb082a424,627c76debd5990ea8d3336b7,2022-05-12_04h58.03.561,classification_task,2021.2.3,Win32,59.99160118,627c6715c52fd12f31907bd0,,,,,,,,,,,,,,,,,,,,,,,a,1,"[""0.164"",""0.545"",""0.842"",""0.292""]","[1,1,1,0]",0,3,3,3,1,0,0,,,0,FALSE,1.2064,,,,,,,,,,,,,,,,,,,,,,,,,,,,,,,
,61715a02a3c88f5fb082a424,627c76debd5990ea8d3336b7,2022-05-12_04h58.03.561,classification_task,2021.2.3,Win32,59.99160118,627c6715c52fd12f31907bd0,,,,,,,,,,,,,,,,,,,,,,,l,1,"[""0.078"",""0.125"",""0.597"",""0.290""]","[1,1,1,0]",0,4,4,4,1,1,0,,,0,FALSE,1.0076,,,,,,,,,,,,,,,,,,,,,,,,,,,,,,,
,61715a02a3c88f5fb082a424,627c76debd5990ea8d3336b7,2022-05-12_04h58.03.561,classification_task,2021.2.3,Win32,59.99160118,627c6715c52fd12f31907bd0,,,,,,,,,,,,,,,,,,,,,,,a,1,"[""0.201"",""0.510"",""0.941"",""0.292""]","[1,1,1,0]",0,5,5,5,1,0,1,,,0,FALSE,1.5999,,,,,,,,,,,,,,,,,,,,,,,,,,,,,,,
,61715a02a3c88f5fb082a424,627c76debd5990ea8d3336b7,2022-05-12_04h58.03.561,classification_task,2021.2.3,Win32,59.99160118,627c6715c52fd12f31907bd0,,,,,,,,,,,,,,,,,,,,,,,a,1,"[""0.164"",""0.545"",""0.243"",""0.888""]","[1,1,0,1]",0,6,6,6,1,0,0,,,0,FALSE,1.9413,,,,,,,,,,,,,,,,,,,,,,,,,,,,,,,
,61715a02a3c88f5fb082a424,627c76debd5990ea8d3336b7,2022-05-12_04h58.03.561,classification_task,2021.2.3,Win32,59.99160118,627c6715c52fd12f31907bd0,,,,,,,,,,,,,,,,,,,,,,,l,1,"[""0.277"",""0.364"",""0.467"",""0.689""]","[0,1,1,1]",0,7,7,7,1,1,1,,,0,FALSE,1.124,,,,,,,,,,,,,,,,,,,,,,,,,,,,,,,
,61715a02a3c88f5fb082a424,627c76debd5990ea8d3336b7,2022-05-12_04h58.03.561,classification_task,2021.2.3,Win32,59.99160118,627c6715c52fd12f31907bd0,,,,,,,,,,,,,,,,,,,,,,,l,1,"[""0.253"",""0.125"",""0.597"",""0.741""]","[0,1,1,1]",0,8,8,8,1,1,0,,,0,FALSE,1.302,,,,,,,,,,,,,,,,,,,,,,,,,,,,,,,
,61715a02a3c88f5fb082a424,627c76debd5990ea8d3336b7,2022-05-12_04h58.03.561,classification_task,2021.2.3,Win32,59.99160118,627c6715c52fd12f31907bd0,,,,,,,,,,,,,,,,,,,,,,,a,1,"[""0.775"",""0.510"",""0.941"",""0.974""]","[0,1,1,1]",0,9,9,9,1,0,1,,,0,FALSE,1.0161,,,,,,,,,,,,,,,,,,,,,,,,,,,,,,,
,61715a02a3c88f5fb082a424,627c76debd5990ea8d3336b7,2022-05-12_04h58.03.561,classification_task,2021.2.3,Win32,59.99160118,627c6715c52fd12f31907bd0,,,,,,,,,,,,,,,,,,,,,,,l,1,"[""0.078"",""0.277"",""0.597"",""0.741""]","[1,0,1,1]",0,10,10,10,1,1,0,,,0,FALSE,1.2157,,,,,,,,,,,,,,,,,,,,,,,,,,,,,,,
,61715a02a3c88f5fb082a424,627c76debd5990ea8d3336b7,2022-05-12_04h58.03.561,classification_task,2021.2.3,Win32,59.99160118,627c6715c52fd12f31907bd0,,,,,,,,,,,,,,,,,,,,,,,a,1,"[""0.201"",""0.289"",""0.941"",""0.974""]","[1,0,1,1]",0,11,11,11,1,0,1,,,0,FALSE,0.7827,,,,,,,,,,,,,,,,,,,,,,,,,,,,,,,
,61715a02a3c88f5fb082a424,627c76debd5990ea8d3336b7,2022-05-12_04h58.03.561,classification_task,2021.2.3,Win32,59.99160118,627c6715c52fd12f31907bd0,,,,,,,,,,,,,,,,,,,,,,,l,1,"[""0.034"",""0.364"",""0.314"",""0.689""]","[1,1,0,1]",0,12,12,12,1,1,1,,,0,FALSE,1.0155,,,,,,,,,,,,,,,,,,,,,,,,,,,,,,,
,61715a02a3c88f5fb082a424,627c76debd5990ea8d3336b7,2022-05-12_04h58.03.561,classification_task,2021.2.3,Win32,59.99160118,627c6715c52fd12f31907bd0,,,,,,,,,,,,,,,,,,,,,,,l,1,"[""0.034"",""0.364"",""0.467"",""0.277""]","[1,1,1,0]",0,13,13,13,1,1,1,,,0,FALSE,1.8154,,,,,,,,,,,,,,,,,,,,,,,,,,,,,,,
,61715a02a3c88f5fb082a424,627c76debd5990ea8d3336b7,2022-05-12_04h58.03.561,classification_task,2021.2.3,Win32,59.99160118,627c6715c52fd12f31907bd0,,,,,,,,,,,,,,,,,,,,,,,a,1,"[""0.201"",""0.510"",""0.799"",""0.974""]","[1,1,0,1]",0,14,14,14,1,0,1,,,0,FALSE,0.8434,,,,,,,,,,,,,,,,,,,,,,,,,,,,,,,
,61715a02a3c88f5fb082a424,627c76debd5990ea8d3336b7,2022-05-12_04h58.03.561,classification_task,2021.2.3,Win32,59.99160118,627c6715c52fd12f31907bd0,,,,,,,,,,,,,,,,,,,,,,,l,1,"[""0.078"",""0.125"",""0.804"",""0.741""]","[1,1,0,1]",0,15,15,15,1,1,0,,,0,FALSE,1.5977,,,,,,,,,,,,,,,,,,,,,,,,,,,,,,,
,61715a02a3c88f5fb082a424,627c76debd5990ea8d3336b7,2022-05-12_04h58.03.561,classification_task,2021.2.3,Win32,59.99160118,627c6715c52fd12f31907bd0,,,,,,,,,,,,,,,,,,,,,,,l,1,"[""0.412"",""0.364"",""0.467"",""0.689""]","[0,1,1,1]",0,16,16,16,1,1,1,,,0,FALSE,1.7103,,,,,,,,,,,,,,,,,,,,,,,,,,,,,,,
,61715a02a3c88f5fb082a424,627c76debd5990ea8d3336b7,2022-05-12_04h58.03.561,classification_task,2021.2.3,Win32,59.99160118,627c6715c52fd12f31907bd0,,,,,,,,,,,,,,,,,,,,,,,a,1,"[""0.201"",""0.510"",""0.941"",""0.243""]","[1,1,1,0]",0,17,17,17,1,0,1,,,0,FALSE,0.9483,,,,,,,,,,,,,,,,,,,,,,,,,,,,,,,
,61715a02a3c88f5fb082a424,627c76debd5990ea8d3336b7,2022-05-12_04h58.03.561,classification_task,2021.2.3,Win32,59.99160118,627c6715c52fd12f31907bd0,,,,,,,,,,,,,,,,,,,,,,,l,1,"[""0.034"",""0.292"",""0.467"",""0.689""]","[1,0,1,1]",0,18,18,18,1,1,1,,,0,FALSE,1.3037,,,,,,,,,,,,,,,,,,,,,,,,,,,,,,,
,61715a02a3c88f5fb082a424,627c76debd5990ea8d3336b7,2022-05-12_04h58.03.561,classification_task,2021.2.3,Win32,59.99160118,627c6715c52fd12f31907bd0,,,,,,,,,,,,,,,,,,,,,,,a,1,"[""0.253"",""0.545"",""0.842"",""0.888""]","[0,1,1,1]",0,19,19,19,1,0,0,,,0,FALSE,1.1794,,,,,,,,,,,,,,,,,,,,,,,,,,,,,,,
,61715a02a3c88f5fb082a424,627c76debd5990ea8d3336b7,2022-05-12_04h58.03.561,classification_task,2021.2.3,Win32,59.99160118,627c6715c52fd12f31907bd0,,,,,,,,,,,,,,,,,,,,,,,a,1,"[""0.164"",""0.289"",""0.842"",""0.888""]","[1,0,1,1]",0,20,20,20,1,0,0,,,0,FALSE,1.7953,,,,,,,,,,,,,,,,,,,,,,,,,,,,,,,
,61715a02a3c88f5fb082a424,627c76debd5990ea8d3336b7,2022-05-12_04h58.03.561,classification_task,2021.2.3,Win32,59.99160118,627c6715c52fd12f31907bd0,,,,,,,,,,,,,,,,,,,,,,,l,1,"[""0.248"",""0.125"",""0.597"",""0.741""]","[0,1,1,1]",0,21,21,21,1,1,0,,,0,FALSE,0.8844,,,,,,,,,,,,,,,,,,,,,,,,,,,,,,,
,61715a02a3c88f5fb082a424,627c76debd5990ea8d3336b7,2022-05-12_04h58.03.561,classification_task,2021.2.3,Win32,59.99160118,627c6715c52fd12f31907bd0,,,,,,,,,,,,,,,,,,,,,,,l,1,"[""0.078"",""0.125"",""0.597"",""0.412""]","[1,1,1,0]",0,22,22,22,1,1,0,,,0,FALSE,1.3097,,,,,,,,,,,,,,,,,,,,,,,,,,,,,,,
,61715a02a3c88f5fb082a424,627c76debd5990ea8d3336b7,2022-05-12_04h58.03.561,classification_task,2021.2.3,Win32,59.99160118,627c6715c52fd12f31907bd0,,,,,,,,,,,,,,,,,,,,,,,a,1,"[""0.201"",""0.329"",""0.941"",""0.974""]","[1,0,1,1]",0,23,23,23,1,0,1,,,0,FALSE,1.9826,,,,,,,,,,,,,,,,,,,,,,,,,,,,,,,
,61715a02a3c88f5fb082a424,627c76debd5990ea8d3336b7,2022-05-12_04h58.03.561,classification_task,2021.2.3,Win32,59.99160118,627c6715c52fd12f31907bd0,,,,,,,,,,,,,,,,,,,,,,,l,1,"[""0.034"",""0.364"",""0.329"",""0.689""]","[1,1,0,1]",0,24,24,24,1,1,1,,,0,FALSE,1.3611,,,,,,,,,,,,,,,,,,,,,,,,,,,,,,,
,61715a02a3c88f5fb082a424,627c76debd5990ea8d3336b7,2022-05-12_04h58.03.561,classification_task,2021.2.3,Win32,59.99160118,627c6715c52fd12f31907bd0,,,,,,,,,,,,,,,,,,,,,,,l,1,"[""0.078"",""0.125"",""0.314"",""0.741""]","[1,1,0,1]",0,25,25,25,1,1,0,,,0,FALSE,2.0477,,,,,,,,,,,,,,,,,,,,,,,,,,,,,,,
,61715a02a3c88f5fb082a424,627c76debd5990ea8d3336b7,2022-05-12_04h58.03.561,classification_task,2021.2.3,Win32,59.99160118,627c6715c52fd12f31907bd0,,,,,,,,,,,,,,,,,,,,,,,l,1,"[""0.078"",""0.314"",""0.597"",""0.741""]","[1,0,1,1]",0,26,26,26,1,1,0,,,0,FALSE,1.8493,,,,,,,,,,,,,,,,,,,,,,,,,,,,,,,
,61715a02a3c88f5fb082a424,627c76debd5990ea8d3336b7,2022-05-12_04h58.03.561,classification_task,2021.2.3,Win32,59.99160118,627c6715c52fd12f31907bd0,,,,,,,,,,,,,,,,,,,,,,,a,1,"[""0.201"",""0.510"",""0.292"",""0.974""]","[1,1,0,1]",0,27,27,27,1,0,1,,,0,FALSE,0.9567,,,,,,,,,,,,,,,,,,,,,,,,,,,,,,,
,61715a02a3c88f5fb082a424,627c76debd5990ea8d3336b7,2022-05-12_04h58.03.561,classification_task,2021.2.3,Win32,59.99160118,627c6715c52fd12f31907bd0,,,,,,,,,,,,,,,,,,,,,,,a,1,"[""0.164"",""0.545"",""0.799"",""0.888""]","[1,1,0,1]",0,28,28,28,1,0,0,,,0,FALSE,2.5563,,,,,,,,,,,,,,,,,,,,,,,,,,,,,,,
,61715a02a3c88f5fb082a424,627c76debd5990ea8d3336b7,2022-05-12_04h58.03.561,classification_task,2021.2.3,Win32,59.99160118,627c6715c52fd12f31907bd0,,,,,,,,,,,,,,,,,,,,,,,l,1,"[""0.034"",""0.364"",""0.467"",""0.292""]","[1,1,1,0]",0,29,29,29,1,1,1,,,0,FALSE,1.0708,,,,,,,,,,,,,,,,,,,,,,,,,,,,,,,
,61715a02a3c88f5fb082a424,627c76debd5990ea8d3336b7,2022-05-12_04h58.03.561,classification_task,2021.2.3,Win32,59.99160118,627c6715c52fd12f31907bd0,,,,,,,,,,,,,,,,,,,,,,,l,0,"[""0.164"",""0.545"",""0.842"",""0.292""]","[1,1,1,0]",0,30,30,30,1,0,0,,,0,FALSE,2.2113,,,,,,,,,,,,,,,,,,,,,,,,,,,,,,,
,61715a02a3c88f5fb082a424,627c76debd5990ea8d3336b7,2022-05-12_04h58.03.561,classification_task,2021.2.3,Win32,59.99160118,627c6715c52fd12f31907bd0,,,,,,,,,,,,,,,,,,,,,,,a,1,"[""0.253"",""0.510"",""0.941"",""0.974""]","[0,1,1,1]",0,31,31,31,1,0,1,,,0,FALSE,1.2066,,,,,,,,,,,,,,,,,,,,,,,,,,,,,,,
,61715a02a3c88f5fb082a424,627c76debd5990ea8d3336b7,2022-05-12_04h58.03.561,classification_task,2021.2.3,Win32,59.99160118,627c6715c52fd12f31907bd0,,,,,,,,,,,,,,,,,,,,,,,a,1,"[""0.314"",""0.510"",""0.941"",""0.974""]","[0,1,1,1]",0,32,32,32,1,0,1,,,0,FALSE,0.9178,,,,,,,,,,,,,,,,,,,,,,,,,,,,,,,
,61715a02a3c88f5fb082a424,627c76debd5990ea8d3336b7,2022-05-12_04h58.03.561,classification_task,2021.2.3,Win32,59.99160118,627c6715c52fd12f31907bd0,,,,,,,,,,,,,,,,,,,,,,,l,1,"[""0.078"",""0.125"",""0.243"",""0.741""]","[1,1,0,1]",0,33,33,33,1,1,0,,,0,FALSE,1.6186,,,,,,,,,,,,,,,,,,,,,,,,,,,,,,,
,61715a02a3c88f5fb082a424,627c76debd5990ea8d3336b7,2022-05-12_04h58.03.561,classification_task,2021.2.3,Win32,59.99160118,627c6715c52fd12f31907bd0,,,,,,,,,,,,,,,,,,,,,,,l,1,"[""0.415"",""0.125"",""0.597"",""0.741""]","[0,1,1,1]",0,34,34,34,1,1,0,,,0,FALSE,1.6052,,,,,,,,,,,,,,,,,,,,,,,,,,,,,,,
,61715a02a3c88f5fb082a424,627c76debd5990ea8d3336b7,2022-05-12_04h58.03.561,classification_task,2021.2.3,Win32,59.99160118,627c6715c52fd12f31907bd0,,,,,,,,,,,,,,,,,,,,,,,l,1,"[""0.078"",""0.292"",""0.597"",""0.741""]","[1,0,1,1]",0,35,35,35,1,1,0,,,0,FALSE,3.1205,,,,,,,,,,,,,,,,,,,,,,,,,,,,,,,
,61715a02a3c88f5fb082a424,627c76debd5990ea8d3336b7,2022-05-12_04h58.03.561,classification_task,2021.2.3,Win32,59.99160118,627c6715c52fd12f31907bd0,,,,,,,,,,,,,,,,,,,,,,,l,1,"[""0.034"",""0.364"",""0.467"",""0.314""]","[1,1,1,0]",0,36,36,36,1,1,1,,,0,FALSE,2.7496,,,,,,,,,,,,,,,,,,,,,,,,,,,,,,,
,61715a02a3c88f5fb082a424,627c76debd5990ea8d3336b7,2022-05-12_04h58.03.561,classification_task,2021.2.3,Win32,59.99160118,627c6715c52fd12f31907bd0,,,,,,,,,,,,,,,,,,,,,,,l,1,"[""0.034"",""0.243"",""0.467"",""0.689""]","[1,0,1,1]",0,37,37,37,1,1,1,,,0,FALSE,0.9287,,,,,,,,,,,,,,,,,,,,,,,,,,,,,,,
,61715a02a3c88f5fb082a424,627c76debd5990ea8d3336b7,2022-05-12_04h58.03.561,classification_task,2021.2.3,Win32,59.99160118,627c6715c52fd12f31907bd0,,,,,,,,,,,,,,,,,,,,,,,a,1,"[""0.201"",""0.408"",""0.941"",""0.974""]","[1,0,1,1]",0,38,38,38,1,0,1,,,0,FALSE,0.6493,,,,,,,,,,,,,,,,,,,,,,,,,,,,,,,
,61715a02a3c88f5fb082a424,627c76debd5990ea8d3336b7,2022-05-12_04h58.03.561,classification_task,2021.2.3,Win32,59.99160118,627c6715c52fd12f31907bd0,,,,,,,,,,,,,,,,,,,,,,,l,1,"[""0.078"",""0.125"",""0.597"",""0.289""]","[1,1,1,0]",0,39,39,39,1,1,0,,,0,FALSE,1.2394,,,,,,,,,,,,,,,,,,,,,,,,,,,,,,,
,61715a02a3c88f5fb082a424,627c76debd5990ea8d3336b7,2022-05-12_04h58.03.561,classification_task,2021.2.3,Win32,59.99160118,627c6715c52fd12f31907bd0,,,,,,,,,,,,,,,,,,,,,,,a,0,"[""0.277"",""0.364"",""0.467"",""0.689""]","[0,1,1,1]",0,40,40,40,1,1,1,,,0,FALSE,1.4424,,,,,,,,,,,,,,,,,,,,,,,,,,,,,,,
,61715a02a3c88f5fb082a424,627c76debd5990ea8d3336b7,2022-05-12_04h58.03.561,classification_task,2021.2.3,Win32,59.99160118,627c6715c52fd12f31907bd0,,,,,,,,,,,,,,,,,,,,,,,a,1,"[""0.164"",""0.253"",""0.842"",""0.888""]","[1,0,1,1]",0,41,41,41,1,0,0,,,0,FALSE,0.8648,,,,,,,,,,,,,,,,,,,,,,,,,,,,,,,
,61715a02a3c88f5fb082a424,627c76debd5990ea8d3336b7,2022-05-12_04h58.03.561,classification_task,2021.2.3,Win32,59.99160118,627c6715c52fd12f31907bd0,,,,,,,,,,,,,,,,,,,,,,,a,1,"[""0.164"",""0.545"",""0.253"",""0.888""]","[1,1,0,1]",0,42,42,42,1,0,0,,,0,FALSE,0.8038,,,,,,,,,,,,,,,,,,,,,,,,,,,,,,,
,61715a02a3c88f5fb082a424,627c76debd5990ea8d3336b7,2022-05-12_04h58.03.561,classification_task,2021.2.3,Win32,59.99160118,627c6715c52fd12f31907bd0,,,,,,,,,,,,,,,,,,,,,,,a,1,"[""0.201"",""0.510"",""0.941"",""0.292""]","[1,1,1,0]",0,43,43,43,1,0,1,,,0,FALSE,1.0196,,,,,,,,,,,,,,,,,,,,,,,,,,,,,,,
,61715a02a3c88f5fb082a424,627c76debd5990ea8d3336b7,2022-05-12_04h58.03.561,classification_task,2021.2.3,Win32,59.99160118,627c6715c52fd12f31907bd0,,,,,,,,,,,,,,,,,,,,,,,a,1,"[""0.164"",""0.545"",""0.842"",""0.804""]","[1,1,1,0]",0,44,44,44,1,0,0,,,0,FALSE,1.414,,,,,,,,,,,,,,,,,,,,,,,,,,,,,,,
,61715a02a3c88f5fb082a424,627c76debd5990ea8d3336b7,2022-05-12_04h58.03.561,classification_task,2021.2.3,Win32,59.99160118,627c6715c52fd12f31907bd0,,,,,,,,,,,,,,,,,,,,,,,l,1,"[""0.034"",""0.364"",""0.329"",""0.689""]","[1,1,0,1]",0,45,45,45,1,1,1,,,0,FALSE,1.2048,,,,,,,,,,,,,,,,,,,,,,,,,,,,,,,
,61715a02a3c88f5fb082a424,627c76debd5990ea8d3336b7,2022-05-12_04h58.03.561,classification_task,2021.2.3,Win32,59.99160118,627c6715c52fd12f31907bd0,,,,,,,,,,,,,,,,,,,,,,,a,1,"[""0.804"",""0.545"",""0.842"",""0.888""]","[0,1,1,1]",0,46,46,46,1,0,0,,,0,FALSE,1.2822,,,,,,,,,,,,,,,,,,,,,,,,,,,,,,,
,61715a02a3c88f5fb082a424,627c76debd5990ea8d3336b7,2022-05-12_04h58.03.561,classification_task,2021.2.3,Win32,59.99160118,627c6715c52fd12f31907bd0,,,,,,,,,,,,,,,,,,,,,,,a,1,"[""0.201"",""0.510"",""0.415"",""0.974""]","[1,1,0,1]",0,47,47,47,1,0,1,,,0,FALSE,0.9497,,,,,,,,,,,,,,,,,,,,,,,,,,,,,,,
,61715a02a3c88f5fb082a424,627c76debd5990ea8d3336b7,2022-05-12_04h58.03.561,classification_task,2021.2.3,Win32,59.99160118,627c6715c52fd12f31907bd0,,,,,,,,,,,,,,,,,,,,,,,a,1,"[""0.201"",""0.510"",""0.415"",""0.974""]","[1,1,0,1]",0,48,48,48,1,0,1,,,0,FALSE,1.487,,,,,,,,,,,,,,,,,,,,,,,,,,,,,,,
,61715a02a3c88f5fb082a424,627c76debd5990ea8d3336b7,2022-05-12_04h58.03.561,classification_task,2021.2.3,Win32,59.99160118,627c6715c52fd12f31907bd0,,,,,,,,,,,,,,,,,,,,,,,l,1,"[""0.775"",""0.364"",""0.467"",""0.689""]","[0,1,1,1]",0,49,49,49,1,1,1,,,0,FALSE,1.8084,,,,,,,,,,,,,,,,,,,,,,,,,,,,,,,
,61715a02a3c88f5fb082a424,627c76debd5990ea8d3336b7,2022-05-12_04h58.03.561,classification_task,2021.2.3,Win32,59.99160118,627c6715c52fd12f31907bd0,,,,,,,,,,,,,,,,,,,,,,,l,0,"[""0.164"",""0.545"",""0.842"",""0.292""]","[1,1,1,0]",0,50,50,50,1,0,0,,,0,FALSE,1.3492,,,,,,,,,,,,,,,,,,,,,,,,,,,,,,,
,61715a02a3c88f5fb082a424,627c76debd5990ea8d3336b7,2022-05-12_04h58.03.561,classification_task,2021.2.3,Win32,59.99160118,627c6715c52fd12f31907bd0,,,,,,,,,,,,,,,,,,,,,,,l,0,"[""0.164"",""0.545"",""0.412"",""0.888""]","[1,1,0,1]",0,51,51,51,1,0,0,,,0,FALSE,1.0005,,,,,,,,,,,,,,,,,,,,,,,,,,,,,,,
,61715a02a3c88f5fb082a424,627c76debd5990ea8d3336b7,2022-05-12_04h58.03.561,classification_task,2021.2.3,Win32,59.99160118,627c6715c52fd12f31907bd0,,,,,,,,,,,,,,,,,,,,,,,l,1,"[""0.078"",""0.125"",""0.314"",""0.741""]","[1,1,0,1]",0,52,52,52,1,1,0,,,0,FALSE,1.2184,,,,,,,,,,,,,,,,,,,,,,,,,,,,,,,
,61715a02a3c88f5fb082a424,627c76debd5990ea8d3336b7,2022-05-12_04h58.03.561,classification_task,2021.2.3,Win32,59.99160118,627c6715c52fd12f31907bd0,,,,,,,,,,,,,,,,,,,,,,,l,1,"[""0.078"",""0.303"",""0.597"",""0.741""]","[1,0,1,1]",0,53,53,53,1,1,0,,,0,FALSE,1.1508,,,,,,,,,,,,,,,,,,,,,,,,,,,,,,,
,61715a02a3c88f5fb082a424,627c76debd5990ea8d3336b7,2022-05-12_04h58.03.561,classification_task,2021.2.3,Win32,59.99160118,627c6715c52fd12f31907bd0,,,,,,,,,,,,,,,,,,,,,,,l,1,"[""0.804"",""0.125"",""0.597"",""0.741""]","[0,1,1,1]",0,54,54,54,1,1,0,,,0,FALSE,0.9333,,,,,,,,,,,,,,,,,,,,,,,,,,,,,,,
,61715a02a3c88f5fb082a424,627c76debd5990ea8d3336b7,2022-05-12_04h58.03.561,classification_task,2021.2.3,Win32,59.99160118,627c6715c52fd12f31907bd0,,,,,,,,,,,,,,,,,,,,,,,a,1,"[""0.164"",""0.329"",""0.842"",""0.888""]","[1,0,1,1]",0,55,55,55,1,0,0,,,0,FALSE,0.7862,,,,,,,,,,,,,,,,,,,,,,,,,,,,,,,
,61715a02a3c88f5fb082a424,627c76debd5990ea8d3336b7,2022-05-12_04h58.03.561,classification_task,2021.2.3,Win32,59.99160118,627c6715c52fd12f31907bd0,,,,,,,,,,,,,,,,,,,,,,,a,0,"[""0.078"",""0.125"",""0.597"",""0.775""]","[1,1,1,0]",0,56,56,56,1,1,0,,,0,FALSE,0.8008,,,,,,,,,,,,,,,,,,,,,,,,,,,,,,,
,61715a02a3c88f5fb082a424,627c76debd5990ea8d3336b7,2022-05-12_04h58.03.561,classification_task,2021.2.3,Win32,59.99160118,627c6715c52fd12f31907bd0,,,,,,,,,,,,,,,,,,,,,,,a,1,"[""0.329"",""0.510"",""0.941"",""0.974""]","[0,1,1,1]",0,57,57,57,1,0,1,,,0,FALSE,0.7885,,,,,,,,,,,,,,,,,,,,,,,,,,,,,,,
,61715a02a3c88f5fb082a424,627c76debd5990ea8d3336b7,2022-05-12_04h58.03.561,classification_task,2021.2.3,Win32,59.99160118,627c6715c52fd12f31907bd0,,,,,,,,,,,,,,,,,,,,,,,l,1,"[""0.034"",""0.364"",""0.467"",""0.415""]","[1,1,1,0]",0,58,58,58,1,1,1,,,0,FALSE,0.8662,,,,,,,,,,,,,,,,,,,,,,,,,,,,,,,
,61715a02a3c88f5fb082a424,627c76debd5990ea8d3336b7,2022-05-12_04h58.03.561,classification_task,2021.2.3,Win32,59.99160118,627c6715c52fd12f31907bd0,,,,,,,,,,,,,,,,,,,,,,,l,1,"[""0.034"",""0.253"",""0.467"",""0.689""]","[1,0,1,1]",0,59,59,59,1,1,1,,,0,FALSE,1.5991,,,,,,,,,,,,,,,,,,,,,,,,,,,,,,,
,61715a02a3c88f5fb082a424,627c76debd5990ea8d3336b7,2022-05-12_04h58.03.561,classification_task,2021.2.3,Win32,59.99160118,627c6715c52fd12f31907bd0,,,,,,,,,,,,,,,,,,,,,,,l,1,"[""0.034"",""0.364"",""0.243"",""0.689""]","[1,1,0,1]",0,60,60,60,1,1,1,,,0,FALSE,0.8521,,,,,,,,,,,,,,,,,,,,,,,,,,,,,,,
,61715a02a3c88f5fb082a424,627c76debd5990ea8d3336b7,2022-05-12_04h58.03.561,classification_task,2021.2.3,Win32,59.99160118,627c6715c52fd12f31907bd0,,,,,,,,,,,,,,,,,,,,,,,a,1,"[""0.201"",""0.510"",""0.941"",""0.253""]","[1,1,1,0]",0,61,61,61,1,0,1,,,0,FALSE,0.7499,,,,,,,,,,,,,,,,,,,,,,,,,,,,,,,
,61715a02a3c88f5fb082a424,627c76debd5990ea8d3336b7,2022-05-12_04h58.03.561,classification_task,2021.2.3,Win32,59.99160118,627c6715c52fd12f31907bd0,,,,,,,,,,,,,,,,,,,,,,,a,1,"[""0.201"",""0.415"",""0.941"",""0.974""]","[1,0,1,1]",0,62,62,62,1,0,1,,,0,FALSE,1.5645,,,,,,,,,,,,,,,,,,,,,,,,,,,,,,,
,61715a02a3c88f5fb082a424,627c76debd5990ea8d3336b7,2022-05-12_04h58.03.561,classification_task,2021.2.3,Win32,59.99160118,627c6715c52fd12f31907bd0,,,,,,,,,,,,,,,,,,,,,,,a,1,"[""0.415"",""0.545"",""0.842"",""0.888""]","[0,1,1,1]",0,63,63,63,1,0,0,,,0,FALSE,4.3863,,,,,,,,,,,,,,,,,,,,,,,,,,,,,,,
,61715a02a3c88f5fb082a424,627c76debd5990ea8d3336b7,2022-05-12_04h58.03.561,classification_task,2021.2.3,Win32,59.99160118,627c6715c52fd12f31907bd0,,,,,,,,,,,,,,,,,,,,,,,,,,,,,,,,,,,,,,,0, ,,0,5.172233245,173.2332,0,2,2,2,1,2,3,,,,,,,,,,,,,,,,,,
,61715a02a3c88f5fb082a424,627c76debd5990ea8d3336b7,2022-05-12_04h58.03.561,classification_task,2021.2.3,Win32,59.99160118,627c6715c52fd12f31907bd0,,,,,,,,,,,,,,,,,,,,,,,,,,,,,,,,,,,,,,,1,  ,,0,8.065751764,175.8208,0,2,2,2,1,2,3,,,,,,,,,,,,,,,,,,
,61715a02a3c88f5fb082a424,627c76debd5990ea8d3336b7,2022-05-12_04h58.03.561,classification_task,2021.2.3,Win32,59.99160118,627c6715c52fd12f31907bd0,,,,,,,,,,,,,,,,,,,,,,,,,,,,,,,,,,,,,,,2,  ,,0,8.513558201,177.6807,0,2,2,2,1,2,3,,,,,,,,,,,,,,,,,,
,61715a02a3c88f5fb082a424,627c76debd5990ea8d3336b7,2022-05-12_04h58.03.561,classification_task,2021.2.3,Win32,59.99160118,627c6715c52fd12f31907bd0,,,,,,,,,,,,,,,,,,,,,,,,,,,,,,,,,,,,,,,,,,,,,0,2,2,2,1,,3,,,,,,,,,,,,,,,,,,
,61715a02a3c88f5fb082a424,627c76debd5990ea8d3336b7,2022-05-12_04h58.03.561,classification_task,2021.2.3,Win32,59.99160118,627c6715c52fd12f31907bd0,,,,,,,,,,,,,,,,,,,,,,,,,,,,,,,,,,,,,,,,,,,,,,,,,,,,,I believe the aid is a competent performer,,0.7,0,4,1074.9463,0,0,0,0,1,0,,,,,
,61715a02a3c88f5fb082a424,627c76debd5990ea8d3336b7,2022-05-12_04h58.03.561,classification_task,2021.2.3,Win32,59.99160118,627c6715c52fd12f31907bd0,,,,,,,,,,,,,,,,,,,,,,,,,,,,,,,,,,,,,,,,,,,,,,,,,,,,,I trust the aid,,0.7,0,3,1076.2119,0,0,0,0,1,0,,,,,
,61715a02a3c88f5fb082a424,627c76debd5990ea8d3336b7,2022-05-12_04h58.03.561,classification_task,2021.2.3,Win32,59.99160118,627c6715c52fd12f31907bd0,,,,,,,,,,,,,,,,,,,,,,,,,,,,,,,,,,,,,,,,,,,,,,,,,,,,,I have confidence in the advice given by the aid,,0.7,0,3,1077.5308,0,0,0,0,1,0,,,,,
,61715a02a3c88f5fb082a424,627c76debd5990ea8d3336b7,2022-05-12_04h58.03.561,classification_task,2021.2.3,Win32,59.99160118,627c6715c52fd12f31907bd0,,,,,,,,,,,,,,,,,,,,,,,,,,,,,,,,,,,,,,,,,,,,,,,,,,,,,I can depend on the aid,,0.7,0,4,1080.8843,0,0,0,0,1,0,,,,,
,61715a02a3c88f5fb082a424,627c76debd5990ea8d3336b7,2022-05-12_04h58.03.561,classification_task,2021.2.3,Win32,59.99160118,627c6715c52fd12f31907bd0,,,,,,,,,,,,,,,,,,,,,,,,,,,,,,,,,,,,,,,,,,,,,,,,,,,,,I can rely on the aid to behave in consistent ways,,0.7,0,2,1094.5159,0,0,0,0,1,0,,,,,
,61715a02a3c88f5fb082a424,627c76debd5990ea8d3336b7,2022-05-12_04h58.03.561,classification_task,2021.2.3,Win32,59.99160118,627c6715c52fd12f31907bd0,,,,,,,,,,,,,,,,,,,,,,,,,,,,,,,,,,,,,,,,,,,,,,,,,,,,,I can rely on the aid to do its best every time I take its advice,,0.7,0,3,1099.5012,0,0,0,0,1,0,,,,,
,61715a02a3c88f5fb082a424,627c76debd5990ea8d3336b7,2022-05-12_04h58.03.561,classification_task,2021.2.3,Win32,59.99160118,627c6715c52fd12f31907bd0,,,,,,,,,,,,,,,,,,,,,,,,,,,,,,,,,,,,,,,,,,,,,,,,,,,,,"On trials you completed with assistance from the aid, how frequently did you think the aid was correct?",,0.7,0,80,,0,0,0,0,1,0,,,,,
,61715a02a3c88f5fb082a424,627c76debd5990ea8d3336b7,2022-05-12_04h58.03.561,classification_task,2021.2.3,Win32,59.99160118,627c6715c52fd12f31907bd0,,,,,,,,,,,,,,,,,,,,,,,,,,,,,,,,,,,,,,,,,,,,,,,,,,,,,"On trials you completed without the aid, how frequently did you think you were correct?",,0.7,0,75,,0,0,0,0,1,0,,,,,
,61715a02a3c88f5fb082a424,627c76debd5990ea8d3336b7,2022-05-12_04h58.03.561,classification_task,2021.2.3,Win32,59.99160118,627c6715c52fd12f31907bd0,,,,,,,,,,,,,,,,,,,,,,,,,,,,,,,,,,,,,,,,,,,,,,,,,,,,,,,,,,,0,0,0,0,1,,,,,,
,61715a02a3c88f5fb082a424,627c76debd5990ea8d3336b7,2022-05-12_04h58.03.561,classification_task,2021.2.3,Win32,59.99160118,627c6715c52fd12f31907bd0,,,,,,,,,,,,,,,,,,,,,,,,,,,,,,,,,,,,,,,,,,,,,,,,,,,,,,,,,,,,,,,,,space,23.7108,1157.6279,,
,61715a02a3c88f5fb082a424,627c76debd5990ea8d3336b7,2022-05-12_04h58.03.561,classification_task,2021.2.3,Win32,59.99160118,627c6715c52fd12f31907bd0,,,,,,,,,,,,,,,,,,,,,,,,,,,,,,,,,,,,,,,,,,,,,,,,,,,,,,,,,,,,,,,,,,,,"Mozilla/5.0 (Windows NT 10.0; Win64; x64) AppleWebKit/537.36 (KHTML, like Gecko) Chrome/100.0.4896.127 Safari/537.36",
,61715a02a3c88f5fb082a424,627c76debd5990ea8d3336b7,2022-05-12_04h58.03.561,classification_task,2021.2.3,Win32,59.99160118,627c6715c52fd12f31907bd0,,,,,,,,,,,,,,,,,,,,,,,,,,,,,,,,,,,,,,,,,,,,,,,,,,,,,,,,,,,,,,,,,,,,,LOWLIGHT
