usingWebGL,participant,session,date,expName,psychopyVersion,OS,frameRate,study_id,signatures_friend,signatures_foe,band_ranges_top,band_ranges_bottom,formitemText,formtype,formundefined,formitemWidth,formindex,formresponse,formrt,key_resp_2.keys,key_resp_2.rt,tute_resp.keys,tute_resp.rt,tutorial.thisRepN,tutorial.thisTrialN,tutorial.thisN,tutorial.thisIndex,tutorial.ran,key_resp_4.keys,key_resp_4.rt,key_resp.keys,key_resp.corr,key_resp.rt,lines_presented,is_signal_presented,trials.thisRepN,trials.thisTrialN,trials.thisN,trials.thisIndex,trials.ran,vessel,active_band,lines,is_signal,supported_pos,catch_trial,debrief_formindex,debrief_formitemText,debrief_formtype,debrief_formitemWidth,debrief_formresponse,debrief_formrt,phases.thisRepN,phases.thisTrialN,phases.thisN,phases.thisIndex,phases.ran,phases.order,phase,key_resp_3.keys,key_resp_3.rt,trustitemText,trusttype,trustitemWidth,trustindex,trustresponse,trustrt,support_status.thisRepN,support_status.thisTrialN,support_status.thisN,support_status.thisIndex,support_status.ran,support_status.order,key_resp_5.keys,key_resp_5.rt,globalClockTime,userAgent,manualCondition
TRUE,6172c4021e98fea55a9d4a12,627c89d435e1a07e1d810e71,2022-05-12_07h21.44.759,classification_task,2021.2.3,Win32,60.60238773,627c6715c52fd12f31907bd0,,,,,,,,,,,,,,,,,,,,,,,,,,,,,,,,,,,,,,,,,,,,,,,,,,,,,,,,,,,,,,,,,,,,,,
,6172c4021e98fea55a9d4a12,627c89d435e1a07e1d810e71,2022-05-12_07h21.44.759,classification_task,2021.2.3,Win32,60.60238773,627c6715c52fd12f31907bd0,"[[""0.261"",""0.362"",""0.827"",""0.908""],[""0.306"",""0.397"",""0.867"",""0.972""]]","[[""0.068"",""0.113"",""0.499"",""0.703""],[""0.025"",""0.158"",""0.593"",""0.773""]]","[1,10]","[100,1000]",Video game experience,,,0.7,0,,,,,,,,,,,,,,,,,,,,,,,,,,,,,,,,,,,,,,,,,,,,,,,,,,,,,,,,,,,,,
,6172c4021e98fea55a9d4a12,627c89d435e1a07e1d810e71,2022-05-12_07h21.44.759,classification_task,2021.2.3,Win32,60.60238773,627c6715c52fd12f31907bd0,,,,,Approximately how many hours did you spend playing video games in the last week?,,,0.7,0,1,,,,,,,,,,,,,,,,,,,,,,,,,,,,,,,,,,,,,,,,,,,,,,,,,,,,,,,,,,,,
,6172c4021e98fea55a9d4a12,627c89d435e1a07e1d810e71,2022-05-12_07h21.44.759,classification_task,2021.2.3,Win32,60.60238773,627c6715c52fd12f31907bd0,,,,,"Which game did you play the most this year? (Enter ""None"" if you didn't play any)",,,0.7,0,Catan,,,,,,,,,,,,,,,,,,,,,,,,,,,,,,,,,,,,,,,,,,,,,,,,,,,,,,,,,,,,
,6172c4021e98fea55a9d4a12,627c89d435e1a07e1d810e71,2022-05-12_07h21.44.759,classification_task,2021.2.3,Win32,60.60238773,627c6715c52fd12f31907bd0,,,,,Visual perception,,,0.7,0,,,,,,,,,,,,,,,,,,,,,,,,,,,,,,,,,,,,,,,,,,,,,,,,,,,,,,,,,,,,,
,6172c4021e98fea55a9d4a12,627c89d435e1a07e1d810e71,2022-05-12_07h21.44.759,classification_task,2021.2.3,Win32,60.60238773,627c6715c52fd12f31907bd0,,,,,Do you have any form of color blindness?,,,0.7,0,No,14.422,,,,,,,,,,,,,,,,,,,,,,,,,,,,,,,,,,,,,,,,,,,,,,,,,,,,,,,,,,,
,6172c4021e98fea55a9d4a12,627c89d435e1a07e1d810e71,2022-05-12_07h21.44.759,classification_task,2021.2.3,Win32,60.60238773,627c6715c52fd12f31907bd0,,,,,Do you use software to change the colour temperature of your screen (e.g. f.lux)?,,,0.7,0,Yes,19.3639,,,,,,,,,,,,,,,,,,,,,,,,,,,,,,,,,,,,,,,,,,,,,,,,,,,,,,,,,,,
,6172c4021e98fea55a9d4a12,627c89d435e1a07e1d810e71,2022-05-12_07h21.44.759,classification_task,2021.2.3,Win32,60.60238773,627c6715c52fd12f31907bd0,,,,,,,,,,,,space,26.6465,space,11.1833,0,0,0,0,1,,,,,,,,,,,,,,,,,,,,,,,,,,,,,,,,,,,,,,,,,,,,,,,,,,
,6172c4021e98fea55a9d4a12,627c89d435e1a07e1d810e71,2022-05-12_07h21.44.759,classification_task,2021.2.3,Win32,60.60238773,627c6715c52fd12f31907bd0,,,,,,,,,,,,,,space,6.7013,1,0,1,0,1,,,,,,,,,,,,,,,,,,,,,,,,,,,,,,,,,,,,,,,,,,,,,,,,,,
,6172c4021e98fea55a9d4a12,627c89d435e1a07e1d810e71,2022-05-12_07h21.44.759,classification_task,2021.2.3,Win32,60.60238773,627c6715c52fd12f31907bd0,,,,,,,,,,,,,,space,37.0591,2,0,2,0,1,,,,,,,,,,,,,,,,,,,,,,,,,,,,,,,,,,,,,,,,,,,,,,,,,,
,6172c4021e98fea55a9d4a12,627c89d435e1a07e1d810e71,2022-05-12_07h21.44.759,classification_task,2021.2.3,Win32,60.60238773,627c6715c52fd12f31907bd0,,,,,,,,,,,,,,space,6.4831,3,0,3,0,1,,,,,,,,,,,,,,,,,,,,,,,,,,,,,,,,,,,,,,,,,,,,,,,,,,
,6172c4021e98fea55a9d4a12,627c89d435e1a07e1d810e71,2022-05-12_07h21.44.759,classification_task,2021.2.3,Win32,60.60238773,627c6715c52fd12f31907bd0,,,,,,,,,,,,,,space,15.7997,4,0,4,0,1,,,,,,,,,,,,,,,,,,,,,,,,,,,,,,,,,,,,,,,,,,,,,,,,,,
,6172c4021e98fea55a9d4a12,627c89d435e1a07e1d810e71,2022-05-12_07h21.44.759,classification_task,2021.2.3,Win32,60.60238773,627c6715c52fd12f31907bd0,,,,,,,,,,,,,,,,,,,,,space,23.1433,l,1,3.1165,"[""0.025"",""0.633"",""0.593"",""0.773""]","[1,0,1,1]",0,0,0,0,1,1,1,,,1,FALSE,,,,,,,,,,,,,,,,,,,,,,,,,,,,,,,,
,6172c4021e98fea55a9d4a12,627c89d435e1a07e1d810e71,2022-05-12_07h21.44.759,classification_task,2021.2.3,Win32,60.60238773,627c6715c52fd12f31907bd0,,,,,,,,,,,,,,,,,,,,,,,,0,,"[""0.261"",""0.362"",""0.198"",""0.908""]","[1,1,0,1]",0,1,1,1,1,0,0,,,1,FALSE,,,,,,,,,,,,,,,,,,,,,,,,,,,,,,,,
,6172c4021e98fea55a9d4a12,627c89d435e1a07e1d810e71,2022-05-12_07h21.44.759,classification_task,2021.2.3,Win32,60.60238773,627c6715c52fd12f31907bd0,,,,,,,,,,,,,,,,,,,,,,,a,1,3.9651,"[""0.224"",""0.362"",""0.827"",""0.908""]","[0,1,1,1]",0,2,2,2,1,0,0,,,1,FALSE,,,,,,,,,,,,,,,,,,,,,,,,,,,,,,,,
,6172c4021e98fea55a9d4a12,627c89d435e1a07e1d810e71,2022-05-12_07h21.44.759,classification_task,2021.2.3,Win32,60.60238773,627c6715c52fd12f31907bd0,,,,,,,,,,,,,,,,,,,,,,,a,1,3.9006,"[""0.261"",""0.639"",""0.827"",""0.908""]","[1,0,1,1]",0,3,3,3,1,0,0,,,1,FALSE,,,,,,,,,,,,,,,,,,,,,,,,,,,,,,,,
,6172c4021e98fea55a9d4a12,627c89d435e1a07e1d810e71,2022-05-12_07h21.44.759,classification_task,2021.2.3,Win32,60.60238773,627c6715c52fd12f31907bd0,,,,,,,,,,,,,,,,,,,,,,,a,1,2.6833,"[""0.261"",""0.362"",""0.827"",""0.639""]","[1,1,1,0]",0,4,4,4,1,0,0,,,1,FALSE,,,,,,,,,,,,,,,,,,,,,,,,,,,,,,,,
,6172c4021e98fea55a9d4a12,627c89d435e1a07e1d810e71,2022-05-12_07h21.44.759,classification_task,2021.2.3,Win32,60.60238773,627c6715c52fd12f31907bd0,,,,,,,,,,,,,,,,,,,,,,,a,0,4.682,"[""0.196"",""0.113"",""0.499"",""0.703""]","[0,1,1,1]",0,5,5,5,1,1,0,,,1,FALSE,,,,,,,,,,,,,,,,,,,,,,,,,,,,,,,,
,6172c4021e98fea55a9d4a12,627c89d435e1a07e1d810e71,2022-05-12_07h21.44.759,classification_task,2021.2.3,Win32,60.60238773,627c6715c52fd12f31907bd0,,,,,,,,,,,,,,,,,,,,,,,a,1,3.9168,"[""0.637"",""0.397"",""0.867"",""0.972""]","[0,1,1,1]",0,6,6,6,1,0,1,,,1,FALSE,,,,,,,,,,,,,,,,,,,,,,,,,,,,,,,,
,6172c4021e98fea55a9d4a12,627c89d435e1a07e1d810e71,2022-05-12_07h21.44.759,classification_task,2021.2.3,Win32,60.60238773,627c6715c52fd12f31907bd0,,,,,,,,,,,,,,,,,,,,,,,l,0,3.1836,"[""0.306"",""0.397"",""0.198"",""0.972""]","[1,1,0,1]",0,7,7,7,1,0,1,,,1,FALSE,,,,,,,,,,,,,,,,,,,,,,,,,,,,,,,,
,6172c4021e98fea55a9d4a12,627c89d435e1a07e1d810e71,2022-05-12_07h21.44.759,classification_task,2021.2.3,Win32,60.60238773,627c6715c52fd12f31907bd0,,,,,,,,,,,,,,,,,,,,,,,l,1,2.567,"[""0.025"",""0.158"",""0.593"",""0.212""]","[1,1,1,0]",0,8,8,8,1,1,1,,,1,FALSE,,,,,,,,,,,,,,,,,,,,,,,,,,,,,,,,
,6172c4021e98fea55a9d4a12,627c89d435e1a07e1d810e71,2022-05-12_07h21.44.759,classification_task,2021.2.3,Win32,60.60238773,627c6715c52fd12f31907bd0,,,,,,,,,,,,,,,,,,,,,,,l,1,3.0995,"[""0.068"",""0.113"",""0.737"",""0.703""]","[1,1,0,1]",0,9,9,9,1,1,0,,,1,FALSE,,,,,,,,,,,,,,,,,,,,,,,,,,,,,,,,
,6172c4021e98fea55a9d4a12,627c89d435e1a07e1d810e71,2022-05-12_07h21.44.759,classification_task,2021.2.3,Win32,60.60238773,627c6715c52fd12f31907bd0,,,,,,,,,,,,,,,,,,,,,,,l,1,2.7516,"[""0.068"",""0.113"",""0.499"",""0.212""]","[1,1,1,0]",0,10,10,10,1,1,0,,,1,FALSE,,,,,,,,,,,,,,,,,,,,,,,,,,,,,,,,
,6172c4021e98fea55a9d4a12,627c89d435e1a07e1d810e71,2022-05-12_07h21.44.759,classification_task,2021.2.3,Win32,60.60238773,627c6715c52fd12f31907bd0,,,,,,,,,,,,,,,,,,,,,,,a,1,2.4153,"[""0.306"",""0.397"",""0.867"",""0.639""]","[1,1,1,0]",0,11,11,11,1,0,1,,,1,FALSE,,,,,,,,,,,,,,,,,,,,,,,,,,,,,,,,
,6172c4021e98fea55a9d4a12,627c89d435e1a07e1d810e71,2022-05-12_07h21.44.759,classification_task,2021.2.3,Win32,60.60238773,627c6715c52fd12f31907bd0,,,,,,,,,,,,,,,,,,,,,,,l,0,4.7512,"[""0.306"",""0.196"",""0.867"",""0.972""]","[1,0,1,1]",0,12,12,12,1,0,1,,,1,FALSE,,,,,,,,,,,,,,,,,,,,,,,,,,,,,,,,
,6172c4021e98fea55a9d4a12,627c89d435e1a07e1d810e71,2022-05-12_07h21.44.759,classification_task,2021.2.3,Win32,60.60238773,627c6715c52fd12f31907bd0,,,,,,,,,,,,,,,,,,,,,,,l,1,1.9675,"[""0.025"",""0.158"",""0.198"",""0.773""]","[1,1,0,1]",0,13,13,13,1,1,1,,,1,FALSE,,,,,,,,,,,,,,,,,,,,,,,,,,,,,,,,
,6172c4021e98fea55a9d4a12,627c89d435e1a07e1d810e71,2022-05-12_07h21.44.759,classification_task,2021.2.3,Win32,60.60238773,627c6715c52fd12f31907bd0,,,,,,,,,,,,,,,,,,,,,,,l,1,2.0669,"[""0.068"",""0.638"",""0.499"",""0.703""]","[1,0,1,1]",0,14,14,14,1,1,0,,,1,FALSE,,,,,,,,,,,,,,,,,,,,,,,,,,,,,,,,
,6172c4021e98fea55a9d4a12,627c89d435e1a07e1d810e71,2022-05-12_07h21.44.759,classification_task,2021.2.3,Win32,60.60238773,627c6715c52fd12f31907bd0,,,,,,,,,,,,,,,,,,,,,,,l,1,4.2837,"[""0.549"",""0.158"",""0.593"",""0.773""]","[0,1,1,1]",0,15,15,15,1,1,1,,,1,FALSE,,,,,,,,,,,,,,,,,,,,,,,,,,,,,,,,
,6172c4021e98fea55a9d4a12,627c89d435e1a07e1d810e71,2022-05-12_07h21.44.759,classification_task,2021.2.3,Win32,60.60238773,627c6715c52fd12f31907bd0,,,,,,,,,,,,,,,,,,,,,,,l,1,3.3989,"[""0.554"",""0.113"",""0.499"",""0.703""]","[0,1,1,1]",0,16,16,16,1,1,0,,,1,FALSE,,,,,,,,,,,,,,,,,,,,,,,,,,,,,,,,
,6172c4021e98fea55a9d4a12,627c89d435e1a07e1d810e71,2022-05-12_07h21.44.759,classification_task,2021.2.3,Win32,60.60238773,627c6715c52fd12f31907bd0,,,,,,,,,,,,,,,,,,,,,,,a,1,2.883,"[""0.306"",""0.397"",""0.867"",""0.637""]","[1,1,1,0]",0,17,17,17,1,0,1,,,1,FALSE,,,,,,,,,,,,,,,,,,,,,,,,,,,,,,,,
,6172c4021e98fea55a9d4a12,627c89d435e1a07e1d810e71,2022-05-12_07h21.44.759,classification_task,2021.2.3,Win32,60.60238773,627c6715c52fd12f31907bd0,,,,,,,,,,,,,,,,,,,,,,,l,1,1.6998,"[""0.025"",""0.637"",""0.593"",""0.773""]","[1,0,1,1]",0,18,18,18,1,1,1,,,1,FALSE,,,,,,,,,,,,,,,,,,,,,,,,,,,,,,,,
,6172c4021e98fea55a9d4a12,627c89d435e1a07e1d810e71,2022-05-12_07h21.44.759,classification_task,2021.2.3,Win32,60.60238773,627c6715c52fd12f31907bd0,,,,,,,,,,,,,,,,,,,,,,,a,1,5.5303,"[""0.261"",""0.362"",""0.827"",""0.196""]","[1,1,1,0]",0,19,19,19,1,0,0,,,1,FALSE,,,,,,,,,,,,,,,,,,,,,,,,,,,,,,,,
,6172c4021e98fea55a9d4a12,627c89d435e1a07e1d810e71,2022-05-12_07h21.44.759,classification_task,2021.2.3,Win32,60.60238773,627c6715c52fd12f31907bd0,,,,,,,,,,,,,,,,,,,,,,,a,1,1.634,"[""0.306"",""0.737"",""0.867"",""0.972""]","[1,0,1,1]",0,20,20,20,1,0,1,,,1,FALSE,,,,,,,,,,,,,,,,,,,,,,,,,,,,,,,,
,6172c4021e98fea55a9d4a12,627c89d435e1a07e1d810e71,2022-05-12_07h21.44.759,classification_task,2021.2.3,Win32,60.60238773,627c6715c52fd12f31907bd0,,,,,,,,,,,,,,,,,,,,,,,a,1,2.4498,"[""0.306"",""0.397"",""0.633"",""0.972""]","[1,1,0,1]",0,21,21,21,1,0,1,,,1,FALSE,,,,,,,,,,,,,,,,,,,,,,,,,,,,,,,,
,6172c4021e98fea55a9d4a12,627c89d435e1a07e1d810e71,2022-05-12_07h21.44.759,classification_task,2021.2.3,Win32,60.60238773,627c6715c52fd12f31907bd0,,,,,,,,,,,,,,,,,,,,,,,l,1,2.0681,"[""0.025"",""0.158"",""0.593"",""0.554""]","[1,1,1,0]",0,22,22,22,1,1,1,,,1,FALSE,,,,,,,,,,,,,,,,,,,,,,,,,,,,,,,,
,6172c4021e98fea55a9d4a12,627c89d435e1a07e1d810e71,2022-05-12_07h21.44.759,classification_task,2021.2.3,Win32,60.60238773,627c6715c52fd12f31907bd0,,,,,,,,,,,,,,,,,,,,,,,a,0,2.5327,"[""0.068"",""0.196"",""0.499"",""0.703""]","[1,0,1,1]",0,23,23,23,1,1,0,,,1,FALSE,,,,,,,,,,,,,,,,,,,,,,,,,,,,,,,,
,6172c4021e98fea55a9d4a12,627c89d435e1a07e1d810e71,2022-05-12_07h21.44.759,classification_task,2021.2.3,Win32,60.60238773,627c6715c52fd12f31907bd0,,,,,,,,,,,,,,,,,,,,,,,l,1,4.214,"[""0.633"",""0.158"",""0.593"",""0.773""]","[0,1,1,1]",0,24,24,24,1,1,1,,,1,FALSE,,,,,,,,,,,,,,,,,,,,,,,,,,,,,,,,
,6172c4021e98fea55a9d4a12,627c89d435e1a07e1d810e71,2022-05-12_07h21.44.759,classification_task,2021.2.3,Win32,60.60238773,627c6715c52fd12f31907bd0,,,,,,,,,,,,,,,,,,,,,,,a,1,3.3047,"[""0.261"",""0.217"",""0.827"",""0.908""]","[1,0,1,1]",0,25,25,25,1,0,0,,,1,FALSE,,,,,,,,,,,,,,,,,,,,,,,,,,,,,,,,
,6172c4021e98fea55a9d4a12,627c89d435e1a07e1d810e71,2022-05-12_07h21.44.759,classification_task,2021.2.3,Win32,60.60238773,627c6715c52fd12f31907bd0,,,,,,,,,,,,,,,,,,,,,,,a,1,2.9636,"[""0.261"",""0.362"",""0.638"",""0.908""]","[1,1,0,1]",0,26,26,26,1,0,0,,,1,FALSE,,,,,,,,,,,,,,,,,,,,,,,,,,,,,,,,
,6172c4021e98fea55a9d4a12,627c89d435e1a07e1d810e71,2022-05-12_07h21.44.759,classification_task,2021.2.3,Win32,60.60238773,627c6715c52fd12f31907bd0,,,,,,,,,,,,,,,,,,,,,,,l,1,1.8101,"[""0.068"",""0.113"",""0.196"",""0.703""]","[1,1,0,1]",0,27,27,27,1,1,0,,,1,FALSE,,,,,,,,,,,,,,,,,,,,,,,,,,,,,,,,
,6172c4021e98fea55a9d4a12,627c89d435e1a07e1d810e71,2022-05-12_07h21.44.759,classification_task,2021.2.3,Win32,60.60238773,627c6715c52fd12f31907bd0,,,,,,,,,,,,,,,,,,,,,,,a,1,4.1224,"[""0.196"",""0.397"",""0.867"",""0.972""]","[0,1,1,1]",0,28,28,28,1,0,1,,,1,FALSE,,,,,,,,,,,,,,,,,,,,,,,,,,,,,,,,
,6172c4021e98fea55a9d4a12,627c89d435e1a07e1d810e71,2022-05-12_07h21.44.759,classification_task,2021.2.3,Win32,60.60238773,627c6715c52fd12f31907bd0,,,,,,,,,,,,,,,,,,,,,,,l,1,1.3632,"[""0.025"",""0.158"",""0.217"",""0.773""]","[1,1,0,1]",0,29,29,29,1,1,1,,,1,FALSE,,,,,,,,,,,,,,,,,,,,,,,,,,,,,,,,
,6172c4021e98fea55a9d4a12,627c89d435e1a07e1d810e71,2022-05-12_07h21.44.759,classification_task,2021.2.3,Win32,60.60238773,627c6715c52fd12f31907bd0,,,,,,,,,,,,,,,,,,,,,,,l,1,2.3136,"[""0.068"",""0.113"",""0.499"",""0.666""]","[1,1,1,0]",0,30,30,30,1,1,0,,,1,FALSE,,,,,,,,,,,,,,,,,,,,,,,,,,,,,,,,
,6172c4021e98fea55a9d4a12,627c89d435e1a07e1d810e71,2022-05-12_07h21.44.759,classification_task,2021.2.3,Win32,60.60238773,627c6715c52fd12f31907bd0,,,,,,,,,,,,,,,,,,,,,,,a,1,2.8569,"[""0.554"",""0.362"",""0.827"",""0.908""]","[0,1,1,1]",0,31,31,31,1,0,0,,,1,FALSE,,,,,,,,,,,,,,,,,,,,,,,,,,,,,,,,
,6172c4021e98fea55a9d4a12,627c89d435e1a07e1d810e71,2022-05-12_07h21.44.759,classification_task,2021.2.3,Win32,60.60238773,627c6715c52fd12f31907bd0,,,,,,,,,,,,,,,,,,,,,,,l,1,2.9233,"[""0.025"",""0.158"",""0.637"",""0.773""]","[1,1,0,1]",0,32,32,32,1,1,1,,,1,FALSE,,,,,,,,,,,,,,,,,,,,,,,,,,,,,,,,
,6172c4021e98fea55a9d4a12,627c89d435e1a07e1d810e71,2022-05-12_07h21.44.759,classification_task,2021.2.3,Win32,60.60238773,627c6715c52fd12f31907bd0,,,,,,,,,,,,,,,,,,,,,,,l,0,4.2604,"[""0.261"",""0.637"",""0.827"",""0.908""]","[1,0,1,1]",0,33,33,33,1,0,0,,,1,FALSE,,,,,,,,,,,,,,,,,,,,,,,,,,,,,,,,
,6172c4021e98fea55a9d4a12,627c89d435e1a07e1d810e71,2022-05-12_07h21.44.759,classification_task,2021.2.3,Win32,60.60238773,627c6715c52fd12f31907bd0,,,,,,,,,,,,,,,,,,,,,,,l,0,1.9945,"[""0.198"",""0.362"",""0.827"",""0.908""]","[0,1,1,1]",0,34,34,34,1,0,0,,,1,FALSE,,,,,,,,,,,,,,,,,,,,,,,,,,,,,,,,
,6172c4021e98fea55a9d4a12,627c89d435e1a07e1d810e71,2022-05-12_07h21.44.759,classification_task,2021.2.3,Win32,60.60238773,627c6715c52fd12f31907bd0,,,,,,,,,,,,,,,,,,,,,,,l,1,1.5164,"[""0.068"",""0.113"",""0.499"",""0.639""]","[1,1,1,0]",0,35,35,35,1,1,0,,,1,FALSE,,,,,,,,,,,,,,,,,,,,,,,,,,,,,,,,
,6172c4021e98fea55a9d4a12,627c89d435e1a07e1d810e71,2022-05-12_07h21.44.759,classification_task,2021.2.3,Win32,60.60238773,627c6715c52fd12f31907bd0,,,,,,,,,,,,,,,,,,,,,,,a,0,1.4874,"[""0.198"",""0.113"",""0.499"",""0.703""]","[0,1,1,1]",0,36,36,36,1,1,0,,,1,FALSE,,,,,,,,,,,,,,,,,,,,,,,,,,,,,,,,
,6172c4021e98fea55a9d4a12,627c89d435e1a07e1d810e71,2022-05-12_07h21.44.759,classification_task,2021.2.3,Win32,60.60238773,627c6715c52fd12f31907bd0,,,,,,,,,,,,,,,,,,,,,,,a,1,1.4068,"[""0.306"",""0.737"",""0.867"",""0.972""]","[1,0,1,1]",0,37,37,37,1,0,1,,,1,FALSE,,,,,,,,,,,,,,,,,,,,,,,,,,,,,,,,
,6172c4021e98fea55a9d4a12,627c89d435e1a07e1d810e71,2022-05-12_07h21.44.759,classification_task,2021.2.3,Win32,60.60238773,627c6715c52fd12f31907bd0,,,,,,,,,,,,,,,,,,,,,,,l,1,1.616,"[""0.025"",""0.158"",""0.593"",""0.547""]","[1,1,1,0]",0,38,38,38,1,1,1,,,1,FALSE,,,,,,,,,,,,,,,,,,,,,,,,,,,,,,,,
,6172c4021e98fea55a9d4a12,627c89d435e1a07e1d810e71,2022-05-12_07h21.44.759,classification_task,2021.2.3,Win32,60.60238773,627c6715c52fd12f31907bd0,,,,,,,,,,,,,,,,,,,,,,,a,1,3.9545,"[""0.554"",""0.397"",""0.867"",""0.972""]","[0,1,1,1]",0,39,39,39,1,0,1,,,1,FALSE,,,,,,,,,,,,,,,,,,,,,,,,,,,,,,,,
,6172c4021e98fea55a9d4a12,627c89d435e1a07e1d810e71,2022-05-12_07h21.44.759,classification_task,2021.2.3,Win32,60.60238773,627c6715c52fd12f31907bd0,,,,,,,,,,,,,,,,,,,,,,,l,1,1.5642,"[""0.068"",""0.196"",""0.499"",""0.703""]","[1,0,1,1]",0,40,40,40,1,1,0,,,1,FALSE,,,,,,,,,,,,,,,,,,,,,,,,,,,,,,,,
,6172c4021e98fea55a9d4a12,627c89d435e1a07e1d810e71,2022-05-12_07h21.44.759,classification_task,2021.2.3,Win32,60.60238773,627c6715c52fd12f31907bd0,,,,,,,,,,,,,,,,,,,,,,,l,1,2.4346,"[""0.068"",""0.113"",""0.666"",""0.703""]","[1,1,0,1]",0,41,41,41,1,1,0,,,1,FALSE,,,,,,,,,,,,,,,,,,,,,,,,,,,,,,,,
,6172c4021e98fea55a9d4a12,627c89d435e1a07e1d810e71,2022-05-12_07h21.44.759,classification_task,2021.2.3,Win32,60.60238773,627c6715c52fd12f31907bd0,,,,,,,,,,,,,,,,,,,,,,,a,1,1.8808,"[""0.306"",""0.397"",""0.867"",""0.198""]","[1,1,1,0]",0,42,42,42,1,0,1,,,1,FALSE,,,,,,,,,,,,,,,,,,,,,,,,,,,,,,,,
,6172c4021e98fea55a9d4a12,627c89d435e1a07e1d810e71,2022-05-12_07h21.44.759,classification_task,2021.2.3,Win32,60.60238773,627c6715c52fd12f31907bd0,,,,,,,,,,,,,,,,,,,,,,,a,1,2.4893,"[""0.261"",""0.362"",""0.827"",""0.737""]","[1,1,1,0]",0,43,43,43,1,0,0,,,1,FALSE,,,,,,,,,,,,,,,,,,,,,,,,,,,,,,,,
,6172c4021e98fea55a9d4a12,627c89d435e1a07e1d810e71,2022-05-12_07h21.44.759,classification_task,2021.2.3,Win32,60.60238773,627c6715c52fd12f31907bd0,,,,,,,,,,,,,,,,,,,,,,,a,1,1.4461,"[""0.306"",""0.397"",""0.633"",""0.972""]","[1,1,0,1]",0,44,44,44,1,0,1,,,1,FALSE,,,,,,,,,,,,,,,,,,,,,,,,,,,,,,,,
,6172c4021e98fea55a9d4a12,627c89d435e1a07e1d810e71,2022-05-12_07h21.44.759,classification_task,2021.2.3,Win32,60.60238773,627c6715c52fd12f31907bd0,,,,,,,,,,,,,,,,,,,,,,,a,1,3.8207,"[""0.261"",""0.362"",""0.217"",""0.908""]","[1,1,0,1]",0,45,45,45,1,0,0,,,1,FALSE,,,,,,,,,,,,,,,,,,,,,,,,,,,,,,,,
,6172c4021e98fea55a9d4a12,627c89d435e1a07e1d810e71,2022-05-12_07h21.44.759,classification_task,2021.2.3,Win32,60.60238773,627c6715c52fd12f31907bd0,,,,,,,,,,,,,,,,,,,,,,,l,1,1.4597,"[""0.212"",""0.158"",""0.593"",""0.773""]","[0,1,1,1]",0,46,46,46,1,1,1,,,1,FALSE,,,,,,,,,,,,,,,,,,,,,,,,,,,,,,,,
,6172c4021e98fea55a9d4a12,627c89d435e1a07e1d810e71,2022-05-12_07h21.44.759,classification_task,2021.2.3,Win32,60.60238773,627c6715c52fd12f31907bd0,,,,,,,,,,,,,,,,,,,,,,,l,1,0.9022,"[""0.025"",""0.666"",""0.593"",""0.773""]","[1,0,1,1]",0,47,47,47,1,1,1,,,1,FALSE,,,,,,,,,,,,,,,,,,,,,,,,,,,,,,,,
,6172c4021e98fea55a9d4a12,627c89d435e1a07e1d810e71,2022-05-12_07h21.44.759,classification_task,2021.2.3,Win32,60.60238773,627c6715c52fd12f31907bd0,,,,,,,,,,,,,,,,,,,,,,,l,1,1.2845,"[""0.068"",""0.113"",""0.224"",""0.703""]","[1,1,0,1]",0,48,48,48,1,1,0,,,1,FALSE,,,,,,,,,,,,,,,,,,,,,,,,,,,,,,,,
,6172c4021e98fea55a9d4a12,627c89d435e1a07e1d810e71,2022-05-12_07h21.44.759,classification_task,2021.2.3,Win32,60.60238773,627c6715c52fd12f31907bd0,,,,,,,,,,,,,,,,,,,,,,,a,1,0.9652,"[""0.261"",""0.362"",""0.827"",""0.549""]","[1,1,1,0]",0,49,49,49,1,0,0,,,1,FALSE,,,,,,,,,,,,,,,,,,,,,,,,,,,,,,,,
,6172c4021e98fea55a9d4a12,627c89d435e1a07e1d810e71,2022-05-12_07h21.44.759,classification_task,2021.2.3,Win32,60.60238773,627c6715c52fd12f31907bd0,,,,,,,,,,,,,,,,,,,,,,,a,1,1.1152,"[""0.306"",""0.666"",""0.867"",""0.972""]","[1,0,1,1]",0,50,50,50,1,0,1,,,1,FALSE,,,,,,,,,,,,,,,,,,,,,,,,,,,,,,,,
,6172c4021e98fea55a9d4a12,627c89d435e1a07e1d810e71,2022-05-12_07h21.44.759,classification_task,2021.2.3,Win32,60.60238773,627c6715c52fd12f31907bd0,,,,,,,,,,,,,,,,,,,,,,,a,1,1.8644,"[""0.554"",""0.362"",""0.827"",""0.908""]","[0,1,1,1]",0,51,51,51,1,0,0,,,1,FALSE,,,,,,,,,,,,,,,,,,,,,,,,,,,,,,,,
,6172c4021e98fea55a9d4a12,627c89d435e1a07e1d810e71,2022-05-12_07h21.44.759,classification_task,2021.2.3,Win32,60.60238773,627c6715c52fd12f31907bd0,,,,,,,,,,,,,,,,,,,,,,,l,1,0.6493,"[""0.068"",""0.113"",""0.499"",""0.666""]","[1,1,1,0]",0,52,52,52,1,1,0,,,1,FALSE,,,,,,,,,,,,,,,,,,,,,,,,,,,,,,,,
,6172c4021e98fea55a9d4a12,627c89d435e1a07e1d810e71,2022-05-12_07h21.44.759,classification_task,2021.2.3,Win32,60.60238773,627c6715c52fd12f31907bd0,,,,,,,,,,,,,,,,,,,,,,,l,1,0.7467,"[""0.025"",""0.158"",""0.196"",""0.773""]","[1,1,0,1]",0,53,53,53,1,1,1,,,1,FALSE,,,,,,,,,,,,,,,,,,,,,,,,,,,,,,,,
,6172c4021e98fea55a9d4a12,627c89d435e1a07e1d810e71,2022-05-12_07h21.44.759,classification_task,2021.2.3,Win32,60.60238773,627c6715c52fd12f31907bd0,,,,,,,,,,,,,,,,,,,,,,,a,1,0.9479,"[""0.306"",""0.397"",""0.638"",""0.972""]","[1,1,0,1]",0,54,54,54,1,0,1,,,1,FALSE,,,,,,,,,,,,,,,,,,,,,,,,,,,,,,,,
,6172c4021e98fea55a9d4a12,627c89d435e1a07e1d810e71,2022-05-12_07h21.44.759,classification_task,2021.2.3,Win32,60.60238773,627c6715c52fd12f31907bd0,,,,,,,,,,,,,,,,,,,,,,,a,1,2.3495,"[""0.261"",""0.362"",""0.217"",""0.908""]","[1,1,0,1]",0,55,55,55,1,0,0,,,1,FALSE,,,,,,,,,,,,,,,,,,,,,,,,,,,,,,,,
,6172c4021e98fea55a9d4a12,627c89d435e1a07e1d810e71,2022-05-12_07h21.44.759,classification_task,2021.2.3,Win32,60.60238773,627c6715c52fd12f31907bd0,,,,,,,,,,,,,,,,,,,,,,,a,1,1.1416,"[""0.639"",""0.397"",""0.867"",""0.972""]","[0,1,1,1]",0,56,56,56,1,0,1,,,1,FALSE,,,,,,,,,,,,,,,,,,,,,,,,,,,,,,,,
,6172c4021e98fea55a9d4a12,627c89d435e1a07e1d810e71,2022-05-12_07h21.44.759,classification_task,2021.2.3,Win32,60.60238773,627c6715c52fd12f31907bd0,,,,,,,,,,,,,,,,,,,,,,,l,1,2.3653,"[""0.666"",""0.158"",""0.593"",""0.773""]","[0,1,1,1]",0,57,57,57,1,1,1,,,1,FALSE,,,,,,,,,,,,,,,,,,,,,,,,,,,,,,,,
,6172c4021e98fea55a9d4a12,627c89d435e1a07e1d810e71,2022-05-12_07h21.44.759,classification_task,2021.2.3,Win32,60.60238773,627c6715c52fd12f31907bd0,,,,,,,,,,,,,,,,,,,,,,,a,1,2.371,"[""0.261"",""0.224"",""0.827"",""0.908""]","[1,0,1,1]",0,58,58,58,1,0,0,,,1,FALSE,,,,,,,,,,,,,,,,,,,,,,,,,,,,,,,,
,6172c4021e98fea55a9d4a12,627c89d435e1a07e1d810e71,2022-05-12_07h21.44.759,classification_task,2021.2.3,Win32,60.60238773,627c6715c52fd12f31907bd0,,,,,,,,,,,,,,,,,,,,,,,l,1,1.715,"[""0.224"",""0.113"",""0.499"",""0.703""]","[0,1,1,1]",0,59,59,59,1,1,0,,,1,FALSE,,,,,,,,,,,,,,,,,,,,,,,,,,,,,,,,
,6172c4021e98fea55a9d4a12,627c89d435e1a07e1d810e71,2022-05-12_07h21.44.759,classification_task,2021.2.3,Win32,60.60238773,627c6715c52fd12f31907bd0,,,,,,,,,,,,,,,,,,,,,,,a,1,1.1413,"[""0.306"",""0.397"",""0.867"",""0.637""]","[1,1,1,0]",0,60,60,60,1,0,1,,,1,FALSE,,,,,,,,,,,,,,,,,,,,,,,,,,,,,,,,
,6172c4021e98fea55a9d4a12,627c89d435e1a07e1d810e71,2022-05-12_07h21.44.759,classification_task,2021.2.3,Win32,60.60238773,627c6715c52fd12f31907bd0,,,,,,,,,,,,,,,,,,,,,,,l,1,0.8142,"[""0.068"",""0.196"",""0.499"",""0.703""]","[1,0,1,1]",0,61,61,61,1,1,0,,,1,FALSE,,,,,,,,,,,,,,,,,,,,,,,,,,,,,,,,
,6172c4021e98fea55a9d4a12,627c89d435e1a07e1d810e71,2022-05-12_07h21.44.759,classification_task,2021.2.3,Win32,60.60238773,627c6715c52fd12f31907bd0,,,,,,,,,,,,,,,,,,,,,,,l,1,0.6807,"[""0.025"",""0.217"",""0.593"",""0.773""]","[1,0,1,1]",0,62,62,62,1,1,1,,,1,FALSE,,,,,,,,,,,,,,,,,,,,,,,,,,,,,,,,
,6172c4021e98fea55a9d4a12,627c89d435e1a07e1d810e71,2022-05-12_07h21.44.759,classification_task,2021.2.3,Win32,60.60238773,627c6715c52fd12f31907bd0,,,,,,,,,,,,,,,,,,,,,,,l,1,0.6663,"[""0.025"",""0.158"",""0.593"",""0.638""]","[1,1,1,0]",0,63,63,63,1,1,1,,,1,FALSE,,,,,,,,,,,,,,,,,,,,,,,,,,,,,,,,
,6172c4021e98fea55a9d4a12,627c89d435e1a07e1d810e71,2022-05-12_07h21.44.759,classification_task,2021.2.3,Win32,60.60238773,627c6715c52fd12f31907bd0,,,,,,,,,,,,,,,,,,,,,,,,,,,,,,,,,,,,,,,0, ,,0,1.160347976,400.1481,0,0,0,0,1,2,1,,,,,,,,,,,,,,,,,,,
,6172c4021e98fea55a9d4a12,627c89d435e1a07e1d810e71,2022-05-12_07h21.44.759,classification_task,2021.2.3,Win32,60.60238773,627c6715c52fd12f31907bd0,,,,,,,,,,,,,,,,,,,,,,,,,,,,,,,,,,,,,,,1,  ,,0,7.823094632,415.9625,0,0,0,0,1,2,1,,,,,,,,,,,,,,,,,,,
,6172c4021e98fea55a9d4a12,627c89d435e1a07e1d810e71,2022-05-12_07h21.44.759,classification_task,2021.2.3,Win32,60.60238773,627c6715c52fd12f31907bd0,,,,,,,,,,,,,,,,,,,,,,,,,,,,,,,,,,,,,,,2,  ,,0,0,425.4451,0,0,0,0,1,2,1,,,,,,,,,,,,,,,,,,,
,6172c4021e98fea55a9d4a12,627c89d435e1a07e1d810e71,2022-05-12_07h21.44.759,classification_task,2021.2.3,Win32,60.60238773,627c6715c52fd12f31907bd0,,,,,,,,,,,,,,,,,,,,,,,,,,,,,,,,,,,,,,,,,,,,,0,0,0,0,1,,1,,,,,,,,,,,,,,,,,,,
,6172c4021e98fea55a9d4a12,627c89d435e1a07e1d810e71,2022-05-12_07h21.44.759,classification_task,2021.2.3,Win32,60.60238773,627c6715c52fd12f31907bd0,,,,,,,,,,,,,,,,,,,,,space,27.0999,l,1,3.1306,"[""0.068"",""0.113"",""0.198"",""0.703""]","[1,1,0,1]",0,0,0,0,1,1,0,,,1,FALSE,,,,,,,,,,,,,,,,,,,,,,,,,,,,,,,,
,6172c4021e98fea55a9d4a12,627c89d435e1a07e1d810e71,2022-05-12_07h21.44.759,classification_task,2021.2.3,Win32,60.60238773,627c6715c52fd12f31907bd0,,,,,,,,,,,,,,,,,,,,,,,a,1,2.7542,"[""0.306"",""0.397"",""0.217"",""0.972""]","[1,1,0,1]",0,1,1,1,1,0,1,,,1,FALSE,,,,,,,,,,,,,,,,,,,,,,,,,,,,,,,,
,6172c4021e98fea55a9d4a12,627c89d435e1a07e1d810e71,2022-05-12_07h21.44.759,classification_task,2021.2.3,Win32,60.60238773,627c6715c52fd12f31907bd0,,,,,,,,,,,,,,,,,,,,,,,l,1,1.8796,"[""0.638"",""0.158"",""0.593"",""0.773""]","[0,1,1,1]",0,2,2,2,1,1,1,,,1,FALSE,,,,,,,,,,,,,,,,,,,,,,,,,,,,,,,,
,6172c4021e98fea55a9d4a12,627c89d435e1a07e1d810e71,2022-05-12_07h21.44.759,classification_task,2021.2.3,Win32,60.60238773,627c6715c52fd12f31907bd0,,,,,,,,,,,,,,,,,,,,,,,a,1,1.2209,"[""0.306"",""0.638"",""0.867"",""0.972""]","[1,0,1,1]",0,3,3,3,1,0,1,,,1,FALSE,,,,,,,,,,,,,,,,,,,,,,,,,,,,,,,,
,6172c4021e98fea55a9d4a12,627c89d435e1a07e1d810e71,2022-05-12_07h21.44.759,classification_task,2021.2.3,Win32,60.60238773,627c6715c52fd12f31907bd0,,,,,,,,,,,,,,,,,,,,,,,l,0,2.0146,"[""0.261"",""0.362"",""0.196"",""0.908""]","[1,1,0,1]",0,4,4,4,1,0,0,,,1,FALSE,,,,,,,,,,,,,,,,,,,,,,,,,,,,,,,,
,6172c4021e98fea55a9d4a12,627c89d435e1a07e1d810e71,2022-05-12_07h21.44.759,classification_task,2021.2.3,Win32,60.60238773,627c6715c52fd12f31907bd0,,,,,,,,,,,,,,,,,,,,,,,l,1,2.0667,"[""0.025"",""0.158"",""0.554"",""0.773""]","[1,1,0,1]",0,5,5,5,1,1,1,,,1,FALSE,,,,,,,,,,,,,,,,,,,,,,,,,,,,,,,,
,6172c4021e98fea55a9d4a12,627c89d435e1a07e1d810e71,2022-05-12_07h21.44.759,classification_task,2021.2.3,Win32,60.60238773,627c6715c52fd12f31907bd0,,,,,,,,,,,,,,,,,,,,,,,a,1,1.731,"[""0.306"",""0.397"",""0.867"",""0.549""]","[1,1,1,0]",0,6,6,6,1,0,1,,,1,FALSE,,,,,,,,,,,,,,,,,,,,,,,,,,,,,,,,
,6172c4021e98fea55a9d4a12,627c89d435e1a07e1d810e71,2022-05-12_07h21.44.759,classification_task,2021.2.3,Win32,60.60238773,627c6715c52fd12f31907bd0,,,,,,,,,,,,,,,,,,,,,,,a,1,2.5939,"[""0.224"",""0.362"",""0.827"",""0.908""]","[0,1,1,1]",0,7,7,7,1,0,0,,,1,FALSE,,,,,,,,,,,,,,,,,,,,,,,,,,,,,,,,
,6172c4021e98fea55a9d4a12,627c89d435e1a07e1d810e71,2022-05-12_07h21.44.759,classification_task,2021.2.3,Win32,60.60238773,627c6715c52fd12f31907bd0,,,,,,,,,,,,,,,,,,,,,,,a,1,1.2071,"[""0.261"",""0.217"",""0.827"",""0.908""]","[1,0,1,1]",0,8,8,8,1,0,0,,,1,FALSE,,,,,,,,,,,,,,,,,,,,,,,,,,,,,,,,
,6172c4021e98fea55a9d4a12,627c89d435e1a07e1d810e71,2022-05-12_07h21.44.759,classification_task,2021.2.3,Win32,60.60238773,627c6715c52fd12f31907bd0,,,,,,,,,,,,,,,,,,,,,,,a,1,2.4129,"[""0.261"",""0.362"",""0.827"",""0.198""]","[1,1,1,0]",0,9,9,9,1,0,0,,,1,FALSE,,,,,,,,,,,,,,,,,,,,,,,,,,,,,,,,
,6172c4021e98fea55a9d4a12,627c89d435e1a07e1d810e71,2022-05-12_07h21.44.759,classification_task,2021.2.3,Win32,60.60238773,627c6715c52fd12f31907bd0,,,,,,,,,,,,,,,,,,,,,,,l,1,0.8228,"[""0.068"",""0.113"",""0.499"",""0.196""]","[1,1,1,0]",0,10,10,10,1,1,0,,,1,FALSE,,,,,,,,,,,,,,,,,,,,,,,,,,,,,,,,
,6172c4021e98fea55a9d4a12,627c89d435e1a07e1d810e71,2022-05-12_07h21.44.759,classification_task,2021.2.3,Win32,60.60238773,627c6715c52fd12f31907bd0,,,,,,,,,,,,,,,,,,,,,,,l,1,0.9432,"[""0.025"",""0.217"",""0.593"",""0.773""]","[1,0,1,1]",0,11,11,11,1,1,1,,,1,FALSE,,,,,,,,,,,,,,,,,,,,,,,,,,,,,,,,
,6172c4021e98fea55a9d4a12,627c89d435e1a07e1d810e71,2022-05-12_07h21.44.759,classification_task,2021.2.3,Win32,60.60238773,627c6715c52fd12f31907bd0,,,,,,,,,,,,,,,,,,,,,,,a,1,1.4132,"[""0.666"",""0.397"",""0.867"",""0.972""]","[0,1,1,1]",0,12,12,12,1,0,1,,,1,FALSE,,,,,,,,,,,,,,,,,,,,,,,,,,,,,,,,
,6172c4021e98fea55a9d4a12,627c89d435e1a07e1d810e71,2022-05-12_07h21.44.759,classification_task,2021.2.3,Win32,60.60238773,627c6715c52fd12f31907bd0,,,,,,,,,,,,,,,,,,,,,,,l,1,0.9605,"[""0.068"",""0.633"",""0.499"",""0.703""]","[1,0,1,1]",0,13,13,13,1,1,0,,,1,FALSE,,,,,,,,,,,,,,,,,,,,,,,,,,,,,,,,
,6172c4021e98fea55a9d4a12,627c89d435e1a07e1d810e71,2022-05-12_07h21.44.759,classification_task,2021.2.3,Win32,60.60238773,627c6715c52fd12f31907bd0,,,,,,,,,,,,,,,,,,,,,,,l,1,0.8271,"[""0.025"",""0.158"",""0.593"",""0.217""]","[1,1,1,0]",0,14,14,14,1,1,1,,,1,FALSE,,,,,,,,,,,,,,,,,,,,,,,,,,,,,,,,
,6172c4021e98fea55a9d4a12,627c89d435e1a07e1d810e71,2022-05-12_07h21.44.759,classification_task,2021.2.3,Win32,60.60238773,627c6715c52fd12f31907bd0,,,,,,,,,,,,,,,,,,,,,,,l,1,1.1476,"[""0.212"",""0.113"",""0.499"",""0.703""]","[0,1,1,1]",0,15,15,15,1,1,0,,,1,FALSE,,,,,,,,,,,,,,,,,,,,,,,,,,,,,,,,
,6172c4021e98fea55a9d4a12,627c89d435e1a07e1d810e71,2022-05-12_07h21.44.759,classification_task,2021.2.3,Win32,60.60238773,627c6715c52fd12f31907bd0,,,,,,,,,,,,,,,,,,,,,,,l,1,0.6946,"[""0.025"",""0.212"",""0.593"",""0.773""]","[1,0,1,1]",0,16,16,16,1,1,1,,,1,FALSE,,,,,,,,,,,,,,,,,,,,,,,,,,,,,,,,
,6172c4021e98fea55a9d4a12,627c89d435e1a07e1d810e71,2022-05-12_07h21.44.759,classification_task,2021.2.3,Win32,60.60238773,627c6715c52fd12f31907bd0,,,,,,,,,,,,,,,,,,,,,,,a,1,1.4769,"[""0.261"",""0.666"",""0.827"",""0.908""]","[1,0,1,1]",0,17,17,17,1,0,0,,,1,FALSE,,,,,,,,,,,,,,,,,,,,,,,,,,,,,,,,
,6172c4021e98fea55a9d4a12,627c89d435e1a07e1d810e71,2022-05-12_07h21.44.759,classification_task,2021.2.3,Win32,60.60238773,627c6715c52fd12f31907bd0,,,,,,,,,,,,,,,,,,,,,,,l,1,0.7609,"[""0.025"",""0.158"",""0.593"",""0.547""]","[1,1,1,0]",0,18,18,18,1,1,1,,,1,FALSE,,,,,,,,,,,,,,,,,,,,,,,,,,,,,,,,
,6172c4021e98fea55a9d4a12,627c89d435e1a07e1d810e71,2022-05-12_07h21.44.759,classification_task,2021.2.3,Win32,60.60238773,627c6715c52fd12f31907bd0,,,,,,,,,,,,,,,,,,,,,,,a,1,0.7793,"[""0.306"",""0.397"",""0.867"",""0.554""]","[1,1,1,0]",0,19,19,19,1,0,1,,,1,FALSE,,,,,,,,,,,,,,,,,,,,,,,,,,,,,,,,
,6172c4021e98fea55a9d4a12,627c89d435e1a07e1d810e71,2022-05-12_07h21.44.759,classification_task,2021.2.3,Win32,60.60238773,627c6715c52fd12f31907bd0,,,,,,,,,,,,,,,,,,,,,,,a,1,0.883,"[""0.306"",""0.397"",""0.639"",""0.972""]","[1,1,0,1]",0,20,20,20,1,0,1,,,1,FALSE,,,,,,,,,,,,,,,,,,,,,,,,,,,,,,,,
,6172c4021e98fea55a9d4a12,627c89d435e1a07e1d810e71,2022-05-12_07h21.44.759,classification_task,2021.2.3,Win32,60.60238773,627c6715c52fd12f31907bd0,,,,,,,,,,,,,,,,,,,,,,,l,1,0.7804,"[""0.068"",""0.113"",""0.196"",""0.703""]","[1,1,0,1]",0,21,21,21,1,1,0,,,1,FALSE,,,,,,,,,,,,,,,,,,,,,,,,,,,,,,,,
,6172c4021e98fea55a9d4a12,627c89d435e1a07e1d810e71,2022-05-12_07h21.44.759,classification_task,2021.2.3,Win32,60.60238773,627c6715c52fd12f31907bd0,,,,,,,,,,,,,,,,,,,,,,,l,1,0.5987,"[""0.068"",""0.113"",""0.499"",""0.638""]","[1,1,1,0]",0,22,22,22,1,1,0,,,1,FALSE,,,,,,,,,,,,,,,,,,,,,,,,,,,,,,,,
,6172c4021e98fea55a9d4a12,627c89d435e1a07e1d810e71,2022-05-12_07h21.44.759,classification_task,2021.2.3,Win32,60.60238773,627c6715c52fd12f31907bd0,,,,,,,,,,,,,,,,,,,,,,,a,1,1.0791,"[""0.196"",""0.397"",""0.867"",""0.972""]","[0,1,1,1]",0,23,23,23,1,0,1,,,1,FALSE,,,,,,,,,,,,,,,,,,,,,,,,,,,,,,,,
,6172c4021e98fea55a9d4a12,627c89d435e1a07e1d810e71,2022-05-12_07h21.44.759,classification_task,2021.2.3,Win32,60.60238773,627c6715c52fd12f31907bd0,,,,,,,,,,,,,,,,,,,,,,,l,1,2.2433,"[""0.212"",""0.113"",""0.499"",""0.703""]","[0,1,1,1]",0,24,24,24,1,1,0,,,1,FALSE,,,,,,,,,,,,,,,,,,,,,,,,,,,,,,,,
,6172c4021e98fea55a9d4a12,627c89d435e1a07e1d810e71,2022-05-12_07h21.44.759,classification_task,2021.2.3,Win32,60.60238773,627c6715c52fd12f31907bd0,,,,,,,,,,,,,,,,,,,,,,,l,1,1.0181,"[""0.068"",""0.196"",""0.499"",""0.703""]","[1,0,1,1]",0,25,25,25,1,1,0,,,1,FALSE,,,,,,,,,,,,,,,,,,,,,,,,,,,,,,,,
,6172c4021e98fea55a9d4a12,627c89d435e1a07e1d810e71,2022-05-12_07h21.44.759,classification_task,2021.2.3,Win32,60.60238773,627c6715c52fd12f31907bd0,,,,,,,,,,,,,,,,,,,,,,,l,1,0.7643,"[""0.025"",""0.158"",""0.196"",""0.773""]","[1,1,0,1]",0,26,26,26,1,1,1,,,1,FALSE,,,,,,,,,,,,,,,,,,,,,,,,,,,,,,,,
,6172c4021e98fea55a9d4a12,627c89d435e1a07e1d810e71,2022-05-12_07h21.44.759,classification_task,2021.2.3,Win32,60.60238773,627c6715c52fd12f31907bd0,,,,,,,,,,,,,,,,,,,,,,,l,1,0.6487,"[""0.212"",""0.158"",""0.593"",""0.773""]","[0,1,1,1]",0,27,27,27,1,1,1,,,1,FALSE,,,,,,,,,,,,,,,,,,,,,,,,,,,,,,,,
,6172c4021e98fea55a9d4a12,627c89d435e1a07e1d810e71,2022-05-12_07h21.44.759,classification_task,2021.2.3,Win32,60.60238773,627c6715c52fd12f31907bd0,,,,,,,,,,,,,,,,,,,,,,,a,1,2.8302,"[""0.261"",""0.362"",""0.212"",""0.908""]","[1,1,0,1]",0,28,28,28,1,0,0,,,1,FALSE,,,,,,,,,,,,,,,,,,,,,,,,,,,,,,,,
,6172c4021e98fea55a9d4a12,627c89d435e1a07e1d810e71,2022-05-12_07h21.44.759,classification_task,2021.2.3,Win32,60.60238773,627c6715c52fd12f31907bd0,,,,,,,,,,,,,,,,,,,,,,,a,1,1.1102,"[""0.306"",""0.196"",""0.867"",""0.972""]","[1,0,1,1]",0,29,29,29,1,0,1,,,1,FALSE,,,,,,,,,,,,,,,,,,,,,,,,,,,,,,,,
,6172c4021e98fea55a9d4a12,627c89d435e1a07e1d810e71,2022-05-12_07h21.44.759,classification_task,2021.2.3,Win32,60.60238773,627c6715c52fd12f31907bd0,,,,,,,,,,,,,,,,,,,,,,,a,1,1.4583,"[""0.261"",""0.362"",""0.827"",""0.633""]","[1,1,1,0]",0,30,30,30,1,0,0,,,1,FALSE,,,,,,,,,,,,,,,,,,,,,,,,,,,,,,,,
,6172c4021e98fea55a9d4a12,627c89d435e1a07e1d810e71,2022-05-12_07h21.44.759,classification_task,2021.2.3,Win32,60.60238773,627c6715c52fd12f31907bd0,,,,,,,,,,,,,,,,,,,,,,,a,1,1.1647,"[""0.554"",""0.362"",""0.827"",""0.908""]","[0,1,1,1]",0,31,31,31,1,0,0,,,1,FALSE,,,,,,,,,,,,,,,,,,,,,,,,,,,,,,,,
,6172c4021e98fea55a9d4a12,627c89d435e1a07e1d810e71,2022-05-12_07h21.44.759,classification_task,2021.2.3,Win32,60.60238773,627c6715c52fd12f31907bd0,,,,,,,,,,,,,,,,,,,,,,,l,1,0.8836,"[""0.638"",""0.158"",""0.593"",""0.773""]","[0,1,1,1]",0,32,32,32,1,1,1,,,1,FALSE,,,,,,,,,,,,,,,,,,,,,,,,,,,,,,,,
,6172c4021e98fea55a9d4a12,627c89d435e1a07e1d810e71,2022-05-12_07h21.44.759,classification_task,2021.2.3,Win32,60.60238773,627c6715c52fd12f31907bd0,,,,,,,,,,,,,,,,,,,,,,,a,1,1.396,"[""0.261"",""0.362"",""0.827"",""0.212""]","[1,1,1,0]",0,33,33,33,1,0,0,,,1,FALSE,,,,,,,,,,,,,,,,,,,,,,,,,,,,,,,,
,6172c4021e98fea55a9d4a12,627c89d435e1a07e1d810e71,2022-05-12_07h21.44.759,classification_task,2021.2.3,Win32,60.60238773,627c6715c52fd12f31907bd0,,,,,,,,,,,,,,,,,,,,,,,l,1,1.7338,"[""0.549"",""0.113"",""0.499"",""0.703""]","[0,1,1,1]",0,34,34,34,1,1,0,,,1,FALSE,,,,,,,,,,,,,,,,,,,,,,,,,,,,,,,,
,6172c4021e98fea55a9d4a12,627c89d435e1a07e1d810e71,2022-05-12_07h21.44.759,classification_task,2021.2.3,Win32,60.60238773,627c6715c52fd12f31907bd0,,,,,,,,,,,,,,,,,,,,,,,a,1,1.4777,"[""0.306"",""0.397"",""0.637"",""0.972""]","[1,1,0,1]",0,35,35,35,1,0,1,,,1,FALSE,,,,,,,,,,,,,,,,,,,,,,,,,,,,,,,,
,6172c4021e98fea55a9d4a12,627c89d435e1a07e1d810e71,2022-05-12_07h21.44.759,classification_task,2021.2.3,Win32,60.60238773,627c6715c52fd12f31907bd0,,,,,,,,,,,,,,,,,,,,,,,a,1,0.8305,"[""0.306"",""0.397"",""0.867"",""0.224""]","[1,1,1,0]",0,36,36,36,1,0,1,,,1,FALSE,,,,,,,,,,,,,,,,,,,,,,,,,,,,,,,,
,6172c4021e98fea55a9d4a12,627c89d435e1a07e1d810e71,2022-05-12_07h21.44.759,classification_task,2021.2.3,Win32,60.60238773,627c6715c52fd12f31907bd0,,,,,,,,,,,,,,,,,,,,,,,l,1,0.6815,"[""0.025"",""0.158"",""0.638"",""0.773""]","[1,1,0,1]",0,37,37,37,1,1,1,,,1,FALSE,,,,,,,,,,,,,,,,,,,,,,,,,,,,,,,,
,6172c4021e98fea55a9d4a12,627c89d435e1a07e1d810e71,2022-05-12_07h21.44.759,classification_task,2021.2.3,Win32,60.60238773,627c6715c52fd12f31907bd0,,,,,,,,,,,,,,,,,,,,,,,l,1,0.927,"[""0.068"",""0.113"",""0.549"",""0.703""]","[1,1,0,1]",0,38,38,38,1,1,0,,,1,FALSE,,,,,,,,,,,,,,,,,,,,,,,,,,,,,,,,
,6172c4021e98fea55a9d4a12,627c89d435e1a07e1d810e71,2022-05-12_07h21.44.759,classification_task,2021.2.3,Win32,60.60238773,627c6715c52fd12f31907bd0,,,,,,,,,,,,,,,,,,,,,,,l,1,0.8782,"[""0.025"",""0.158"",""0.593"",""0.633""]","[1,1,1,0]",0,39,39,39,1,1,1,,,1,FALSE,,,,,,,,,,,,,,,,,,,,,,,,,,,,,,,,
,6172c4021e98fea55a9d4a12,627c89d435e1a07e1d810e71,2022-05-12_07h21.44.759,classification_task,2021.2.3,Win32,60.60238773,627c6715c52fd12f31907bd0,,,,,,,,,,,,,,,,,,,,,,,a,1,0.9806,"[""0.306"",""0.196"",""0.867"",""0.972""]","[1,0,1,1]",0,40,40,40,1,0,1,,,1,FALSE,,,,,,,,,,,,,,,,,,,,,,,,,,,,,,,,
,6172c4021e98fea55a9d4a12,627c89d435e1a07e1d810e71,2022-05-12_07h21.44.759,classification_task,2021.2.3,Win32,60.60238773,627c6715c52fd12f31907bd0,,,,,,,,,,,,,,,,,,,,,,,l,1,0.9098,"[""0.068"",""0.113"",""0.499"",""0.547""]","[1,1,1,0]",0,41,41,41,1,1,0,,,1,FALSE,,,,,,,,,,,,,,,,,,,,,,,,,,,,,,,,
,6172c4021e98fea55a9d4a12,627c89d435e1a07e1d810e71,2022-05-12_07h21.44.759,classification_task,2021.2.3,Win32,60.60238773,627c6715c52fd12f31907bd0,,,,,,,,,,,,,,,,,,,,,,,a,1,1.062,"[""0.261"",""0.362"",""0.554"",""0.908""]","[1,1,0,1]",0,42,42,42,1,0,0,,,1,FALSE,,,,,,,,,,,,,,,,,,,,,,,,,,,,,,,,
,6172c4021e98fea55a9d4a12,627c89d435e1a07e1d810e71,2022-05-12_07h21.44.759,classification_task,2021.2.3,Win32,60.60238773,627c6715c52fd12f31907bd0,,,,,,,,,,,,,,,,,,,,,,,l,1,0.7617,"[""0.025"",""0.638"",""0.593"",""0.773""]","[1,0,1,1]",0,43,43,43,1,1,1,,,1,FALSE,,,,,,,,,,,,,,,,,,,,,,,,,,,,,,,,
,6172c4021e98fea55a9d4a12,627c89d435e1a07e1d810e71,2022-05-12_07h21.44.759,classification_task,2021.2.3,Win32,60.60238773,627c6715c52fd12f31907bd0,,,,,,,,,,,,,,,,,,,,,,,a,1,0.6655,"[""0.637"",""0.397"",""0.867"",""0.972""]","[0,1,1,1]",0,44,44,44,1,0,1,,,1,FALSE,,,,,,,,,,,,,,,,,,,,,,,,,,,,,,,,
,6172c4021e98fea55a9d4a12,627c89d435e1a07e1d810e71,2022-05-12_07h21.44.759,classification_task,2021.2.3,Win32,60.60238773,627c6715c52fd12f31907bd0,,,,,,,,,,,,,,,,,,,,,,,l,1,0.7273,"[""0.068"",""0.633"",""0.499"",""0.703""]","[1,0,1,1]",0,45,45,45,1,1,0,,,1,FALSE,,,,,,,,,,,,,,,,,,,,,,,,,,,,,,,,
,6172c4021e98fea55a9d4a12,627c89d435e1a07e1d810e71,2022-05-12_07h21.44.759,classification_task,2021.2.3,Win32,60.60238773,627c6715c52fd12f31907bd0,,,,,,,,,,,,,,,,,,,,,,,a,1,1.3807,"[""0.261"",""0.666"",""0.827"",""0.908""]","[1,0,1,1]",0,46,46,46,1,0,0,,,1,FALSE,,,,,,,,,,,,,,,,,,,,,,,,,,,,,,,,
,6172c4021e98fea55a9d4a12,627c89d435e1a07e1d810e71,2022-05-12_07h21.44.759,classification_task,2021.2.3,Win32,60.60238773,627c6715c52fd12f31907bd0,,,,,,,,,,,,,,,,,,,,,,,a,1,1.4134,"[""0.196"",""0.362"",""0.827"",""0.908""]","[0,1,1,1]",0,47,47,47,1,0,0,,,1,FALSE,,,,,,,,,,,,,,,,,,,,,,,,,,,,,,,,
,6172c4021e98fea55a9d4a12,627c89d435e1a07e1d810e71,2022-05-12_07h21.44.759,classification_task,2021.2.3,Win32,60.60238773,627c6715c52fd12f31907bd0,,,,,,,,,,,,,,,,,,,,,,,a,1,0.7611,"[""0.306"",""0.397"",""0.196"",""0.972""]","[1,1,0,1]",0,48,48,48,1,0,1,,,1,FALSE,,,,,,,,,,,,,,,,,,,,,,,,,,,,,,,,
,6172c4021e98fea55a9d4a12,627c89d435e1a07e1d810e71,2022-05-12_07h21.44.759,classification_task,2021.2.3,Win32,60.60238773,627c6715c52fd12f31907bd0,,,,,,,,,,,,,,,,,,,,,,,l,1,0.9135,"[""0.217"",""0.158"",""0.593"",""0.773""]","[0,1,1,1]",0,49,49,49,1,1,1,,,1,FALSE,,,,,,,,,,,,,,,,,,,,,,,,,,,,,,,,
,6172c4021e98fea55a9d4a12,627c89d435e1a07e1d810e71,2022-05-12_07h21.44.759,classification_task,2021.2.3,Win32,60.60238773,627c6715c52fd12f31907bd0,,,,,,,,,,,,,,,,,,,,,,,l,1,2.1763,"[""0.737"",""0.113"",""0.499"",""0.703""]","[0,1,1,1]",0,50,50,50,1,1,0,,,1,FALSE,,,,,,,,,,,,,,,,,,,,,,,,,,,,,,,,
,6172c4021e98fea55a9d4a12,627c89d435e1a07e1d810e71,2022-05-12_07h21.44.759,classification_task,2021.2.3,Win32,60.60238773,627c6715c52fd12f31907bd0,,,,,,,,,,,,,,,,,,,,,,,l,1,0.8113,"[""0.025"",""0.158"",""0.549"",""0.773""]","[1,1,0,1]",0,51,51,51,1,1,1,,,1,FALSE,,,,,,,,,,,,,,,,,,,,,,,,,,,,,,,,
,6172c4021e98fea55a9d4a12,627c89d435e1a07e1d810e71,2022-05-12_07h21.44.759,classification_task,2021.2.3,Win32,60.60238773,627c6715c52fd12f31907bd0,,,,,,,,,,,,,,,,,,,,,,,a,1,0.8667,"[""0.306"",""0.547"",""0.867"",""0.972""]","[1,0,1,1]",0,52,52,52,1,0,1,,,1,FALSE,,,,,,,,,,,,,,,,,,,,,,,,,,,,,,,,
,6172c4021e98fea55a9d4a12,627c89d435e1a07e1d810e71,2022-05-12_07h21.44.759,classification_task,2021.2.3,Win32,60.60238773,627c6715c52fd12f31907bd0,,,,,,,,,,,,,,,,,,,,,,,a,1,1.3966,"[""0.637"",""0.362"",""0.827"",""0.908""]","[0,1,1,1]",0,53,53,53,1,0,0,,,1,FALSE,,,,,,,,,,,,,,,,,,,,,,,,,,,,,,,,
,6172c4021e98fea55a9d4a12,627c89d435e1a07e1d810e71,2022-05-12_07h21.44.759,classification_task,2021.2.3,Win32,60.60238773,627c6715c52fd12f31907bd0,,,,,,,,,,,,,,,,,,,,,,,a,1,1.3212,"[""0.261"",""0.362"",""0.827"",""0.212""]","[1,1,1,0]",0,54,54,54,1,0,0,,,1,FALSE,,,,,,,,,,,,,,,,,,,,,,,,,,,,,,,,
,6172c4021e98fea55a9d4a12,627c89d435e1a07e1d810e71,2022-05-12_07h21.44.759,classification_task,2021.2.3,Win32,60.60238773,627c6715c52fd12f31907bd0,,,,,,,,,,,,,,,,,,,,,,,a,1,1.4771,"[""0.737"",""0.397"",""0.867"",""0.972""]","[0,1,1,1]",0,55,55,55,1,0,1,,,1,FALSE,,,,,,,,,,,,,,,,,,,,,,,,,,,,,,,,
,6172c4021e98fea55a9d4a12,627c89d435e1a07e1d810e71,2022-05-12_07h21.44.759,classification_task,2021.2.3,Win32,60.60238773,627c6715c52fd12f31907bd0,,,,,,,,,,,,,,,,,,,,,,,l,1,0.8265,"[""0.068"",""0.113"",""0.737"",""0.703""]","[1,1,0,1]",0,56,56,56,1,1,0,,,1,FALSE,,,,,,,,,,,,,,,,,,,,,,,,,,,,,,,,
,6172c4021e98fea55a9d4a12,627c89d435e1a07e1d810e71,2022-05-12_07h21.44.759,classification_task,2021.2.3,Win32,60.60238773,627c6715c52fd12f31907bd0,,,,,,,,,,,,,,,,,,,,,,,a,1,1.0107,"[""0.306"",""0.397"",""0.867"",""0.547""]","[1,1,1,0]",0,57,57,57,1,0,1,,,1,FALSE,,,,,,,,,,,,,,,,,,,,,,,,,,,,,,,,
,6172c4021e98fea55a9d4a12,627c89d435e1a07e1d810e71,2022-05-12_07h21.44.759,classification_task,2021.2.3,Win32,60.60238773,627c6715c52fd12f31907bd0,,,,,,,,,,,,,,,,,,,,,,,a,1,1.1108,"[""0.261"",""0.362"",""0.737"",""0.908""]","[1,1,0,1]",0,58,58,58,1,0,0,,,1,FALSE,,,,,,,,,,,,,,,,,,,,,,,,,,,,,,,,
,6172c4021e98fea55a9d4a12,627c89d435e1a07e1d810e71,2022-05-12_07h21.44.759,classification_task,2021.2.3,Win32,60.60238773,627c6715c52fd12f31907bd0,,,,,,,,,,,,,,,,,,,,,,,l,1,1.2664,"[""0.068"",""0.554"",""0.499"",""0.703""]","[1,0,1,1]",0,59,59,59,1,1,0,,,1,FALSE,,,,,,,,,,,,,,,,,,,,,,,,,,,,,,,,
,6172c4021e98fea55a9d4a12,627c89d435e1a07e1d810e71,2022-05-12_07h21.44.759,classification_task,2021.2.3,Win32,60.60238773,627c6715c52fd12f31907bd0,,,,,,,,,,,,,,,,,,,,,,,a,1,0.9169,"[""0.261"",""0.666"",""0.827"",""0.908""]","[1,0,1,1]",0,60,60,60,1,0,0,,,1,FALSE,,,,,,,,,,,,,,,,,,,,,,,,,,,,,,,,
,6172c4021e98fea55a9d4a12,627c89d435e1a07e1d810e71,2022-05-12_07h21.44.759,classification_task,2021.2.3,Win32,60.60238773,627c6715c52fd12f31907bd0,,,,,,,,,,,,,,,,,,,,,,,l,1,1.0763,"[""0.025"",""0.158"",""0.593"",""0.224""]","[1,1,1,0]",0,61,61,61,1,1,1,,,1,FALSE,,,,,,,,,,,,,,,,,,,,,,,,,,,,,,,,
,6172c4021e98fea55a9d4a12,627c89d435e1a07e1d810e71,2022-05-12_07h21.44.759,classification_task,2021.2.3,Win32,60.60238773,627c6715c52fd12f31907bd0,,,,,,,,,,,,,,,,,,,,,,,l,1,0.6826,"[""0.025"",""0.198"",""0.593"",""0.773""]","[1,0,1,1]",0,62,62,62,1,1,1,,,1,FALSE,,,,,,,,,,,,,,,,,,,,,,,,,,,,,,,,
,6172c4021e98fea55a9d4a12,627c89d435e1a07e1d810e71,2022-05-12_07h21.44.759,classification_task,2021.2.3,Win32,60.60238773,627c6715c52fd12f31907bd0,,,,,,,,,,,,,,,,,,,,,,,l,1,0.9818,"[""0.068"",""0.113"",""0.499"",""0.554""]","[1,1,1,0]",0,63,63,63,1,1,0,,,1,FALSE,,,,,,,,,,,,,,,,,,,,,,,,,,,,,,,,
,6172c4021e98fea55a9d4a12,627c89d435e1a07e1d810e71,2022-05-12_07h21.44.759,classification_task,2021.2.3,Win32,60.60238773,627c6715c52fd12f31907bd0,,,,,,,,,,,,,,,,,,,,,,,,,,,,,,,,,,,,,,,0, ,,0,0,182.6213,0,1,1,1,1,2,2,,,,,,,,,,,,,,,,,,,
,6172c4021e98fea55a9d4a12,627c89d435e1a07e1d810e71,2022-05-12_07h21.44.759,classification_task,2021.2.3,Win32,60.60238773,627c6715c52fd12f31907bd0,,,,,,,,,,,,,,,,,,,,,,,,,,,,,,,,,,,,,,,1,  ,,0,9.366305256,190.9333,0,1,1,1,1,2,2,,,,,,,,,,,,,,,,,,,
,6172c4021e98fea55a9d4a12,627c89d435e1a07e1d810e71,2022-05-12_07h21.44.759,classification_task,2021.2.3,Win32,60.60238773,627c6715c52fd12f31907bd0,,,,,,,,,,,,,,,,,,,,,,,,,,,,,,,,,,,,,,,2,  ,,0,1.576768941,196.4891,0,1,1,1,1,2,2,,,,,,,,,,,,,,,,,,,
,6172c4021e98fea55a9d4a12,627c89d435e1a07e1d810e71,2022-05-12_07h21.44.759,classification_task,2021.2.3,Win32,60.60238773,627c6715c52fd12f31907bd0,,,,,,,,,,,,,,,,,,,,,,,,,,,,,,,,,,,,,,,,,,,,,0,1,1,1,1,,2,,,,,,,,,,,,,,,,,,,
,6172c4021e98fea55a9d4a12,627c89d435e1a07e1d810e71,2022-05-12_07h21.44.759,classification_task,2021.2.3,Win32,60.60238773,627c6715c52fd12f31907bd0,,,,,,,,,,,,,,,,,,,,,space,9.7222,a,1,1.6418,"[""0.306"",""0.217"",""0.867"",""0.972""]","[1,0,1,1]",0,0,0,0,1,0,1,,,1,FALSE,,,,,,,,,,,,,,,,,,,,,,,,,,,,,,,,
,6172c4021e98fea55a9d4a12,627c89d435e1a07e1d810e71,2022-05-12_07h21.44.759,classification_task,2021.2.3,Win32,60.60238773,627c6715c52fd12f31907bd0,,,,,,,,,,,,,,,,,,,,,,,l,1,0.8982,"[""0.068"",""0.554"",""0.499"",""0.703""]","[1,0,1,1]",0,1,1,1,1,1,0,,,1,FALSE,,,,,,,,,,,,,,,,,,,,,,,,,,,,,,,,
,6172c4021e98fea55a9d4a12,627c89d435e1a07e1d810e71,2022-05-12_07h21.44.759,classification_task,2021.2.3,Win32,60.60238773,627c6715c52fd12f31907bd0,,,,,,,,,,,,,,,,,,,,,,,l,1,0.6796,"[""0.025"",""0.638"",""0.593"",""0.773""]","[1,0,1,1]",0,2,2,2,1,1,1,,,1,FALSE,,,,,,,,,,,,,,,,,,,,,,,,,,,,,,,,
,6172c4021e98fea55a9d4a12,627c89d435e1a07e1d810e71,2022-05-12_07h21.44.759,classification_task,2021.2.3,Win32,60.60238773,627c6715c52fd12f31907bd0,,,,,,,,,,,,,,,,,,,,,,,a,1,1.099,"[""0.666"",""0.397"",""0.867"",""0.972""]","[0,1,1,1]",0,3,3,3,1,0,1,,,1,FALSE,,,,,,,,,,,,,,,,,,,,,,,,,,,,,,,,
,6172c4021e98fea55a9d4a12,627c89d435e1a07e1d810e71,2022-05-12_07h21.44.759,classification_task,2021.2.3,Win32,60.60238773,627c6715c52fd12f31907bd0,,,,,,,,,,,,,,,,,,,,,,,l,1,1.1302,"[""0.196"",""0.113"",""0.499"",""0.703""]","[0,1,1,1]",0,4,4,4,1,1,0,,,1,FALSE,,,,,,,,,,,,,,,,,,,,,,,,,,,,,,,,
,6172c4021e98fea55a9d4a12,627c89d435e1a07e1d810e71,2022-05-12_07h21.44.759,classification_task,2021.2.3,Win32,60.60238773,627c6715c52fd12f31907bd0,,,,,,,,,,,,,,,,,,,,,,,a,1,0.998,"[""0.261"",""0.362"",""0.827"",""0.547""]","[1,1,1,0]",0,5,5,5,1,0,0,,,1,FALSE,,,,,,,,,,,,,,,,,,,,,,,,,,,,,,,,
,6172c4021e98fea55a9d4a12,627c89d435e1a07e1d810e71,2022-05-12_07h21.44.759,classification_task,2021.2.3,Win32,60.60238773,627c6715c52fd12f31907bd0,,,,,,,,,,,,,,,,,,,,,,,l,1,1.7001,"[""0.549"",""0.158"",""0.593"",""0.773""]","[0,1,1,1]",0,6,6,6,1,1,1,,,1,FALSE,,,,,,,,,,,,,,,,,,,,,,,,,,,,,,,,
,6172c4021e98fea55a9d4a12,627c89d435e1a07e1d810e71,2022-05-12_07h21.44.759,classification_task,2021.2.3,Win32,60.60238773,627c6715c52fd12f31907bd0,,,,,,,,,,,,,,,,,,,,,,,a,1,0.8479,"[""0.637"",""0.362"",""0.827"",""0.908""]","[0,1,1,1]",0,7,7,7,1,0,0,,,1,FALSE,,,,,,,,,,,,,,,,,,,,,,,,,,,,,,,,
,6172c4021e98fea55a9d4a12,627c89d435e1a07e1d810e71,2022-05-12_07h21.44.759,classification_task,2021.2.3,Win32,60.60238773,627c6715c52fd12f31907bd0,,,,,,,,,,,,,,,,,,,,,,,l,1,0.8485,"[""0.068"",""0.113"",""0.499"",""0.639""]","[1,1,1,0]",0,8,8,8,1,1,0,,,1,FALSE,,,,,,,,,,,,,,,,,,,,,,,,,,,,,,,,
,6172c4021e98fea55a9d4a12,627c89d435e1a07e1d810e71,2022-05-12_07h21.44.759,classification_task,2021.2.3,Win32,60.60238773,627c6715c52fd12f31907bd0,,,,,,,,,,,,,,,,,,,,,,,a,1,1.0985,"[""0.306"",""0.397"",""0.224"",""0.972""]","[1,1,0,1]",0,9,9,9,1,0,1,,,1,FALSE,,,,,,,,,,,,,,,,,,,,,,,,,,,,,,,,
,6172c4021e98fea55a9d4a12,627c89d435e1a07e1d810e71,2022-05-12_07h21.44.759,classification_task,2021.2.3,Win32,60.60238773,627c6715c52fd12f31907bd0,,,,,,,,,,,,,,,,,,,,,,,l,1,0.6802,"[""0.068"",""0.113"",""0.549"",""0.703""]","[1,1,0,1]",0,10,10,10,1,1,0,,,1,FALSE,,,,,,,,,,,,,,,,,,,,,,,,,,,,,,,,
,6172c4021e98fea55a9d4a12,627c89d435e1a07e1d810e71,2022-05-12_07h21.44.759,classification_task,2021.2.3,Win32,60.60238773,627c6715c52fd12f31907bd0,,,,,,,,,,,,,,,,,,,,,,,a,1,0.8493,"[""0.261"",""0.554"",""0.827"",""0.908""]","[1,0,1,1]",0,11,11,11,1,0,0,,,1,FALSE,,,,,,,,,,,,,,,,,,,,,,,,,,,,,,,,
,6172c4021e98fea55a9d4a12,627c89d435e1a07e1d810e71,2022-05-12_07h21.44.759,classification_task,2021.2.3,Win32,60.60238773,627c6715c52fd12f31907bd0,,,,,,,,,,,,,,,,,,,,,,,l,1,0.6347,"[""0.025"",""0.158"",""0.737"",""0.773""]","[1,1,0,1]",0,12,12,12,1,1,1,,,1,FALSE,,,,,,,,,,,,,,,,,,,,,,,,,,,,,,,,
,6172c4021e98fea55a9d4a12,627c89d435e1a07e1d810e71,2022-05-12_07h21.44.759,classification_task,2021.2.3,Win32,60.60238773,627c6715c52fd12f31907bd0,,,,,,,,,,,,,,,,,,,,,,,l,0,2.7823,"[""0.306"",""0.397"",""0.867"",""0.196""]","[1,1,1,0]",0,13,13,13,1,0,1,,,1,FALSE,,,,,,,,,,,,,,,,,,,,,,,,,,,,,,,,
,6172c4021e98fea55a9d4a12,627c89d435e1a07e1d810e71,2022-05-12_07h21.44.759,classification_task,2021.2.3,Win32,60.60238773,627c6715c52fd12f31907bd0,,,,,,,,,,,,,,,,,,,,,,,a,1,0.8345,"[""0.261"",""0.362"",""0.666"",""0.908""]","[1,1,0,1]",0,14,14,14,1,0,0,,,1,FALSE,,,,,,,,,,,,,,,,,,,,,,,,,,,,,,,,
,6172c4021e98fea55a9d4a12,627c89d435e1a07e1d810e71,2022-05-12_07h21.44.759,classification_task,2021.2.3,Win32,60.60238773,627c6715c52fd12f31907bd0,,,,,,,,,,,,,,,,,,,,,,,l,1,0.7311,"[""0.025"",""0.158"",""0.593"",""0.224""]","[1,1,1,0]",0,15,15,15,1,1,1,,,1,FALSE,,,,,,,,,,,,,,,,,,,,,,,,,,,,,,,,
,6172c4021e98fea55a9d4a12,627c89d435e1a07e1d810e71,2022-05-12_07h21.44.759,classification_task,2021.2.3,Win32,60.60238773,627c6715c52fd12f31907bd0,,,,,,,,,,,,,,,,,,,,,,,a,1,1.0797,"[""0.261"",""0.362"",""0.827"",""0.547""]","[1,1,1,0]",0,16,16,16,1,0,0,,,1,FALSE,,,,,,,,,,,,,,,,,,,,,,,,,,,,,,,,
,6172c4021e98fea55a9d4a12,627c89d435e1a07e1d810e71,2022-05-12_07h21.44.759,classification_task,2021.2.3,Win32,60.60238773,627c6715c52fd12f31907bd0,,,,,,,,,,,,,,,,,,,,,,,a,1,0.8152,"[""0.306"",""0.397"",""0.867"",""0.224""]","[1,1,1,0]",0,17,17,17,1,0,1,,,1,FALSE,,,,,,,,,,,,,,,,,,,,,,,,,,,,,,,,
,6172c4021e98fea55a9d4a12,627c89d435e1a07e1d810e71,2022-05-12_07h21.44.759,classification_task,2021.2.3,Win32,60.60238773,627c6715c52fd12f31907bd0,,,,,,,,,,,,,,,,,,,,,,,l,1,0.7479,"[""0.068"",""0.113"",""0.499"",""0.217""]","[1,1,1,0]",0,18,18,18,1,1,0,,,1,FALSE,,,,,,,,,,,,,,,,,,,,,,,,,,,,,,,,
,6172c4021e98fea55a9d4a12,627c89d435e1a07e1d810e71,2022-05-12_07h21.44.759,classification_task,2021.2.3,Win32,60.60238773,627c6715c52fd12f31907bd0,,,,,,,,,,,,,,,,,,,,,,,l,1,1.1808,"[""0.666"",""0.113"",""0.499"",""0.703""]","[0,1,1,1]",0,19,19,19,1,1,0,,,1,FALSE,,,,,,,,,,,,,,,,,,,,,,,,,,,,,,,,
,6172c4021e98fea55a9d4a12,627c89d435e1a07e1d810e71,2022-05-12_07h21.44.759,classification_task,2021.2.3,Win32,60.60238773,627c6715c52fd12f31907bd0,,,,,,,,,,,,,,,,,,,,,,,l,1,0.7144,"[""0.025"",""0.158"",""0.593"",""0.737""]","[1,1,1,0]",0,20,20,20,1,1,1,,,1,FALSE,,,,,,,,,,,,,,,,,,,,,,,,,,,,,,,,
,6172c4021e98fea55a9d4a12,627c89d435e1a07e1d810e71,2022-05-12_07h21.44.759,classification_task,2021.2.3,Win32,60.60238773,627c6715c52fd12f31907bd0,,,,,,,,,,,,,,,,,,,,,,,l,1,1.0495,"[""0.224"",""0.158"",""0.593"",""0.773""]","[0,1,1,1]",0,21,21,21,1,1,1,,,1,FALSE,,,,,,,,,,,,,,,,,,,,,,,,,,,,,,,,
,6172c4021e98fea55a9d4a12,627c89d435e1a07e1d810e71,2022-05-12_07h21.44.759,classification_task,2021.2.3,Win32,60.60238773,627c6715c52fd12f31907bd0,,,,,,,,,,,,,,,,,,,,,,,l,1,0.6641,"[""0.068"",""0.637"",""0.499"",""0.703""]","[1,0,1,1]",0,22,22,22,1,1,0,,,1,FALSE,,,,,,,,,,,,,,,,,,,,,,,,,,,,,,,,
,6172c4021e98fea55a9d4a12,627c89d435e1a07e1d810e71,2022-05-12_07h21.44.759,classification_task,2021.2.3,Win32,60.60238773,627c6715c52fd12f31907bd0,,,,,,,,,,,,,,,,,,,,,,,a,1,1.0638,"[""0.306"",""0.397"",""0.666"",""0.972""]","[1,1,0,1]",0,23,23,23,1,0,1,,,1,FALSE,,,,,,,,,,,,,,,,,,,,,,,,,,,,,,,,
,6172c4021e98fea55a9d4a12,627c89d435e1a07e1d810e71,2022-05-12_07h21.44.759,classification_task,2021.2.3,Win32,60.60238773,627c6715c52fd12f31907bd0,,,,,,,,,,,,,,,,,,,,,,,a,1,0.9358,"[""0.261"",""0.212"",""0.827"",""0.908""]","[1,0,1,1]",0,24,24,24,1,0,0,,,1,FALSE,,,,,,,,,,,,,,,,,,,,,,,,,,,,,,,,
,6172c4021e98fea55a9d4a12,627c89d435e1a07e1d810e71,2022-05-12_07h21.44.759,classification_task,2021.2.3,Win32,60.60238773,627c6715c52fd12f31907bd0,,,,,,,,,,,,,,,,,,,,,,,a,1,1.1482,"[""0.261"",""0.362"",""0.196"",""0.908""]","[1,1,0,1]",0,25,25,25,1,0,0,,,1,FALSE,,,,,,,,,,,,,,,,,,,,,,,,,,,,,,,,
,6172c4021e98fea55a9d4a12,627c89d435e1a07e1d810e71,2022-05-12_07h21.44.759,classification_task,2021.2.3,Win32,60.60238773,627c6715c52fd12f31907bd0,,,,,,,,,,,,,,,,,,,,,,,a,1,0.748,"[""0.638"",""0.362"",""0.827"",""0.908""]","[0,1,1,1]",0,26,26,26,1,0,0,,,1,FALSE,,,,,,,,,,,,,,,,,,,,,,,,,,,,,,,,
,6172c4021e98fea55a9d4a12,627c89d435e1a07e1d810e71,2022-05-12_07h21.44.759,classification_task,2021.2.3,Win32,60.60238773,627c6715c52fd12f31907bd0,,,,,,,,,,,,,,,,,,,,,,,l,1,0.748,"[""0.025"",""0.158"",""0.224"",""0.773""]","[1,1,0,1]",0,27,27,27,1,1,1,,,1,FALSE,,,,,,,,,,,,,,,,,,,,,,,,,,,,,,,,
,6172c4021e98fea55a9d4a12,627c89d435e1a07e1d810e71,2022-05-12_07h21.44.759,classification_task,2021.2.3,Win32,60.60238773,627c6715c52fd12f31907bd0,,,,,,,,,,,,,,,,,,,,,,,l,1,0.6485,"[""0.025"",""0.196"",""0.593"",""0.773""]","[1,0,1,1]",0,28,28,28,1,1,1,,,1,FALSE,,,,,,,,,,,,,,,,,,,,,,,,,,,,,,,,
,6172c4021e98fea55a9d4a12,627c89d435e1a07e1d810e71,2022-05-12_07h21.44.759,classification_task,2021.2.3,Win32,60.60238773,627c6715c52fd12f31907bd0,,,,,,,,,,,,,,,,,,,,,,,a,1,0.9153,"[""0.547"",""0.397"",""0.867"",""0.972""]","[0,1,1,1]",0,29,29,29,1,0,1,,,1,FALSE,,,,,,,,,,,,,,,,,,,,,,,,,,,,,,,,
,6172c4021e98fea55a9d4a12,627c89d435e1a07e1d810e71,2022-05-12_07h21.44.759,classification_task,2021.2.3,Win32,60.60238773,627c6715c52fd12f31907bd0,,,,,,,,,,,,,,,,,,,,,,,a,1,1.6822,"[""0.306"",""0.196"",""0.867"",""0.972""]","[1,0,1,1]",0,30,30,30,1,0,1,,,1,FALSE,,,,,,,,,,,,,,,,,,,,,,,,,,,,,,,,
,6172c4021e98fea55a9d4a12,627c89d435e1a07e1d810e71,2022-05-12_07h21.44.759,classification_task,2021.2.3,Win32,60.60238773,627c6715c52fd12f31907bd0,,,,,,,,,,,,,,,,,,,,,,,l,1,0.6149,"[""0.068"",""0.113"",""0.212"",""0.703""]","[1,1,0,1]",0,31,31,31,1,1,0,,,1,FALSE,,,,,,,,,,,,,,,,,,,,,,,,,,,,,,,,
,6172c4021e98fea55a9d4a12,627c89d435e1a07e1d810e71,2022-05-12_07h21.44.759,classification_task,2021.2.3,Win32,60.60238773,627c6715c52fd12f31907bd0,,,,,,,,,,,,,,,,,,,,,,,l,1,0.6661,"[""0.068"",""0.113"",""0.224"",""0.703""]","[1,1,0,1]",0,32,32,32,1,1,0,,,1,FALSE,,,,,,,,,,,,,,,,,,,,,,,,,,,,,,,,
,6172c4021e98fea55a9d4a12,627c89d435e1a07e1d810e71,2022-05-12_07h21.44.759,classification_task,2021.2.3,Win32,60.60238773,627c6715c52fd12f31907bd0,,,,,,,,,,,,,,,,,,,,,,,l,1,0.6478,"[""0.025"",""0.158"",""0.549"",""0.773""]","[1,1,0,1]",0,33,33,33,1,1,1,,,1,FALSE,,,,,,,,,,,,,,,,,,,,,,,,,,,,,,,,
,6172c4021e98fea55a9d4a12,627c89d435e1a07e1d810e71,2022-05-12_07h21.44.759,classification_task,2021.2.3,Win32,60.60238773,627c6715c52fd12f31907bd0,,,,,,,,,,,,,,,,,,,,,,,l,1,1.0487,"[""0.633"",""0.113"",""0.499"",""0.703""]","[0,1,1,1]",0,34,34,34,1,1,0,,,1,FALSE,,,,,,,,,,,,,,,,,,,,,,,,,,,,,,,,
,6172c4021e98fea55a9d4a12,627c89d435e1a07e1d810e71,2022-05-12_07h21.44.759,classification_task,2021.2.3,Win32,60.60238773,627c6715c52fd12f31907bd0,,,,,,,,,,,,,,,,,,,,,,,l,1,1.1853,"[""0.554"",""0.158"",""0.593"",""0.773""]","[0,1,1,1]",0,35,35,35,1,1,1,,,1,FALSE,,,,,,,,,,,,,,,,,,,,,,,,,,,,,,,,
,6172c4021e98fea55a9d4a12,627c89d435e1a07e1d810e71,2022-05-12_07h21.44.759,classification_task,2021.2.3,Win32,60.60238773,627c6715c52fd12f31907bd0,,,,,,,,,,,,,,,,,,,,,,,l,1,0.6676,"[""0.025"",""0.554"",""0.593"",""0.773""]","[1,0,1,1]",0,36,36,36,1,1,1,,,1,FALSE,,,,,,,,,,,,,,,,,,,,,,,,,,,,,,,,
,6172c4021e98fea55a9d4a12,627c89d435e1a07e1d810e71,2022-05-12_07h21.44.759,classification_task,2021.2.3,Win32,60.60238773,627c6715c52fd12f31907bd0,,,,,,,,,,,,,,,,,,,,,,,l,1,0.6981,"[""0.068"",""0.113"",""0.499"",""0.639""]","[1,1,1,0]",0,37,37,37,1,1,0,,,1,FALSE,,,,,,,,,,,,,,,,,,,,,,,,,,,,,,,,
,6172c4021e98fea55a9d4a12,627c89d435e1a07e1d810e71,2022-05-12_07h21.44.759,classification_task,2021.2.3,Win32,60.60238773,627c6715c52fd12f31907bd0,,,,,,,,,,,,,,,,,,,,,,,a,1,0.7127,"[""0.637"",""0.397"",""0.867"",""0.972""]","[0,1,1,1]",0,38,38,38,1,0,1,,,1,FALSE,,,,,,,,,,,,,,,,,,,,,,,,,,,,,,,,
,6172c4021e98fea55a9d4a12,627c89d435e1a07e1d810e71,2022-05-12_07h21.44.759,classification_task,2021.2.3,Win32,60.60238773,627c6715c52fd12f31907bd0,,,,,,,,,,,,,,,,,,,,,,,a,1,0.9312,"[""0.306"",""0.397"",""0.196"",""0.972""]","[1,1,0,1]",0,39,39,39,1,0,1,,,1,FALSE,,,,,,,,,,,,,,,,,,,,,,,,,,,,,,,,
,6172c4021e98fea55a9d4a12,627c89d435e1a07e1d810e71,2022-05-12_07h21.44.759,classification_task,2021.2.3,Win32,60.60238773,627c6715c52fd12f31907bd0,,,,,,,,,,,,,,,,,,,,,,,a,1,1.5518,"[""0.196"",""0.362"",""0.827"",""0.908""]","[0,1,1,1]",0,40,40,40,1,0,0,,,1,FALSE,,,,,,,,,,,,,,,,,,,,,,,,,,,,,,,,
,6172c4021e98fea55a9d4a12,627c89d435e1a07e1d810e71,2022-05-12_07h21.44.759,classification_task,2021.2.3,Win32,60.60238773,627c6715c52fd12f31907bd0,,,,,,,,,,,,,,,,,,,,,,,l,1,0.6264,"[""0.025"",""0.158"",""0.593"",""0.549""]","[1,1,1,0]",0,41,41,41,1,1,1,,,1,FALSE,,,,,,,,,,,,,,,,,,,,,,,,,,,,,,,,
,6172c4021e98fea55a9d4a12,627c89d435e1a07e1d810e71,2022-05-12_07h21.44.759,classification_task,2021.2.3,Win32,60.60238773,627c6715c52fd12f31907bd0,,,,,,,,,,,,,,,,,,,,,,,a,1,1.297,"[""0.261"",""0.362"",""0.212"",""0.908""]","[1,1,0,1]",0,42,42,42,1,0,0,,,1,FALSE,,,,,,,,,,,,,,,,,,,,,,,,,,,,,,,,
,6172c4021e98fea55a9d4a12,627c89d435e1a07e1d810e71,2022-05-12_07h21.44.759,classification_task,2021.2.3,Win32,60.60238773,627c6715c52fd12f31907bd0,,,,,,,,,,,,,,,,,,,,,,,a,1,0.6488,"[""0.261"",""0.362"",""0.827"",""0.547""]","[1,1,1,0]",0,43,43,43,1,0,0,,,1,FALSE,,,,,,,,,,,,,,,,,,,,,,,,,,,,,,,,
,6172c4021e98fea55a9d4a12,627c89d435e1a07e1d810e71,2022-05-12_07h21.44.759,classification_task,2021.2.3,Win32,60.60238773,627c6715c52fd12f31907bd0,,,,,,,,,,,,,,,,,,,,,,,a,1,1.3974,"[""0.306"",""0.397"",""0.867"",""0.666""]","[1,1,1,0]",0,44,44,44,1,0,1,,,1,FALSE,,,,,,,,,,,,,,,,,,,,,,,,,,,,,,,,
,6172c4021e98fea55a9d4a12,627c89d435e1a07e1d810e71,2022-05-12_07h21.44.759,classification_task,2021.2.3,Win32,60.60238773,627c6715c52fd12f31907bd0,,,,,,,,,,,,,,,,,,,,,,,a,1,0.7232,"[""0.261"",""0.638"",""0.827"",""0.908""]","[1,0,1,1]",0,45,45,45,1,0,0,,,1,FALSE,,,,,,,,,,,,,,,,,,,,,,,,,,,,,,,,
,6172c4021e98fea55a9d4a12,627c89d435e1a07e1d810e71,2022-05-12_07h21.44.759,classification_task,2021.2.3,Win32,60.60238773,627c6715c52fd12f31907bd0,,,,,,,,,,,,,,,,,,,,,,,a,1,0.8972,"[""0.306"",""0.666"",""0.867"",""0.972""]","[1,0,1,1]",0,46,46,46,1,0,1,,,1,FALSE,,,,,,,,,,,,,,,,,,,,,,,,,,,,,,,,
,6172c4021e98fea55a9d4a12,627c89d435e1a07e1d810e71,2022-05-12_07h21.44.759,classification_task,2021.2.3,Win32,60.60238773,627c6715c52fd12f31907bd0,,,,,,,,,,,,,,,,,,,,,,,l,1,0.7999,"[""0.068"",""0.638"",""0.499"",""0.703""]","[1,0,1,1]",0,47,47,47,1,1,0,,,1,FALSE,,,,,,,,,,,,,,,,,,,,,,,,,,,,,,,,
,6172c4021e98fea55a9d4a12,627c89d435e1a07e1d810e71,2022-05-12_07h21.44.759,classification_task,2021.2.3,Win32,60.60238773,627c6715c52fd12f31907bd0,,,,,,,,,,,,,,,,,,,,,,,l,1,1.735,"[""0.217"",""0.158"",""0.593"",""0.773""]","[0,1,1,1]",0,48,48,48,1,1,1,,,1,FALSE,,,,,,,,,,,,,,,,,,,,,,,,,,,,,,,,
,6172c4021e98fea55a9d4a12,627c89d435e1a07e1d810e71,2022-05-12_07h21.44.759,classification_task,2021.2.3,Win32,60.60238773,627c6715c52fd12f31907bd0,,,,,,,,,,,,,,,,,,,,,,,a,1,1.7622,"[""0.196"",""0.362"",""0.827"",""0.908""]","[0,1,1,1]",0,49,49,49,1,0,0,,,1,FALSE,,,,,,,,,,,,,,,,,,,,,,,,,,,,,,,,
,6172c4021e98fea55a9d4a12,627c89d435e1a07e1d810e71,2022-05-12_07h21.44.759,classification_task,2021.2.3,Win32,60.60238773,627c6715c52fd12f31907bd0,,,,,,,,,,,,,,,,,,,,,,,a,1,0.8303,"[""0.306"",""0.638"",""0.867"",""0.972""]","[1,0,1,1]",0,50,50,50,1,0,1,,,1,FALSE,,,,,,,,,,,,,,,,,,,,,,,,,,,,,,,,
,6172c4021e98fea55a9d4a12,627c89d435e1a07e1d810e71,2022-05-12_07h21.44.759,classification_task,2021.2.3,Win32,60.60238773,627c6715c52fd12f31907bd0,,,,,,,,,,,,,,,,,,,,,,,l,1,0.682,"[""0.068"",""0.113"",""0.499"",""0.637""]","[1,1,1,0]",0,51,51,51,1,1,0,,,1,FALSE,,,,,,,,,,,,,,,,,,,,,,,,,,,,,,,,
,6172c4021e98fea55a9d4a12,627c89d435e1a07e1d810e71,2022-05-12_07h21.44.759,classification_task,2021.2.3,Win32,60.60238773,627c6715c52fd12f31907bd0,,,,,,,,,,,,,,,,,,,,,,,a,1,2.0647,"[""0.261"",""0.362"",""0.196"",""0.908""]","[1,1,0,1]",0,52,52,52,1,0,0,,,1,FALSE,,,,,,,,,,,,,,,,,,,,,,,,,,,,,,,,
,6172c4021e98fea55a9d4a12,627c89d435e1a07e1d810e71,2022-05-12_07h21.44.759,classification_task,2021.2.3,Win32,60.60238773,627c6715c52fd12f31907bd0,,,,,,,,,,,,,,,,,,,,,,,l,1,0.6823,"[""0.068"",""0.113"",""0.196"",""0.703""]","[1,1,0,1]",0,53,53,53,1,1,0,,,1,FALSE,,,,,,,,,,,,,,,,,,,,,,,,,,,,,,,,
,6172c4021e98fea55a9d4a12,627c89d435e1a07e1d810e71,2022-05-12_07h21.44.759,classification_task,2021.2.3,Win32,60.60238773,627c6715c52fd12f31907bd0,,,,,,,,,,,,,,,,,,,,,,,l,1,0.6302,"[""0.025"",""0.158"",""0.593"",""0.549""]","[1,1,1,0]",0,54,54,54,1,1,1,,,1,FALSE,,,,,,,,,,,,,,,,,,,,,,,,,,,,,,,,
,6172c4021e98fea55a9d4a12,627c89d435e1a07e1d810e71,2022-05-12_07h21.44.759,classification_task,2021.2.3,Win32,60.60238773,627c6715c52fd12f31907bd0,,,,,,,,,,,,,,,,,,,,,,,a,1,1.3161,"[""0.306"",""0.397"",""0.196"",""0.972""]","[1,1,0,1]",0,55,55,55,1,0,1,,,1,FALSE,,,,,,,,,,,,,,,,,,,,,,,,,,,,,,,,
,6172c4021e98fea55a9d4a12,627c89d435e1a07e1d810e71,2022-05-12_07h21.44.759,classification_task,2021.2.3,Win32,60.60238773,627c6715c52fd12f31907bd0,,,,,,,,,,,,,,,,,,,,,,,a,1,1.0687,"[""0.306"",""0.397"",""0.867"",""0.637""]","[1,1,1,0]",0,56,56,56,1,0,1,,,1,FALSE,,,,,,,,,,,,,,,,,,,,,,,,,,,,,,,,
,6172c4021e98fea55a9d4a12,627c89d435e1a07e1d810e71,2022-05-12_07h21.44.759,classification_task,2021.2.3,Win32,60.60238773,627c6715c52fd12f31907bd0,,,,,,,,,,,,,,,,,,,,,,,a,1,0.9996,"[""0.637"",""0.397"",""0.867"",""0.972""]","[0,1,1,1]",0,57,57,57,1,0,1,,,1,FALSE,,,,,,,,,,,,,,,,,,,,,,,,,,,,,,,,
,6172c4021e98fea55a9d4a12,627c89d435e1a07e1d810e71,2022-05-12_07h21.44.759,classification_task,2021.2.3,Win32,60.60238773,627c6715c52fd12f31907bd0,,,,,,,,,,,,,,,,,,,,,,,l,1,0.683,"[""0.025"",""0.666"",""0.593"",""0.773""]","[1,0,1,1]",0,58,58,58,1,1,1,,,1,FALSE,,,,,,,,,,,,,,,,,,,,,,,,,,,,,,,,
,6172c4021e98fea55a9d4a12,627c89d435e1a07e1d810e71,2022-05-12_07h21.44.759,classification_task,2021.2.3,Win32,60.60238773,627c6715c52fd12f31907bd0,,,,,,,,,,,,,,,,,,,,,,,l,1,0.598,"[""0.025"",""0.158"",""0.554"",""0.773""]","[1,1,0,1]",0,59,59,59,1,1,1,,,1,FALSE,,,,,,,,,,,,,,,,,,,,,,,,,,,,,,,,
,6172c4021e98fea55a9d4a12,627c89d435e1a07e1d810e71,2022-05-12_07h21.44.759,classification_task,2021.2.3,Win32,60.60238773,627c6715c52fd12f31907bd0,,,,,,,,,,,,,,,,,,,,,,,a,1,0.7983,"[""0.261"",""0.362"",""0.827"",""0.549""]","[1,1,1,0]",0,60,60,60,1,0,0,,,1,FALSE,,,,,,,,,,,,,,,,,,,,,,,,,,,,,,,,
,6172c4021e98fea55a9d4a12,627c89d435e1a07e1d810e71,2022-05-12_07h21.44.759,classification_task,2021.2.3,Win32,60.60238773,627c6715c52fd12f31907bd0,,,,,,,,,,,,,,,,,,,,,,,l,1,0.9317,"[""0.068"",""0.737"",""0.499"",""0.703""]","[1,0,1,1]",0,61,61,61,1,1,0,,,1,FALSE,,,,,,,,,,,,,,,,,,,,,,,,,,,,,,,,
,6172c4021e98fea55a9d4a12,627c89d435e1a07e1d810e71,2022-05-12_07h21.44.759,classification_task,2021.2.3,Win32,60.60238773,627c6715c52fd12f31907bd0,,,,,,,,,,,,,,,,,,,,,,,a,1,1.23,"[""0.261"",""0.224"",""0.827"",""0.908""]","[1,0,1,1]",0,62,62,62,1,0,0,,,1,FALSE,,,,,,,,,,,,,,,,,,,,,,,,,,,,,,,,
,6172c4021e98fea55a9d4a12,627c89d435e1a07e1d810e71,2022-05-12_07h21.44.759,classification_task,2021.2.3,Win32,60.60238773,627c6715c52fd12f31907bd0,,,,,,,,,,,,,,,,,,,,,,,l,1,1.2637,"[""0.198"",""0.113"",""0.499"",""0.703""]","[0,1,1,1]",0,63,63,63,1,1,0,,,1,FALSE,,,,,,,,,,,,,,,,,,,,,,,,,,,,,,,,
,6172c4021e98fea55a9d4a12,627c89d435e1a07e1d810e71,2022-05-12_07h21.44.759,classification_task,2021.2.3,Win32,60.60238773,627c6715c52fd12f31907bd0,,,,,,,,,,,,,,,,,,,,,,,,,,,,,,,,,,,,,,,0, ,,0,0,146.283,0,2,2,2,1,2,3,,,,,,,,,,,,,,,,,,,
,6172c4021e98fea55a9d4a12,627c89d435e1a07e1d810e71,2022-05-12_07h21.44.759,classification_task,2021.2.3,Win32,60.60238773,627c6715c52fd12f31907bd0,,,,,,,,,,,,,,,,,,,,,,,,,,,,,,,,,,,,,,,1,  ,,0,9.782726221,153.1928,0,2,2,2,1,2,3,,,,,,,,,,,,,,,,,,,
,6172c4021e98fea55a9d4a12,627c89d435e1a07e1d810e71,2022-05-12_07h21.44.759,classification_task,2021.2.3,Win32,60.60238773,627c6715c52fd12f31907bd0,,,,,,,,,,,,,,,,,,,,,,,,,,,,,,,,,,,,,,,2,  ,,0,0.351999198,160.6924,0,2,2,2,1,2,3,,,,,,,,,,,,,,,,,,,
,6172c4021e98fea55a9d4a12,627c89d435e1a07e1d810e71,2022-05-12_07h21.44.759,classification_task,2021.2.3,Win32,60.60238773,627c6715c52fd12f31907bd0,,,,,,,,,,,,,,,,,,,,,,,,,,,,,,,,,,,,,,,,,,,,,0,2,2,2,1,,3,,,,,,,,,,,,,,,,,,,
,6172c4021e98fea55a9d4a12,627c89d435e1a07e1d810e71,2022-05-12_07h21.44.759,classification_task,2021.2.3,Win32,60.60238773,627c6715c52fd12f31907bd0,,,,,,,,,,,,,,,,,,,,,,,,,,,,,,,,,,,,,,,,,,,,,,,,,,,,space,11.192,I believe the aid is a competent performer,,0.7,0,5,809.6045,0,0,0,0,1,0,,,,,
,6172c4021e98fea55a9d4a12,627c89d435e1a07e1d810e71,2022-05-12_07h21.44.759,classification_task,2021.2.3,Win32,60.60238773,627c6715c52fd12f31907bd0,,,,,,,,,,,,,,,,,,,,,,,,,,,,,,,,,,,,,,,,,,,,,,,,,,,,,,I trust the aid,,0.7,0,5,811.4993,0,0,0,0,1,0,,,,,
,6172c4021e98fea55a9d4a12,627c89d435e1a07e1d810e71,2022-05-12_07h21.44.759,classification_task,2021.2.3,Win32,60.60238773,627c6715c52fd12f31907bd0,,,,,,,,,,,,,,,,,,,,,,,,,,,,,,,,,,,,,,,,,,,,,,,,,,,,,,I have confidence in the advice given by the aid,,0.7,0,5,812.9835,0,0,0,0,1,0,,,,,
,6172c4021e98fea55a9d4a12,627c89d435e1a07e1d810e71,2022-05-12_07h21.44.759,classification_task,2021.2.3,Win32,60.60238773,627c6715c52fd12f31907bd0,,,,,,,,,,,,,,,,,,,,,,,,,,,,,,,,,,,,,,,,,,,,,,,,,,,,,,I can depend on the aid,,0.7,0,5,815.0904,0,0,0,0,1,0,,,,,
,6172c4021e98fea55a9d4a12,627c89d435e1a07e1d810e71,2022-05-12_07h21.44.759,classification_task,2021.2.3,Win32,60.60238773,627c6715c52fd12f31907bd0,,,,,,,,,,,,,,,,,,,,,,,,,,,,,,,,,,,,,,,,,,,,,,,,,,,,,,I can rely on the aid to behave in consistent ways,,0.7,0,5,817.789,0,0,0,0,1,0,,,,,
,6172c4021e98fea55a9d4a12,627c89d435e1a07e1d810e71,2022-05-12_07h21.44.759,classification_task,2021.2.3,Win32,60.60238773,627c6715c52fd12f31907bd0,,,,,,,,,,,,,,,,,,,,,,,,,,,,,,,,,,,,,,,,,,,,,,,,,,,,,,I can rely on the aid to do its best every time I take its advice,,0.7,0,5,822.4494,0,0,0,0,1,0,,,,,
,6172c4021e98fea55a9d4a12,627c89d435e1a07e1d810e71,2022-05-12_07h21.44.759,classification_task,2021.2.3,Win32,60.60238773,627c6715c52fd12f31907bd0,,,,,,,,,,,,,,,,,,,,,,,,,,,,,,,,,,,,,,,,,,,,,,,,,,,,,,"On trials you completed with assistance from the aid, how frequently did you think the aid was correct?",,0.7,0,all the time,,0,0,0,0,1,0,,,,,
,6172c4021e98fea55a9d4a12,627c89d435e1a07e1d810e71,2022-05-12_07h21.44.759,classification_task,2021.2.3,Win32,60.60238773,627c6715c52fd12f31907bd0,,,,,,,,,,,,,,,,,,,,,,,,,,,,,,,,,,,,,,,,,,,,,,,,,,,,,,"On trials you completed without the aid, how frequently did you think you were correct?",,0.7,0,80%,,0,0,0,0,1,0,,,,,
,6172c4021e98fea55a9d4a12,627c89d435e1a07e1d810e71,2022-05-12_07h21.44.759,classification_task,2021.2.3,Win32,60.60238773,627c6715c52fd12f31907bd0,,,,,,,,,,,,,,,,,,,,,,,,,,,,,,,,,,,,,,,,,,,,,,,,,,,,,,,,,,,,0,0,0,0,1,,,,,,
,6172c4021e98fea55a9d4a12,627c89d435e1a07e1d810e71,2022-05-12_07h21.44.759,classification_task,2021.2.3,Win32,60.60238773,627c6715c52fd12f31907bd0,,,,,,,,,,,,,,,,,,,,,,,,,,,,,,,,,,,,,,,,,,,,,,,,,,,,,,,,,,,,,,,,,,space,10.2755,855.5083,,
,6172c4021e98fea55a9d4a12,627c89d435e1a07e1d810e71,2022-05-12_07h21.44.759,classification_task,2021.2.3,Win32,60.60238773,627c6715c52fd12f31907bd0,,,,,,,,,,,,,,,,,,,,,,,,,,,,,,,,,,,,,,,,,,,,,,,,,,,,,,,,,,,,,,,,,,,,,"Mozilla/5.0 (Windows NT 10.0; Win64; x64) AppleWebKit/537.36 (KHTML, like Gecko) Chrome/101.0.4951.54 Safari/537.36",
,6172c4021e98fea55a9d4a12,627c89d435e1a07e1d810e71,2022-05-12_07h21.44.759,classification_task,2021.2.3,Win32,60.60238773,627c6715c52fd12f31907bd0,,,,,,,,,,,,,,,,,,,,,,,,,,,,,,,,,,,,,,,,,,,,,,,,,,,,,,,,,,,,,,,,,,,,,,HIGHLIGHT
