usingWebGL,participant,session,date,expName,psychopyVersion,OS,frameRate,study_id,signatures_friend,signatures_foe,band_ranges_top,band_ranges_bottom,formitemText,formtype,formundefined,formitemWidth,formindex,formresponse,formrt,key_resp_2.keys,key_resp_2.rt,tute_resp.keys,tute_resp.rt,tutorial.thisRepN,tutorial.thisTrialN,tutorial.thisN,tutorial.thisIndex,tutorial.ran,key_resp_4.keys,key_resp_4.rt,key_resp.keys,key_resp.corr,lines_presented,is_signal_presented,trials.thisRepN,trials.thisTrialN,trials.thisN,trials.thisIndex,trials.ran,vessel,active_band,lines,is_signal,supported_pos,catch_trial,key_resp.rt,debrief_formindex,debrief_formitemText,debrief_formtype,debrief_formitemWidth,debrief_formresponse,debrief_formrt,phases.thisRepN,phases.thisTrialN,phases.thisN,phases.thisIndex,phases.ran,phases.order,phase,key_resp_3.keys,trustitemText,trusttype,trustitemWidth,trustindex,trustresponse,trustrt,support_status.thisRepN,support_status.thisTrialN,support_status.thisN,support_status.thisIndex,support_status.ran,support_status.order,key_resp_5.keys,key_resp_5.rt,globalClockTime,userAgent,manualCondition
TRUE,61736ce99f9d835fe9eb692a,627c6f567b3813347a8a8a11,2022-05-12_04h24.44.280,classification_task,2021.2.3,Win32,60.33910577,627c6715c52fd12f31907bd0,,,,,,,,,,,,,,,,,,,,,,,,,,,,,,,,,,,,,,,,,,,,,,,,,,,,,,,,,,,,,,,,,,,,,
,61736ce99f9d835fe9eb692a,627c6f567b3813347a8a8a11,2022-05-12_04h24.44.280,classification_task,2021.2.3,Win32,60.33910577,627c6715c52fd12f31907bd0,"[[""0.190"",""0.460"",""0.870"",""0.939""],[""0.238"",""0.352"",""0.663"",""0.975""]]","[[""0.033"",""0.290"",""0.572"",""0.836""],[""0.117"",""0.419"",""0.522"",""0.751""]]","[1,10]","[100,1000]",Video game experience,,,0.7,0,,,,,,,,,,,,,,,,,,,,,,,,,,,,,,,,,,,,,,,,,,,,,,,,,,,,,,,,,,,,
,61736ce99f9d835fe9eb692a,627c6f567b3813347a8a8a11,2022-05-12_04h24.44.280,classification_task,2021.2.3,Win32,60.33910577,627c6715c52fd12f31907bd0,,,,,Approximately how many hours did you spend playing video games in the last week?,,,0.7,0,0,,,,,,,,,,,,,,,,,,,,,,,,,,,,,,,,,,,,,,,,,,,,,,,,,,,,,,,,,,,
,61736ce99f9d835fe9eb692a,627c6f567b3813347a8a8a11,2022-05-12_04h24.44.280,classification_task,2021.2.3,Win32,60.33910577,627c6715c52fd12f31907bd0,,,,,"Which game did you play the most this year? (Enter ""None"" if you didn't play any)",,,0.7,0,none,,,,,,,,,,,,,,,,,,,,,,,,,,,,,,,,,,,,,,,,,,,,,,,,,,,,,,,,,,,
,61736ce99f9d835fe9eb692a,627c6f567b3813347a8a8a11,2022-05-12_04h24.44.280,classification_task,2021.2.3,Win32,60.33910577,627c6715c52fd12f31907bd0,,,,,Visual perception,,,0.7,0,,,,,,,,,,,,,,,,,,,,,,,,,,,,,,,,,,,,,,,,,,,,,,,,,,,,,,,,,,,,
,61736ce99f9d835fe9eb692a,627c6f567b3813347a8a8a11,2022-05-12_04h24.44.280,classification_task,2021.2.3,Win32,60.33910577,627c6715c52fd12f31907bd0,,,,,Do you have any form of color blindness?,,,0.7,0,No,35.729,,,,,,,,,,,,,,,,,,,,,,,,,,,,,,,,,,,,,,,,,,,,,,,,,,,,,,,,,,
,61736ce99f9d835fe9eb692a,627c6f567b3813347a8a8a11,2022-05-12_04h24.44.280,classification_task,2021.2.3,Win32,60.33910577,627c6715c52fd12f31907bd0,,,,,Do you use software to change the colour temperature of your screen (e.g. f.lux)?,,,0.7,0,No,40.7253,,,,,,,,,,,,,,,,,,,,,,,,,,,,,,,,,,,,,,,,,,,,,,,,,,,,,,,,,,
,61736ce99f9d835fe9eb692a,627c6f567b3813347a8a8a11,2022-05-12_04h24.44.280,classification_task,2021.2.3,Win32,60.33910577,627c6715c52fd12f31907bd0,,,,,,,,,,,,space,43.9307,space,11.3408,0,0,0,0,1,,,,,,,,,,,,,,,,,,,,,,,,,,,,,,,,,,,,,,,,,,,,,,,,,
,61736ce99f9d835fe9eb692a,627c6f567b3813347a8a8a11,2022-05-12_04h24.44.280,classification_task,2021.2.3,Win32,60.33910577,627c6715c52fd12f31907bd0,,,,,,,,,,,,,,space,15.6396,1,0,1,0,1,,,,,,,,,,,,,,,,,,,,,,,,,,,,,,,,,,,,,,,,,,,,,,,,,
,61736ce99f9d835fe9eb692a,627c6f567b3813347a8a8a11,2022-05-12_04h24.44.280,classification_task,2021.2.3,Win32,60.33910577,627c6715c52fd12f31907bd0,,,,,,,,,,,,,,space,35.887,2,0,2,0,1,,,,,,,,,,,,,,,,,,,,,,,,,,,,,,,,,,,,,,,,,,,,,,,,,
,61736ce99f9d835fe9eb692a,627c6f567b3813347a8a8a11,2022-05-12_04h24.44.280,classification_task,2021.2.3,Win32,60.33910577,627c6715c52fd12f31907bd0,,,,,,,,,,,,,,space,22.2377,3,0,3,0,1,,,,,,,,,,,,,,,,,,,,,,,,,,,,,,,,,,,,,,,,,,,,,,,,,
,61736ce99f9d835fe9eb692a,627c6f567b3813347a8a8a11,2022-05-12_04h24.44.280,classification_task,2021.2.3,Win32,60.33910577,627c6715c52fd12f31907bd0,,,,,,,,,,,,,,space,23.5436,4,0,4,0,1,,,,,,,,,,,,,,,,,,,,,,,,,,,,,,,,,,,,,,,,,,,,,,,,,
,61736ce99f9d835fe9eb692a,627c6f567b3813347a8a8a11,2022-05-12_04h24.44.280,classification_task,2021.2.3,Win32,60.33910577,627c6715c52fd12f31907bd0,,,,,,,,,,,,,,,,,,,,,space,35.9417,,0,"[""0.190"",""0.791"",""0.870"",""0.939""]","[1,0,1,1]",0,0,0,0,1,0,0,,,1,FALSE,,,,,,,,,,,,,,,,,,,,,,,,,,,,,,,,
,61736ce99f9d835fe9eb692a,627c6f567b3813347a8a8a11,2022-05-12_04h24.44.280,classification_task,2021.2.3,Win32,60.33910577,627c6715c52fd12f31907bd0,,,,,,,,,,,,,,,,,,,,,,,a,1,"[""0.068"",""0.460"",""0.870"",""0.939""]","[0,1,1,1]",0,1,1,1,1,0,0,,,1,FALSE,4.5595,,,,,,,,,,,,,,,,,,,,,,,,,,,,,,,
,61736ce99f9d835fe9eb692a,627c6f567b3813347a8a8a11,2022-05-12_04h24.44.280,classification_task,2021.2.3,Win32,60.33910577,627c6715c52fd12f31907bd0,,,,,,,,,,,,,,,,,,,,,,,l,0,"[""0.238"",""0.352"",""0.663"",""0.077""]","[1,1,1,0]",0,2,2,2,1,0,1,,,1,FALSE,5.42,,,,,,,,,,,,,,,,,,,,,,,,,,,,,,,
,61736ce99f9d835fe9eb692a,627c6f567b3813347a8a8a11,2022-05-12_04h24.44.280,classification_task,2021.2.3,Win32,60.33910577,627c6715c52fd12f31907bd0,,,,,,,,,,,,,,,,,,,,,,,a,1,"[""0.190"",""0.460"",""0.791"",""0.939""]","[1,1,0,1]",0,3,3,3,1,0,0,,,1,FALSE,7.3916,,,,,,,,,,,,,,,,,,,,,,,,,,,,,,,
,61736ce99f9d835fe9eb692a,627c6f567b3813347a8a8a11,2022-05-12_04h24.44.280,classification_task,2021.2.3,Win32,60.33910577,627c6715c52fd12f31907bd0,,,,,,,,,,,,,,,,,,,,,,,l,1,"[""0.795"",""0.290"",""0.572"",""0.836""]","[0,1,1,1]",0,4,4,4,1,1,0,,,1,FALSE,4.872,,,,,,,,,,,,,,,,,,,,,,,,,,,,,,,
,61736ce99f9d835fe9eb692a,627c6f567b3813347a8a8a11,2022-05-12_04h24.44.280,classification_task,2021.2.3,Win32,60.33910577,627c6715c52fd12f31907bd0,,,,,,,,,,,,,,,,,,,,,,,a,1,"[""0.238"",""0.352"",""0.628"",""0.975""]","[1,1,0,1]",0,5,5,5,1,0,1,,,1,FALSE,4.4489,,,,,,,,,,,,,,,,,,,,,,,,,,,,,,,
,61736ce99f9d835fe9eb692a,627c6f567b3813347a8a8a11,2022-05-12_04h24.44.280,classification_task,2021.2.3,Win32,60.33910577,627c6715c52fd12f31907bd0,,,,,,,,,,,,,,,,,,,,,,,a,1,"[""0.190"",""0.460"",""0.870"",""0.791""]","[1,1,1,0]",0,6,6,6,1,0,0,,,1,FALSE,5.5591,,,,,,,,,,,,,,,,,,,,,,,,,,,,,,,
,61736ce99f9d835fe9eb692a,627c6f567b3813347a8a8a11,2022-05-12_04h24.44.280,classification_task,2021.2.3,Win32,60.33910577,627c6715c52fd12f31907bd0,,,,,,,,,,,,,,,,,,,,,,,a,1,"[""0.073"",""0.352"",""0.663"",""0.975""]","[0,1,1,1]",0,7,7,7,1,0,1,,,1,FALSE,7.381,,,,,,,,,,,,,,,,,,,,,,,,,,,,,,,
,61736ce99f9d835fe9eb692a,627c6f567b3813347a8a8a11,2022-05-12_04h24.44.280,classification_task,2021.2.3,Win32,60.33910577,627c6715c52fd12f31907bd0,,,,,,,,,,,,,,,,,,,,,,,l,1,"[""0.033"",""0.290"",""0.572"",""0.791""]","[1,1,1,0]",0,8,8,8,1,1,0,,,1,FALSE,5.5072,,,,,,,,,,,,,,,,,,,,,,,,,,,,,,,
,61736ce99f9d835fe9eb692a,627c6f567b3813347a8a8a11,2022-05-12_04h24.44.280,classification_task,2021.2.3,Win32,60.33910577,627c6715c52fd12f31907bd0,,,,,,,,,,,,,,,,,,,,,,,l,1,"[""0.117"",""0.627"",""0.522"",""0.751""]","[1,0,1,1]",0,9,9,9,1,1,1,,,1,FALSE,2.6074,,,,,,,,,,,,,,,,,,,,,,,,,,,,,,,
,61736ce99f9d835fe9eb692a,627c6f567b3813347a8a8a11,2022-05-12_04h24.44.280,classification_task,2021.2.3,Win32,60.33910577,627c6715c52fd12f31907bd0,,,,,,,,,,,,,,,,,,,,,,,a,0,"[""0.033"",""0.627"",""0.572"",""0.836""]","[1,0,1,1]",0,10,10,10,1,1,0,,,1,FALSE,5.5021,,,,,,,,,,,,,,,,,,,,,,,,,,,,,,,
,61736ce99f9d835fe9eb692a,627c6f567b3813347a8a8a11,2022-05-12_04h24.44.280,classification_task,2021.2.3,Win32,60.33910577,627c6715c52fd12f31907bd0,,,,,,,,,,,,,,,,,,,,,,,l,1,"[""0.117"",""0.419"",""0.792"",""0.751""]","[1,1,0,1]",0,11,11,11,1,1,1,,,1,FALSE,2.0783,,,,,,,,,,,,,,,,,,,,,,,,,,,,,,,
,61736ce99f9d835fe9eb692a,627c6f567b3813347a8a8a11,2022-05-12_04h24.44.280,classification_task,2021.2.3,Win32,60.33910577,627c6715c52fd12f31907bd0,,,,,,,,,,,,,,,,,,,,,,,l,1,"[""0.068"",""0.419"",""0.522"",""0.751""]","[0,1,1,1]",0,12,12,12,1,1,1,,,1,FALSE,3.2972,,,,,,,,,,,,,,,,,,,,,,,,,,,,,,,
,61736ce99f9d835fe9eb692a,627c6f567b3813347a8a8a11,2022-05-12_04h24.44.280,classification_task,2021.2.3,Win32,60.33910577,627c6715c52fd12f31907bd0,,,,,,,,,,,,,,,,,,,,,,,l,1,"[""0.033"",""0.290"",""0.628"",""0.836""]","[1,1,0,1]",0,13,13,13,1,1,0,,,1,FALSE,3.9141,,,,,,,,,,,,,,,,,,,,,,,,,,,,,,,
,61736ce99f9d835fe9eb692a,627c6f567b3813347a8a8a11,2022-05-12_04h24.44.280,classification_task,2021.2.3,Win32,60.33910577,627c6715c52fd12f31907bd0,,,,,,,,,,,,,,,,,,,,,,,a,1,"[""0.238"",""0.792"",""0.663"",""0.975""]","[1,0,1,1]",0,14,14,14,1,0,1,,,1,FALSE,2.7223,,,,,,,,,,,,,,,,,,,,,,,,,,,,,,,
,61736ce99f9d835fe9eb692a,627c6f567b3813347a8a8a11,2022-05-12_04h24.44.280,classification_task,2021.2.3,Win32,60.33910577,627c6715c52fd12f31907bd0,,,,,,,,,,,,,,,,,,,,,,,l,1,"[""0.117"",""0.419"",""0.522"",""0.792""]","[1,1,1,0]",0,15,15,15,1,1,1,,,1,FALSE,2.3822,,,,,,,,,,,,,,,,,,,,,,,,,,,,,,,
,61736ce99f9d835fe9eb692a,627c6f567b3813347a8a8a11,2022-05-12_04h24.44.280,classification_task,2021.2.3,Win32,60.33910577,627c6715c52fd12f31907bd0,,,,,,,,,,,,,,,,,,,,,,,a,1,"[""0.238"",""0.617"",""0.663"",""0.975""]","[1,0,1,1]",0,16,16,16,1,0,1,,,1,FALSE,2.5549,,,,,,,,,,,,,,,,,,,,,,,,,,,,,,,
,61736ce99f9d835fe9eb692a,627c6f567b3813347a8a8a11,2022-05-12_04h24.44.280,classification_task,2021.2.3,Win32,60.33910577,627c6715c52fd12f31907bd0,,,,,,,,,,,,,,,,,,,,,,,l,1,"[""0.077"",""0.290"",""0.572"",""0.836""]","[0,1,1,1]",0,17,17,17,1,1,0,,,1,FALSE,4.1702,,,,,,,,,,,,,,,,,,,,,,,,,,,,,,,
,61736ce99f9d835fe9eb692a,627c6f567b3813347a8a8a11,2022-05-12_04h24.44.280,classification_task,2021.2.3,Win32,60.33910577,627c6715c52fd12f31907bd0,,,,,,,,,,,,,,,,,,,,,,,l,1,"[""0.073"",""0.419"",""0.522"",""0.751""]","[0,1,1,1]",0,18,18,18,1,1,1,,,1,FALSE,2.2003,,,,,,,,,,,,,,,,,,,,,,,,,,,,,,,
,61736ce99f9d835fe9eb692a,627c6f567b3813347a8a8a11,2022-05-12_04h24.44.280,classification_task,2021.2.3,Win32,60.33910577,627c6715c52fd12f31907bd0,,,,,,,,,,,,,,,,,,,,,,,a,1,"[""0.190"",""0.460"",""0.870"",""0.795""]","[1,1,1,0]",0,19,19,19,1,0,0,,,1,FALSE,3.661,,,,,,,,,,,,,,,,,,,,,,,,,,,,,,,
,61736ce99f9d835fe9eb692a,627c6f567b3813347a8a8a11,2022-05-12_04h24.44.280,classification_task,2021.2.3,Win32,60.33910577,627c6715c52fd12f31907bd0,,,,,,,,,,,,,,,,,,,,,,,l,0,"[""0.238"",""0.352"",""0.663"",""0.073""]","[1,1,1,0]",0,20,20,20,1,0,1,,,1,FALSE,4.9432,,,,,,,,,,,,,,,,,,,,,,,,,,,,,,,
,61736ce99f9d835fe9eb692a,627c6f567b3813347a8a8a11,2022-05-12_04h24.44.280,classification_task,2021.2.3,Win32,60.33910577,627c6715c52fd12f31907bd0,,,,,,,,,,,,,,,,,,,,,,,a,0,"[""0.033"",""0.791"",""0.572"",""0.836""]","[1,0,1,1]",0,21,21,21,1,1,0,,,1,FALSE,1.7128,,,,,,,,,,,,,,,,,,,,,,,,,,,,,,,
,61736ce99f9d835fe9eb692a,627c6f567b3813347a8a8a11,2022-05-12_04h24.44.280,classification_task,2021.2.3,Win32,60.33910577,627c6715c52fd12f31907bd0,,,,,,,,,,,,,,,,,,,,,,,l,0,"[""0.617"",""0.460"",""0.870"",""0.939""]","[0,1,1,1]",0,22,22,22,1,0,0,,,1,FALSE,6.6466,,,,,,,,,,,,,,,,,,,,,,,,,,,,,,,
,61736ce99f9d835fe9eb692a,627c6f567b3813347a8a8a11,2022-05-12_04h24.44.280,classification_task,2021.2.3,Win32,60.33910577,627c6715c52fd12f31907bd0,,,,,,,,,,,,,,,,,,,,,,,a,0,"[""0.033"",""0.290"",""0.572"",""0.696""]","[1,1,1,0]",0,23,23,23,1,1,0,,,1,FALSE,2.7542,,,,,,,,,,,,,,,,,,,,,,,,,,,,,,,
,61736ce99f9d835fe9eb692a,627c6f567b3813347a8a8a11,2022-05-12_04h24.44.280,classification_task,2021.2.3,Win32,60.33910577,627c6715c52fd12f31907bd0,,,,,,,,,,,,,,,,,,,,,,,a,1,"[""0.190"",""0.080"",""0.870"",""0.939""]","[1,0,1,1]",0,24,24,24,1,0,0,,,1,FALSE,6.5711,,,,,,,,,,,,,,,,,,,,,,,,,,,,,,,
,61736ce99f9d835fe9eb692a,627c6f567b3813347a8a8a11,2022-05-12_04h24.44.280,classification_task,2021.2.3,Win32,60.33910577,627c6715c52fd12f31907bd0,,,,,,,,,,,,,,,,,,,,,,,a,1,"[""0.238"",""0.352"",""0.696"",""0.975""]","[1,1,0,1]",0,25,25,25,1,0,1,,,1,FALSE,2.9304,,,,,,,,,,,,,,,,,,,,,,,,,,,,,,,
,61736ce99f9d835fe9eb692a,627c6f567b3813347a8a8a11,2022-05-12_04h24.44.280,classification_task,2021.2.3,Win32,60.33910577,627c6715c52fd12f31907bd0,,,,,,,,,,,,,,,,,,,,,,,l,1,"[""0.117"",""0.419"",""0.077"",""0.751""]","[1,1,0,1]",0,26,26,26,1,1,1,,,1,FALSE,6.9014,,,,,,,,,,,,,,,,,,,,,,,,,,,,,,,
,61736ce99f9d835fe9eb692a,627c6f567b3813347a8a8a11,2022-05-12_04h24.44.280,classification_task,2021.2.3,Win32,60.33910577,627c6715c52fd12f31907bd0,,,,,,,,,,,,,,,,,,,,,,,a,1,"[""0.190"",""0.460"",""0.068"",""0.939""]","[1,1,0,1]",0,27,27,27,1,0,0,,,1,FALSE,4.7967,,,,,,,,,,,,,,,,,,,,,,,,,,,,,,,
,61736ce99f9d835fe9eb692a,627c6f567b3813347a8a8a11,2022-05-12_04h24.44.280,classification_task,2021.2.3,Win32,60.33910577,627c6715c52fd12f31907bd0,,,,,,,,,,,,,,,,,,,,,,,l,1,"[""0.117"",""0.419"",""0.522"",""0.713""]","[1,1,1,0]",0,28,28,28,1,1,1,,,1,FALSE,2.6407,,,,,,,,,,,,,,,,,,,,,,,,,,,,,,,
,61736ce99f9d835fe9eb692a,627c6f567b3813347a8a8a11,2022-05-12_04h24.44.280,classification_task,2021.2.3,Win32,60.33910577,627c6715c52fd12f31907bd0,,,,,,,,,,,,,,,,,,,,,,,l,1,"[""0.117"",""0.708"",""0.522"",""0.751""]","[1,0,1,1]",0,29,29,29,1,1,1,,,1,FALSE,4.9405,,,,,,,,,,,,,,,,,,,,,,,,,,,,,,,
,61736ce99f9d835fe9eb692a,627c6f567b3813347a8a8a11,2022-05-12_04h24.44.280,classification_task,2021.2.3,Win32,60.33910577,627c6715c52fd12f31907bd0,,,,,,,,,,,,,,,,,,,,,,,a,1,"[""0.708"",""0.352"",""0.663"",""0.975""]","[0,1,1,1]",0,30,30,30,1,0,1,,,1,FALSE,2.2723,,,,,,,,,,,,,,,,,,,,,,,,,,,,,,,
,61736ce99f9d835fe9eb692a,627c6f567b3813347a8a8a11,2022-05-12_04h24.44.280,classification_task,2021.2.3,Win32,60.33910577,627c6715c52fd12f31907bd0,,,,,,,,,,,,,,,,,,,,,,,a,0,"[""0.033"",""0.290"",""0.068"",""0.836""]","[1,1,0,1]",0,31,31,31,1,1,0,,,1,FALSE,2.6286,,,,,,,,,,,,,,,,,,,,,,,,,,,,,,,
,61736ce99f9d835fe9eb692a,627c6f567b3813347a8a8a11,2022-05-12_04h24.44.280,classification_task,2021.2.3,Win32,60.33910577,627c6715c52fd12f31907bd0,,,,,,,,,,,,,,,,,,,,,,,l,1,"[""0.117"",""0.419"",""0.522"",""0.628""]","[1,1,1,0]",0,32,32,32,1,1,1,,,1,FALSE,9.8871,,,,,,,,,,,,,,,,,,,,,,,,,,,,,,,
,61736ce99f9d835fe9eb692a,627c6f567b3813347a8a8a11,2022-05-12_04h24.44.280,classification_task,2021.2.3,Win32,60.33910577,627c6715c52fd12f31907bd0,,,,,,,,,,,,,,,,,,,,,,,a,0,"[""0.033"",""0.290"",""0.080"",""0.836""]","[1,1,0,1]",0,33,33,33,1,1,0,,,1,FALSE,3.8496,,,,,,,,,,,,,,,,,,,,,,,,,,,,,,,
,61736ce99f9d835fe9eb692a,627c6f567b3813347a8a8a11,2022-05-12_04h24.44.280,classification_task,2021.2.3,Win32,60.33910577,627c6715c52fd12f31907bd0,,,,,,,,,,,,,,,,,,,,,,,l,0,"[""0.238"",""0.352"",""0.080"",""0.975""]","[1,1,0,1]",0,34,34,34,1,0,1,,,1,FALSE,2.5332,,,,,,,,,,,,,,,,,,,,,,,,,,,,,,,
,61736ce99f9d835fe9eb692a,627c6f567b3813347a8a8a11,2022-05-12_04h24.44.280,classification_task,2021.2.3,Win32,60.33910577,627c6715c52fd12f31907bd0,,,,,,,,,,,,,,,,,,,,,,,l,0,"[""0.083"",""0.352"",""0.663"",""0.975""]","[0,1,1,1]",0,35,35,35,1,0,1,,,1,FALSE,1.4072,,,,,,,,,,,,,,,,,,,,,,,,,,,,,,,
,61736ce99f9d835fe9eb692a,627c6f567b3813347a8a8a11,2022-05-12_04h24.44.280,classification_task,2021.2.3,Win32,60.33910577,627c6715c52fd12f31907bd0,,,,,,,,,,,,,,,,,,,,,,,l,0,"[""0.083"",""0.460"",""0.870"",""0.939""]","[0,1,1,1]",0,36,36,36,1,0,0,,,1,FALSE,1.2791,,,,,,,,,,,,,,,,,,,,,,,,,,,,,,,
,61736ce99f9d835fe9eb692a,627c6f567b3813347a8a8a11,2022-05-12_04h24.44.280,classification_task,2021.2.3,Win32,60.33910577,627c6715c52fd12f31907bd0,,,,,,,,,,,,,,,,,,,,,,,l,1,"[""0.033"",""0.290"",""0.572"",""0.077""]","[1,1,1,0]",0,37,37,37,1,1,0,,,1,FALSE,1.1289,,,,,,,,,,,,,,,,,,,,,,,,,,,,,,,
,61736ce99f9d835fe9eb692a,627c6f567b3813347a8a8a11,2022-05-12_04h24.44.280,classification_task,2021.2.3,Win32,60.33910577,627c6715c52fd12f31907bd0,,,,,,,,,,,,,,,,,,,,,,,a,1,"[""0.190"",""0.460"",""0.870"",""0.696""]","[1,1,1,0]",0,38,38,38,1,0,0,,,1,FALSE,1.6133,,,,,,,,,,,,,,,,,,,,,,,,,,,,,,,
,61736ce99f9d835fe9eb692a,627c6f567b3813347a8a8a11,2022-05-12_04h24.44.280,classification_task,2021.2.3,Win32,60.33910577,627c6715c52fd12f31907bd0,,,,,,,,,,,,,,,,,,,,,,,l,1,"[""0.117"",""0.419"",""0.068"",""0.751""]","[1,1,0,1]",0,39,39,39,1,1,1,,,1,FALSE,1.8787,,,,,,,,,,,,,,,,,,,,,,,,,,,,,,,
,61736ce99f9d835fe9eb692a,627c6f567b3813347a8a8a11,2022-05-12_04h24.44.280,classification_task,2021.2.3,Win32,60.33910577,627c6715c52fd12f31907bd0,,,,,,,,,,,,,,,,,,,,,,,l,1,"[""0.033"",""0.077"",""0.572"",""0.836""]","[1,0,1,1]",0,40,40,40,1,1,0,,,1,FALSE,1.15,,,,,,,,,,,,,,,,,,,,,,,,,,,,,,,
,61736ce99f9d835fe9eb692a,627c6f567b3813347a8a8a11,2022-05-12_04h24.44.280,classification_task,2021.2.3,Win32,60.33910577,627c6715c52fd12f31907bd0,,,,,,,,,,,,,,,,,,,,,,,a,1,"[""0.190"",""0.460"",""0.708"",""0.939""]","[1,1,0,1]",0,41,41,41,1,0,0,,,1,FALSE,1.8472,,,,,,,,,,,,,,,,,,,,,,,,,,,,,,,
,61736ce99f9d835fe9eb692a,627c6f567b3813347a8a8a11,2022-05-12_04h24.44.280,classification_task,2021.2.3,Win32,60.33910577,627c6715c52fd12f31907bd0,,,,,,,,,,,,,,,,,,,,,,,l,0,"[""0.190"",""0.077"",""0.870"",""0.939""]","[1,0,1,1]",0,42,42,42,1,0,0,,,1,FALSE,1.3123,,,,,,,,,,,,,,,,,,,,,,,,,,,,,,,
,61736ce99f9d835fe9eb692a,627c6f567b3813347a8a8a11,2022-05-12_04h24.44.280,classification_task,2021.2.3,Win32,60.33910577,627c6715c52fd12f31907bd0,,,,,,,,,,,,,,,,,,,,,,,l,1,"[""0.117"",""0.705"",""0.522"",""0.751""]","[1,0,1,1]",0,43,43,43,1,1,1,,,1,FALSE,1.6724,,,,,,,,,,,,,,,,,,,,,,,,,,,,,,,
,61736ce99f9d835fe9eb692a,627c6f567b3813347a8a8a11,2022-05-12_04h24.44.280,classification_task,2021.2.3,Win32,60.33910577,627c6715c52fd12f31907bd0,,,,,,,,,,,,,,,,,,,,,,,l,1,"[""0.073"",""0.290"",""0.572"",""0.836""]","[0,1,1,1]",0,44,44,44,1,1,0,,,1,FALSE,1.1088,,,,,,,,,,,,,,,,,,,,,,,,,,,,,,,
,61736ce99f9d835fe9eb692a,627c6f567b3813347a8a8a11,2022-05-12_04h24.44.280,classification_task,2021.2.3,Win32,60.33910577,627c6715c52fd12f31907bd0,,,,,,,,,,,,,,,,,,,,,,,l,0,"[""0.238"",""0.068"",""0.663"",""0.975""]","[1,0,1,1]",0,45,45,45,1,0,1,,,1,FALSE,1.1162,,,,,,,,,,,,,,,,,,,,,,,,,,,,,,,
,61736ce99f9d835fe9eb692a,627c6f567b3813347a8a8a11,2022-05-12_04h24.44.280,classification_task,2021.2.3,Win32,60.33910577,627c6715c52fd12f31907bd0,,,,,,,,,,,,,,,,,,,,,,,l,0,"[""0.238"",""0.352"",""0.663"",""0.083""]","[1,1,1,0]",0,46,46,46,1,0,1,,,1,FALSE,1.8189,,,,,,,,,,,,,,,,,,,,,,,,,,,,,,,
,61736ce99f9d835fe9eb692a,627c6f567b3813347a8a8a11,2022-05-12_04h24.44.280,classification_task,2021.2.3,Win32,60.33910577,627c6715c52fd12f31907bd0,,,,,,,,,,,,,,,,,,,,,,,l,1,"[""0.791"",""0.419"",""0.522"",""0.751""]","[0,1,1,1]",0,47,47,47,1,1,1,,,1,FALSE,1.0797,,,,,,,,,,,,,,,,,,,,,,,,,,,,,,,
,61736ce99f9d835fe9eb692a,627c6f567b3813347a8a8a11,2022-05-12_04h24.44.280,classification_task,2021.2.3,Win32,60.33910577,627c6715c52fd12f31907bd0,,,,,,,,,,,,,,,,,,,,,,,a,1,"[""0.190"",""0.460"",""0.705"",""0.939""]","[1,1,0,1]",0,48,48,48,1,0,0,,,1,FALSE,2.6308,,,,,,,,,,,,,,,,,,,,,,,,,,,,,,,
,61736ce99f9d835fe9eb692a,627c6f567b3813347a8a8a11,2022-05-12_04h24.44.280,classification_task,2021.2.3,Win32,60.33910577,627c6715c52fd12f31907bd0,,,,,,,,,,,,,,,,,,,,,,,l,1,"[""0.033"",""0.290"",""0.617"",""0.836""]","[1,1,0,1]",0,49,49,49,1,1,0,,,1,FALSE,1.2395,,,,,,,,,,,,,,,,,,,,,,,,,,,,,,,
,61736ce99f9d835fe9eb692a,627c6f567b3813347a8a8a11,2022-05-12_04h24.44.280,classification_task,2021.2.3,Win32,60.33910577,627c6715c52fd12f31907bd0,,,,,,,,,,,,,,,,,,,,,,,l,1,"[""0.033"",""0.290"",""0.572"",""0.713""]","[1,1,1,0]",0,50,50,50,1,1,0,,,1,FALSE,1.5465,,,,,,,,,,,,,,,,,,,,,,,,,,,,,,,
,61736ce99f9d835fe9eb692a,627c6f567b3813347a8a8a11,2022-05-12_04h24.44.280,classification_task,2021.2.3,Win32,60.33910577,627c6715c52fd12f31907bd0,,,,,,,,,,,,,,,,,,,,,,,a,1,"[""0.628"",""0.460"",""0.870"",""0.939""]","[0,1,1,1]",0,51,51,51,1,0,0,,,1,FALSE,1.2415,,,,,,,,,,,,,,,,,,,,,,,,,,,,,,,
,61736ce99f9d835fe9eb692a,627c6f567b3813347a8a8a11,2022-05-12_04h24.44.280,classification_task,2021.2.3,Win32,60.33910577,627c6715c52fd12f31907bd0,,,,,,,,,,,,,,,,,,,,,,,a,1,"[""0.696"",""0.352"",""0.663"",""0.975""]","[0,1,1,1]",0,52,52,52,1,0,1,,,1,FALSE,1.7777,,,,,,,,,,,,,,,,,,,,,,,,,,,,,,,
,61736ce99f9d835fe9eb692a,627c6f567b3813347a8a8a11,2022-05-12_04h24.44.280,classification_task,2021.2.3,Win32,60.33910577,627c6715c52fd12f31907bd0,,,,,,,,,,,,,,,,,,,,,,,l,1,"[""0.068"",""0.290"",""0.572"",""0.836""]","[0,1,1,1]",0,53,53,53,1,1,0,,,1,FALSE,1.5813,,,,,,,,,,,,,,,,,,,,,,,,,,,,,,,
,61736ce99f9d835fe9eb692a,627c6f567b3813347a8a8a11,2022-05-12_04h24.44.280,classification_task,2021.2.3,Win32,60.33910577,627c6715c52fd12f31907bd0,,,,,,,,,,,,,,,,,,,,,,,a,1,"[""0.190"",""0.705"",""0.870"",""0.939""]","[1,0,1,1]",0,54,54,54,1,0,0,,,1,FALSE,1.5233,,,,,,,,,,,,,,,,,,,,,,,,,,,,,,,
,61736ce99f9d835fe9eb692a,627c6f567b3813347a8a8a11,2022-05-12_04h24.44.280,classification_task,2021.2.3,Win32,60.33910577,627c6715c52fd12f31907bd0,,,,,,,,,,,,,,,,,,,,,,,l,1,"[""0.117"",""0.419"",""0.627"",""0.751""]","[1,1,0,1]",0,55,55,55,1,1,1,,,1,FALSE,1.5886,,,,,,,,,,,,,,,,,,,,,,,,,,,,,,,
,61736ce99f9d835fe9eb692a,627c6f567b3813347a8a8a11,2022-05-12_04h24.44.280,classification_task,2021.2.3,Win32,60.33910577,627c6715c52fd12f31907bd0,,,,,,,,,,,,,,,,,,,,,,,l,1,"[""0.033"",""0.617"",""0.572"",""0.836""]","[1,0,1,1]",0,56,56,56,1,1,0,,,1,FALSE,3.1613,,,,,,,,,,,,,,,,,,,,,,,,,,,,,,,
,61736ce99f9d835fe9eb692a,627c6f567b3813347a8a8a11,2022-05-12_04h24.44.280,classification_task,2021.2.3,Win32,60.33910577,627c6715c52fd12f31907bd0,,,,,,,,,,,,,,,,,,,,,,,l,0,"[""0.238"",""0.352"",""0.663"",""0.083""]","[1,1,1,0]",0,57,57,57,1,0,1,,,1,FALSE,3.6041,,,,,,,,,,,,,,,,,,,,,,,,,,,,,,,
,61736ce99f9d835fe9eb692a,627c6f567b3813347a8a8a11,2022-05-12_04h24.44.280,classification_task,2021.2.3,Win32,60.33910577,627c6715c52fd12f31907bd0,,,,,,,,,,,,,,,,,,,,,,,l,0,"[""0.238"",""0.791"",""0.663"",""0.975""]","[1,0,1,1]",0,58,58,58,1,0,1,,,1,FALSE,0.9956,,,,,,,,,,,,,,,,,,,,,,,,,,,,,,,
,61736ce99f9d835fe9eb692a,627c6f567b3813347a8a8a11,2022-05-12_04h24.44.280,classification_task,2021.2.3,Win32,60.33910577,627c6715c52fd12f31907bd0,,,,,,,,,,,,,,,,,,,,,,,l,1,"[""0.117"",""0.795"",""0.522"",""0.751""]","[1,0,1,1]",0,59,59,59,1,1,1,,,1,FALSE,1.3428,,,,,,,,,,,,,,,,,,,,,,,,,,,,,,,
,61736ce99f9d835fe9eb692a,627c6f567b3813347a8a8a11,2022-05-12_04h24.44.280,classification_task,2021.2.3,Win32,60.33910577,627c6715c52fd12f31907bd0,,,,,,,,,,,,,,,,,,,,,,,a,0,"[""0.627"",""0.419"",""0.522"",""0.751""]","[0,1,1,1]",0,60,60,60,1,1,1,,,1,FALSE,1.1458,,,,,,,,,,,,,,,,,,,,,,,,,,,,,,,
,61736ce99f9d835fe9eb692a,627c6f567b3813347a8a8a11,2022-05-12_04h24.44.280,classification_task,2021.2.3,Win32,60.33910577,627c6715c52fd12f31907bd0,,,,,,,,,,,,,,,,,,,,,,,a,1,"[""0.190"",""0.460"",""0.870"",""0.705""]","[1,1,1,0]",0,61,61,61,1,0,0,,,1,FALSE,2.0518,,,,,,,,,,,,,,,,,,,,,,,,,,,,,,,
,61736ce99f9d835fe9eb692a,627c6f567b3813347a8a8a11,2022-05-12_04h24.44.280,classification_task,2021.2.3,Win32,60.33910577,627c6715c52fd12f31907bd0,,,,,,,,,,,,,,,,,,,,,,,l,1,"[""0.117"",""0.419"",""0.522"",""0.791""]","[1,1,1,0]",0,62,62,62,1,1,1,,,1,FALSE,1.3118,,,,,,,,,,,,,,,,,,,,,,,,,,,,,,,
,61736ce99f9d835fe9eb692a,627c6f567b3813347a8a8a11,2022-05-12_04h24.44.280,classification_task,2021.2.3,Win32,60.33910577,627c6715c52fd12f31907bd0,,,,,,,,,,,,,,,,,,,,,,,a,1,"[""0.238"",""0.352"",""0.791"",""0.975""]","[1,1,0,1]",0,63,63,63,1,0,1,,,1,FALSE,1.3413,,,,,,,,,,,,,,,,,,,,,,,,,,,,,,,
,61736ce99f9d835fe9eb692a,627c6f567b3813347a8a8a11,2022-05-12_04h24.44.280,classification_task,2021.2.3,Win32,60.33910577,627c6715c52fd12f31907bd0,,,,,,,,,,,,,,,,,,,,,,,,,,,,,,,,,,,,,,,0, ,,0,7.547522561,526.8156,0,0,0,0,1,2,1,,,,,,,,,,,,,,,,,,
,61736ce99f9d835fe9eb692a,627c6f567b3813347a8a8a11,2022-05-12_04h24.44.280,classification_task,2021.2.3,Win32,60.33910577,627c6715c52fd12f31907bd0,,,,,,,,,,,,,,,,,,,,,,,,,,,,,,,,,,,,,,,1,  ,,0,7.082109311,541.1505,0,0,0,0,1,2,1,,,,,,,,,,,,,,,,,,
,61736ce99f9d835fe9eb692a,627c6f567b3813347a8a8a11,2022-05-12_04h24.44.280,classification_task,2021.2.3,Win32,60.33910577,627c6715c52fd12f31907bd0,,,,,,,,,,,,,,,,,,,,,,,,,,,,,,,,,,,,,,,2,  ,,0,6.567706019,548.1573,0,0,0,0,1,2,1,,,,,,,,,,,,,,,,,,
,61736ce99f9d835fe9eb692a,627c6f567b3813347a8a8a11,2022-05-12_04h24.44.280,classification_task,2021.2.3,Win32,60.33910577,627c6715c52fd12f31907bd0,,,,,,,,,,,,,,,,,,,,,,,,,,,,,,,,,,,,,,,,,,,,,0,0,0,0,1,,1,,,,,,,,,,,,,,,,,,
,61736ce99f9d835fe9eb692a,627c6f567b3813347a8a8a11,2022-05-12_04h24.44.280,classification_task,2021.2.3,Win32,60.33910577,627c6715c52fd12f31907bd0,,,,,,,,,,,,,,,,,,,,,space,13.1649,,0,"[""0.117"",""0.419"",""0.705"",""0.751""]","[1,1,0,1]",0,0,0,0,1,1,1,,,1,FALSE,,,,,,,,,,,,,,,,,,,,,,,,,,,,,,,,
,61736ce99f9d835fe9eb692a,627c6f567b3813347a8a8a11,2022-05-12_04h24.44.280,classification_task,2021.2.3,Win32,60.33910577,627c6715c52fd12f31907bd0,,,,,,,,,,,,,,,,,,,,,,,a,1,"[""0.238"",""0.080"",""0.663"",""0.975""]","[1,0,1,1]",0,1,1,1,1,0,1,,,1,FALSE,5.8818,,,,,,,,,,,,,,,,,,,,,,,,,,,,,,,
,61736ce99f9d835fe9eb692a,627c6f567b3813347a8a8a11,2022-05-12_04h24.44.280,classification_task,2021.2.3,Win32,60.33910577,627c6715c52fd12f31907bd0,,,,,,,,,,,,,,,,,,,,,,,a,1,"[""0.708"",""0.460"",""0.870"",""0.939""]","[0,1,1,1]",0,2,2,2,1,0,0,,,1,FALSE,5.1965,,,,,,,,,,,,,,,,,,,,,,,,,,,,,,,
,61736ce99f9d835fe9eb692a,627c6f567b3813347a8a8a11,2022-05-12_04h24.44.280,classification_task,2021.2.3,Win32,60.33910577,627c6715c52fd12f31907bd0,,,,,,,,,,,,,,,,,,,,,,,l,1,"[""0.068"",""0.419"",""0.522"",""0.751""]","[0,1,1,1]",0,3,3,3,1,1,1,,,1,FALSE,0.8986,,,,,,,,,,,,,,,,,,,,,,,,,,,,,,,
,61736ce99f9d835fe9eb692a,627c6f567b3813347a8a8a11,2022-05-12_04h24.44.280,classification_task,2021.2.3,Win32,60.33910577,627c6715c52fd12f31907bd0,,,,,,,,,,,,,,,,,,,,,,,a,1,"[""0.190"",""0.460"",""0.083"",""0.939""]","[1,1,0,1]",0,4,4,4,1,0,0,,,1,FALSE,2.4105,,,,,,,,,,,,,,,,,,,,,,,,,,,,,,,
,61736ce99f9d835fe9eb692a,627c6f567b3813347a8a8a11,2022-05-12_04h24.44.280,classification_task,2021.2.3,Win32,60.33910577,627c6715c52fd12f31907bd0,,,,,,,,,,,,,,,,,,,,,,,a,1,"[""0.190"",""0.460"",""0.870"",""0.696""]","[1,1,1,0]",0,5,5,5,1,0,0,,,1,FALSE,1.4377,,,,,,,,,,,,,,,,,,,,,,,,,,,,,,,
,61736ce99f9d835fe9eb692a,627c6f567b3813347a8a8a11,2022-05-12_04h24.44.280,classification_task,2021.2.3,Win32,60.33910577,627c6715c52fd12f31907bd0,,,,,,,,,,,,,,,,,,,,,,,a,1,"[""0.238"",""0.352"",""0.663"",""0.696""]","[1,1,1,0]",0,6,6,6,1,0,1,,,1,FALSE,2.8448,,,,,,,,,,,,,,,,,,,,,,,,,,,,,,,
,61736ce99f9d835fe9eb692a,627c6f567b3813347a8a8a11,2022-05-12_04h24.44.280,classification_task,2021.2.3,Win32,60.33910577,627c6715c52fd12f31907bd0,,,,,,,,,,,,,,,,,,,,,,,l,1,"[""0.033"",""0.290"",""0.572"",""0.077""]","[1,1,1,0]",0,7,7,7,1,1,0,,,1,FALSE,5.1634,,,,,,,,,,,,,,,,,,,,,,,,,,,,,,,
,61736ce99f9d835fe9eb692a,627c6f567b3813347a8a8a11,2022-05-12_04h24.44.280,classification_task,2021.2.3,Win32,60.33910577,627c6715c52fd12f31907bd0,,,,,,,,,,,,,,,,,,,,,,,l,0,"[""0.238"",""0.352"",""0.792"",""0.975""]","[1,1,0,1]",0,8,8,8,1,0,1,,,1,FALSE,1.2307,,,,,,,,,,,,,,,,,,,,,,,,,,,,,,,
,61736ce99f9d835fe9eb692a,627c6f567b3813347a8a8a11,2022-05-12_04h24.44.280,classification_task,2021.2.3,Win32,60.33910577,627c6715c52fd12f31907bd0,,,,,,,,,,,,,,,,,,,,,,,l,1,"[""0.117"",""0.696"",""0.522"",""0.751""]","[1,0,1,1]",0,9,9,9,1,1,1,,,1,FALSE,1.4807,,,,,,,,,,,,,,,,,,,,,,,,,,,,,,,
,61736ce99f9d835fe9eb692a,627c6f567b3813347a8a8a11,2022-05-12_04h24.44.280,classification_task,2021.2.3,Win32,60.33910577,627c6715c52fd12f31907bd0,,,,,,,,,,,,,,,,,,,,,,,a,0,"[""0.708"",""0.290"",""0.572"",""0.836""]","[0,1,1,1]",0,10,10,10,1,1,0,,,1,FALSE,2.3793,,,,,,,,,,,,,,,,,,,,,,,,,,,,,,,
,61736ce99f9d835fe9eb692a,627c6f567b3813347a8a8a11,2022-05-12_04h24.44.280,classification_task,2021.2.3,Win32,60.33910577,627c6715c52fd12f31907bd0,,,,,,,,,,,,,,,,,,,,,,,l,1,"[""0.117"",""0.419"",""0.522"",""0.627""]","[1,1,1,0]",0,11,11,11,1,1,1,,,1,FALSE,1.0031,,,,,,,,,,,,,,,,,,,,,,,,,,,,,,,
,61736ce99f9d835fe9eb692a,627c6f567b3813347a8a8a11,2022-05-12_04h24.44.280,classification_task,2021.2.3,Win32,60.33910577,627c6715c52fd12f31907bd0,,,,,,,,,,,,,,,,,,,,,,,a,0,"[""0.033"",""0.290"",""0.708"",""0.836""]","[1,1,0,1]",0,12,12,12,1,1,0,,,1,FALSE,3.0517,,,,,,,,,,,,,,,,,,,,,,,,,,,,,,,
,61736ce99f9d835fe9eb692a,627c6f567b3813347a8a8a11,2022-05-12_04h24.44.280,classification_task,2021.2.3,Win32,60.33910577,627c6715c52fd12f31907bd0,,,,,,,,,,,,,,,,,,,,,,,a,1,"[""0.190"",""0.795"",""0.870"",""0.939""]","[1,0,1,1]",0,13,13,13,1,0,0,,,1,FALSE,1.0296,,,,,,,,,,,,,,,,,,,,,,,,,,,,,,,
,61736ce99f9d835fe9eb692a,627c6f567b3813347a8a8a11,2022-05-12_04h24.44.280,classification_task,2021.2.3,Win32,60.33910577,627c6715c52fd12f31907bd0,,,,,,,,,,,,,,,,,,,,,,,l,1,"[""0.033"",""0.073"",""0.572"",""0.836""]","[1,0,1,1]",0,14,14,14,1,1,0,,,1,FALSE,0.894,,,,,,,,,,,,,,,,,,,,,,,,,,,,,,,
,61736ce99f9d835fe9eb692a,627c6f567b3813347a8a8a11,2022-05-12_04h24.44.280,classification_task,2021.2.3,Win32,60.33910577,627c6715c52fd12f31907bd0,,,,,,,,,,,,,,,,,,,,,,,a,1,"[""0.068"",""0.352"",""0.663"",""0.975""]","[0,1,1,1]",0,15,15,15,1,0,1,,,1,FALSE,1.2173,,,,,,,,,,,,,,,,,,,,,,,,,,,,,,,
,61736ce99f9d835fe9eb692a,627c6f567b3813347a8a8a11,2022-05-12_04h24.44.280,classification_task,2021.2.3,Win32,60.33910577,627c6715c52fd12f31907bd0,,,,,,,,,,,,,,,,,,,,,,,a,0,"[""0.033"",""0.290"",""0.083"",""0.836""]","[1,1,0,1]",0,16,16,16,1,1,0,,,1,FALSE,2.5273,,,,,,,,,,,,,,,,,,,,,,,,,,,,,,,
,61736ce99f9d835fe9eb692a,627c6f567b3813347a8a8a11,2022-05-12_04h24.44.280,classification_task,2021.2.3,Win32,60.33910577,627c6715c52fd12f31907bd0,,,,,,,,,,,,,,,,,,,,,,,a,1,"[""0.190"",""0.795"",""0.870"",""0.939""]","[1,0,1,1]",0,17,17,17,1,0,0,,,1,FALSE,1.3224,,,,,,,,,,,,,,,,,,,,,,,,,,,,,,,
,61736ce99f9d835fe9eb692a,627c6f567b3813347a8a8a11,2022-05-12_04h24.44.280,classification_task,2021.2.3,Win32,60.33910577,627c6715c52fd12f31907bd0,,,,,,,,,,,,,,,,,,,,,,,l,1,"[""0.117"",""0.791"",""0.522"",""0.751""]","[1,0,1,1]",0,18,18,18,1,1,1,,,1,FALSE,0.9282,,,,,,,,,,,,,,,,,,,,,,,,,,,,,,,
,61736ce99f9d835fe9eb692a,627c6f567b3813347a8a8a11,2022-05-12_04h24.44.280,classification_task,2021.2.3,Win32,60.33910577,627c6715c52fd12f31907bd0,,,,,,,,,,,,,,,,,,,,,,,a,1,"[""0.627"",""0.352"",""0.663"",""0.975""]","[0,1,1,1]",0,19,19,19,1,0,1,,,1,FALSE,1.1113,,,,,,,,,,,,,,,,,,,,,,,,,,,,,,,
,61736ce99f9d835fe9eb692a,627c6f567b3813347a8a8a11,2022-05-12_04h24.44.280,classification_task,2021.2.3,Win32,60.33910577,627c6715c52fd12f31907bd0,,,,,,,,,,,,,,,,,,,,,,,a,0,"[""0.033"",""0.792"",""0.572"",""0.836""]","[1,0,1,1]",0,20,20,20,1,1,0,,,1,FALSE,1.516,,,,,,,,,,,,,,,,,,,,,,,,,,,,,,,
,61736ce99f9d835fe9eb692a,627c6f567b3813347a8a8a11,2022-05-12_04h24.44.280,classification_task,2021.2.3,Win32,60.33910577,627c6715c52fd12f31907bd0,,,,,,,,,,,,,,,,,,,,,,,a,0,"[""0.033"",""0.290"",""0.572"",""0.792""]","[1,1,1,0]",0,21,21,21,1,1,0,,,1,FALSE,0.8363,,,,,,,,,,,,,,,,,,,,,,,,,,,,,,,
,61736ce99f9d835fe9eb692a,627c6f567b3813347a8a8a11,2022-05-12_04h24.44.280,classification_task,2021.2.3,Win32,60.33910577,627c6715c52fd12f31907bd0,,,,,,,,,,,,,,,,,,,,,,,a,1,"[""0.238"",""0.713"",""0.663"",""0.975""]","[1,0,1,1]",0,22,22,22,1,0,1,,,1,FALSE,0.9785,,,,,,,,,,,,,,,,,,,,,,,,,,,,,,,
,61736ce99f9d835fe9eb692a,627c6f567b3813347a8a8a11,2022-05-12_04h24.44.280,classification_task,2021.2.3,Win32,60.33910577,627c6715c52fd12f31907bd0,,,,,,,,,,,,,,,,,,,,,,,a,1,"[""0.238"",""0.352"",""0.663"",""0.083""]","[1,1,1,0]",0,23,23,23,1,0,1,,,1,FALSE,0.6563,,,,,,,,,,,,,,,,,,,,,,,,,,,,,,,
,61736ce99f9d835fe9eb692a,627c6f567b3813347a8a8a11,2022-05-12_04h24.44.280,classification_task,2021.2.3,Win32,60.33910577,627c6715c52fd12f31907bd0,,,,,,,,,,,,,,,,,,,,,,,l,1,"[""0.117"",""0.419"",""0.522"",""0.696""]","[1,1,1,0]",0,24,24,24,1,1,1,,,1,FALSE,0.7945,,,,,,,,,,,,,,,,,,,,,,,,,,,,,,,
,61736ce99f9d835fe9eb692a,627c6f567b3813347a8a8a11,2022-05-12_04h24.44.280,classification_task,2021.2.3,Win32,60.33910577,627c6715c52fd12f31907bd0,,,,,,,,,,,,,,,,,,,,,,,l,1,"[""0.705"",""0.419"",""0.522"",""0.751""]","[0,1,1,1]",0,25,25,25,1,1,1,,,1,FALSE,0.7254,,,,,,,,,,,,,,,,,,,,,,,,,,,,,,,
,61736ce99f9d835fe9eb692a,627c6f567b3813347a8a8a11,2022-05-12_04h24.44.280,classification_task,2021.2.3,Win32,60.33910577,627c6715c52fd12f31907bd0,,,,,,,,,,,,,,,,,,,,,,,l,0,"[""0.696"",""0.460"",""0.870"",""0.939""]","[0,1,1,1]",0,26,26,26,1,0,0,,,1,FALSE,2.081,,,,,,,,,,,,,,,,,,,,,,,,,,,,,,,
,61736ce99f9d835fe9eb692a,627c6f567b3813347a8a8a11,2022-05-12_04h24.44.280,classification_task,2021.2.3,Win32,60.33910577,627c6715c52fd12f31907bd0,,,,,,,,,,,,,,,,,,,,,,,l,0,"[""0.190"",""0.460"",""0.617"",""0.939""]","[1,1,0,1]",0,27,27,27,1,0,0,,,1,FALSE,0.8481,,,,,,,,,,,,,,,,,,,,,,,,,,,,,,,
,61736ce99f9d835fe9eb692a,627c6f567b3813347a8a8a11,2022-05-12_04h24.44.280,classification_task,2021.2.3,Win32,60.33910577,627c6715c52fd12f31907bd0,,,,,,,,,,,,,,,,,,,,,,,a,0,"[""0.117"",""0.419"",""0.068"",""0.751""]","[1,1,0,1]",0,28,28,28,1,1,1,,,1,FALSE,0.9178,,,,,,,,,,,,,,,,,,,,,,,,,,,,,,,
,61736ce99f9d835fe9eb692a,627c6f567b3813347a8a8a11,2022-05-12_04h24.44.280,classification_task,2021.2.3,Win32,60.33910577,627c6715c52fd12f31907bd0,,,,,,,,,,,,,,,,,,,,,,,a,1,"[""0.238"",""0.352"",""0.083"",""0.975""]","[1,1,0,1]",0,29,29,29,1,0,1,,,1,FALSE,0.7582,,,,,,,,,,,,,,,,,,,,,,,,,,,,,,,
,61736ce99f9d835fe9eb692a,627c6f567b3813347a8a8a11,2022-05-12_04h24.44.280,classification_task,2021.2.3,Win32,60.33910577,627c6715c52fd12f31907bd0,,,,,,,,,,,,,,,,,,,,,,,l,1,"[""0.795"",""0.290"",""0.572"",""0.836""]","[0,1,1,1]",0,30,30,30,1,1,0,,,1,FALSE,1.6454,,,,,,,,,,,,,,,,,,,,,,,,,,,,,,,
,61736ce99f9d835fe9eb692a,627c6f567b3813347a8a8a11,2022-05-12_04h24.44.280,classification_task,2021.2.3,Win32,60.33910577,627c6715c52fd12f31907bd0,,,,,,,,,,,,,,,,,,,,,,,a,1,"[""0.190"",""0.460"",""0.870"",""0.696""]","[1,1,1,0]",0,31,31,31,1,0,0,,,1,FALSE,1.4631,,,,,,,,,,,,,,,,,,,,,,,,,,,,,,,
,61736ce99f9d835fe9eb692a,627c6f567b3813347a8a8a11,2022-05-12_04h24.44.280,classification_task,2021.2.3,Win32,60.33910577,627c6715c52fd12f31907bd0,,,,,,,,,,,,,,,,,,,,,,,a,1,"[""0.628"",""0.352"",""0.663"",""0.975""]","[0,1,1,1]",0,32,32,32,1,0,1,,,1,FALSE,3.3938,,,,,,,,,,,,,,,,,,,,,,,,,,,,,,,
,61736ce99f9d835fe9eb692a,627c6f567b3813347a8a8a11,2022-05-12_04h24.44.280,classification_task,2021.2.3,Win32,60.33910577,627c6715c52fd12f31907bd0,,,,,,,,,,,,,,,,,,,,,,,l,1,"[""0.068"",""0.419"",""0.522"",""0.751""]","[0,1,1,1]",0,33,33,33,1,1,1,,,1,FALSE,1.2901,,,,,,,,,,,,,,,,,,,,,,,,,,,,,,,
,61736ce99f9d835fe9eb692a,627c6f567b3813347a8a8a11,2022-05-12_04h24.44.280,classification_task,2021.2.3,Win32,60.33910577,627c6715c52fd12f31907bd0,,,,,,,,,,,,,,,,,,,,,,,a,0,"[""0.033"",""0.290"",""0.617"",""0.836""]","[1,1,0,1]",0,34,34,34,1,1,0,,,1,FALSE,2.7278,,,,,,,,,,,,,,,,,,,,,,,,,,,,,,,
,61736ce99f9d835fe9eb692a,627c6f567b3813347a8a8a11,2022-05-12_04h24.44.280,classification_task,2021.2.3,Win32,60.33910577,627c6715c52fd12f31907bd0,,,,,,,,,,,,,,,,,,,,,,,a,1,"[""0.190"",""0.460"",""0.795"",""0.939""]","[1,1,0,1]",0,35,35,35,1,0,0,,,1,FALSE,0.7259,,,,,,,,,,,,,,,,,,,,,,,,,,,,,,,
,61736ce99f9d835fe9eb692a,627c6f567b3813347a8a8a11,2022-05-12_04h24.44.280,classification_task,2021.2.3,Win32,60.33910577,627c6715c52fd12f31907bd0,,,,,,,,,,,,,,,,,,,,,,,a,1,"[""0.791"",""0.460"",""0.870"",""0.939""]","[0,1,1,1]",0,36,36,36,1,0,0,,,1,FALSE,1.3083,,,,,,,,,,,,,,,,,,,,,,,,,,,,,,,
,61736ce99f9d835fe9eb692a,627c6f567b3813347a8a8a11,2022-05-12_04h24.44.280,classification_task,2021.2.3,Win32,60.33910577,627c6715c52fd12f31907bd0,,,,,,,,,,,,,,,,,,,,,,,l,1,"[""0.117"",""0.419"",""0.792"",""0.751""]","[1,1,0,1]",0,37,37,37,1,1,1,,,1,FALSE,1.0171,,,,,,,,,,,,,,,,,,,,,,,,,,,,,,,
,61736ce99f9d835fe9eb692a,627c6f567b3813347a8a8a11,2022-05-12_04h24.44.280,classification_task,2021.2.3,Win32,60.33910577,627c6715c52fd12f31907bd0,,,,,,,,,,,,,,,,,,,,,,,l,1,"[""0.117"",""0.419"",""0.522"",""0.617""]","[1,1,1,0]",0,38,38,38,1,1,1,,,1,FALSE,0.7262,,,,,,,,,,,,,,,,,,,,,,,,,,,,,,,
,61736ce99f9d835fe9eb692a,627c6f567b3813347a8a8a11,2022-05-12_04h24.44.280,classification_task,2021.2.3,Win32,60.33910577,627c6715c52fd12f31907bd0,,,,,,,,,,,,,,,,,,,,,,,a,1,"[""0.190"",""0.627"",""0.870"",""0.939""]","[1,0,1,1]",0,39,39,39,1,0,0,,,1,FALSE,0.7863,,,,,,,,,,,,,,,,,,,,,,,,,,,,,,,
,61736ce99f9d835fe9eb692a,627c6f567b3813347a8a8a11,2022-05-12_04h24.44.280,classification_task,2021.2.3,Win32,60.33910577,627c6715c52fd12f31907bd0,,,,,,,,,,,,,,,,,,,,,,,a,1,"[""0.238"",""0.705"",""0.663"",""0.975""]","[1,0,1,1]",0,40,40,40,1,0,1,,,1,FALSE,1.9559,,,,,,,,,,,,,,,,,,,,,,,,,,,,,,,
,61736ce99f9d835fe9eb692a,627c6f567b3813347a8a8a11,2022-05-12_04h24.44.280,classification_task,2021.2.3,Win32,60.33910577,627c6715c52fd12f31907bd0,,,,,,,,,,,,,,,,,,,,,,,l,1,"[""0.033"",""0.290"",""0.572"",""0.080""]","[1,1,1,0]",0,41,41,41,1,1,0,,,1,FALSE,1.1786,,,,,,,,,,,,,,,,,,,,,,,,,,,,,,,
,61736ce99f9d835fe9eb692a,627c6f567b3813347a8a8a11,2022-05-12_04h24.44.280,classification_task,2021.2.3,Win32,60.33910577,627c6715c52fd12f31907bd0,,,,,,,,,,,,,,,,,,,,,,,l,1,"[""0.033"",""0.627"",""0.572"",""0.836""]","[1,0,1,1]",0,42,42,42,1,1,0,,,1,FALSE,1.0488,,,,,,,,,,,,,,,,,,,,,,,,,,,,,,,
,61736ce99f9d835fe9eb692a,627c6f567b3813347a8a8a11,2022-05-12_04h24.44.280,classification_task,2021.2.3,Win32,60.33910577,627c6715c52fd12f31907bd0,,,,,,,,,,,,,,,,,,,,,,,a,1,"[""0.190"",""0.460"",""0.870"",""0.792""]","[1,1,1,0]",0,43,43,43,1,0,0,,,1,FALSE,0.9587,,,,,,,,,,,,,,,,,,,,,,,,,,,,,,,
,61736ce99f9d835fe9eb692a,627c6f567b3813347a8a8a11,2022-05-12_04h24.44.280,classification_task,2021.2.3,Win32,60.33910577,627c6715c52fd12f31907bd0,,,,,,,,,,,,,,,,,,,,,,,l,1,"[""0.117"",""0.080"",""0.522"",""0.751""]","[1,0,1,1]",0,44,44,44,1,1,1,,,1,FALSE,0.9482,,,,,,,,,,,,,,,,,,,,,,,,,,,,,,,
,61736ce99f9d835fe9eb692a,627c6f567b3813347a8a8a11,2022-05-12_04h24.44.280,classification_task,2021.2.3,Win32,60.33910577,627c6715c52fd12f31907bd0,,,,,,,,,,,,,,,,,,,,,,,a,1,"[""0.238"",""0.352"",""0.663"",""0.713""]","[1,1,1,0]",0,45,45,45,1,0,1,,,1,FALSE,0.6763,,,,,,,,,,,,,,,,,,,,,,,,,,,,,,,
,61736ce99f9d835fe9eb692a,627c6f567b3813347a8a8a11,2022-05-12_04h24.44.280,classification_task,2021.2.3,Win32,60.33910577,627c6715c52fd12f31907bd0,,,,,,,,,,,,,,,,,,,,,,,a,1,"[""0.238"",""0.352"",""0.791"",""0.975""]","[1,1,0,1]",0,46,46,46,1,0,1,,,1,FALSE,0.7806,,,,,,,,,,,,,,,,,,,,,,,,,,,,,,,
,61736ce99f9d835fe9eb692a,627c6f567b3813347a8a8a11,2022-05-12_04h24.44.280,classification_task,2021.2.3,Win32,60.33910577,627c6715c52fd12f31907bd0,,,,,,,,,,,,,,,,,,,,,,,a,0,"[""0.791"",""0.290"",""0.572"",""0.836""]","[0,1,1,1]",0,47,47,47,1,1,0,,,1,FALSE,2.2248,,,,,,,,,,,,,,,,,,,,,,,,,,,,,,,
,61736ce99f9d835fe9eb692a,627c6f567b3813347a8a8a11,2022-05-12_04h24.44.280,classification_task,2021.2.3,Win32,60.33910577,627c6715c52fd12f31907bd0,,,,,,,,,,,,,,,,,,,,,,,l,0,"[""0.083"",""0.352"",""0.663"",""0.975""]","[0,1,1,1]",0,48,48,48,1,0,1,,,1,FALSE,1.4494,,,,,,,,,,,,,,,,,,,,,,,,,,,,,,,
,61736ce99f9d835fe9eb692a,627c6f567b3813347a8a8a11,2022-05-12_04h24.44.280,classification_task,2021.2.3,Win32,60.33910577,627c6715c52fd12f31907bd0,,,,,,,,,,,,,,,,,,,,,,,a,1,"[""0.190"",""0.460"",""0.870"",""0.791""]","[1,1,1,0]",0,49,49,49,1,0,0,,,1,FALSE,3.8579,,,,,,,,,,,,,,,,,,,,,,,,,,,,,,,
,61736ce99f9d835fe9eb692a,627c6f567b3813347a8a8a11,2022-05-12_04h24.44.280,classification_task,2021.2.3,Win32,60.33910577,627c6715c52fd12f31907bd0,,,,,,,,,,,,,,,,,,,,,,,l,1,"[""0.117"",""0.419"",""0.522"",""0.080""]","[1,1,1,0]",0,50,50,50,1,1,1,,,1,FALSE,1.5098,,,,,,,,,,,,,,,,,,,,,,,,,,,,,,,
,61736ce99f9d835fe9eb692a,627c6f567b3813347a8a8a11,2022-05-12_04h24.44.280,classification_task,2021.2.3,Win32,60.33910577,627c6715c52fd12f31907bd0,,,,,,,,,,,,,,,,,,,,,,,l,1,"[""0.033"",""0.290"",""0.708"",""0.836""]","[1,1,0,1]",0,51,51,51,1,1,0,,,1,FALSE,1.5168,,,,,,,,,,,,,,,,,,,,,,,,,,,,,,,
,61736ce99f9d835fe9eb692a,627c6f567b3813347a8a8a11,2022-05-12_04h24.44.280,classification_task,2021.2.3,Win32,60.33910577,627c6715c52fd12f31907bd0,,,,,,,,,,,,,,,,,,,,,,,a,1,"[""0.238"",""0.792"",""0.663"",""0.975""]","[1,0,1,1]",0,52,52,52,1,0,1,,,1,FALSE,1.4845,,,,,,,,,,,,,,,,,,,,,,,,,,,,,,,
,61736ce99f9d835fe9eb692a,627c6f567b3813347a8a8a11,2022-05-12_04h24.44.280,classification_task,2021.2.3,Win32,60.33910577,627c6715c52fd12f31907bd0,,,,,,,,,,,,,,,,,,,,,,,a,0,"[""0.073"",""0.290"",""0.572"",""0.836""]","[0,1,1,1]",0,53,53,53,1,1,0,,,1,FALSE,2.1332,,,,,,,,,,,,,,,,,,,,,,,,,,,,,,,
,61736ce99f9d835fe9eb692a,627c6f567b3813347a8a8a11,2022-05-12_04h24.44.280,classification_task,2021.2.3,Win32,60.33910577,627c6715c52fd12f31907bd0,,,,,,,,,,,,,,,,,,,,,,,l,1,"[""0.117"",""0.628"",""0.522"",""0.751""]","[1,0,1,1]",0,54,54,54,1,1,1,,,1,FALSE,1.2655,,,,,,,,,,,,,,,,,,,,,,,,,,,,,,,
,61736ce99f9d835fe9eb692a,627c6f567b3813347a8a8a11,2022-05-12_04h24.44.280,classification_task,2021.2.3,Win32,60.33910577,627c6715c52fd12f31907bd0,,,,,,,,,,,,,,,,,,,,,,,l,1,"[""0.033"",""0.791"",""0.572"",""0.836""]","[1,0,1,1]",0,55,55,55,1,1,0,,,1,FALSE,1.1564,,,,,,,,,,,,,,,,,,,,,,,,,,,,,,,
,61736ce99f9d835fe9eb692a,627c6f567b3813347a8a8a11,2022-05-12_04h24.44.280,classification_task,2021.2.3,Win32,60.33910577,627c6715c52fd12f31907bd0,,,,,,,,,,,,,,,,,,,,,,,a,1,"[""0.708"",""0.460"",""0.870"",""0.939""]","[0,1,1,1]",0,56,56,56,1,0,0,,,1,FALSE,0.7855,,,,,,,,,,,,,,,,,,,,,,,,,,,,,,,
,61736ce99f9d835fe9eb692a,627c6f567b3813347a8a8a11,2022-05-12_04h24.44.280,classification_task,2021.2.3,Win32,60.33910577,627c6715c52fd12f31907bd0,,,,,,,,,,,,,,,,,,,,,,,l,0,"[""0.238"",""0.352"",""0.663"",""0.068""]","[1,1,1,0]",0,57,57,57,1,0,1,,,1,FALSE,1.1743,,,,,,,,,,,,,,,,,,,,,,,,,,,,,,,
,61736ce99f9d835fe9eb692a,627c6f567b3813347a8a8a11,2022-05-12_04h24.44.280,classification_task,2021.2.3,Win32,60.33910577,627c6715c52fd12f31907bd0,,,,,,,,,,,,,,,,,,,,,,,l,1,"[""0.795"",""0.419"",""0.522"",""0.751""]","[0,1,1,1]",0,58,58,58,1,1,1,,,1,FALSE,0.9755,,,,,,,,,,,,,,,,,,,,,,,,,,,,,,,
,61736ce99f9d835fe9eb692a,627c6f567b3813347a8a8a11,2022-05-12_04h24.44.280,classification_task,2021.2.3,Win32,60.33910577,627c6715c52fd12f31907bd0,,,,,,,,,,,,,,,,,,,,,,,a,1,"[""0.190"",""0.791"",""0.870"",""0.939""]","[1,0,1,1]",0,59,59,59,1,0,0,,,1,FALSE,2.9749,,,,,,,,,,,,,,,,,,,,,,,,,,,,,,,
,61736ce99f9d835fe9eb692a,627c6f567b3813347a8a8a11,2022-05-12_04h24.44.280,classification_task,2021.2.3,Win32,60.33910577,627c6715c52fd12f31907bd0,,,,,,,,,,,,,,,,,,,,,,,l,1,"[""0.117"",""0.419"",""0.628"",""0.751""]","[1,1,0,1]",0,60,60,60,1,1,1,,,1,FALSE,1.147,,,,,,,,,,,,,,,,,,,,,,,,,,,,,,,
,61736ce99f9d835fe9eb692a,627c6f567b3813347a8a8a11,2022-05-12_04h24.44.280,classification_task,2021.2.3,Win32,60.33910577,627c6715c52fd12f31907bd0,,,,,,,,,,,,,,,,,,,,,,,a,0,"[""0.033"",""0.290"",""0.572"",""0.713""]","[1,1,1,0]",0,61,61,61,1,1,0,,,1,FALSE,3.2261,,,,,,,,,,,,,,,,,,,,,,,,,,,,,,,
,61736ce99f9d835fe9eb692a,627c6f567b3813347a8a8a11,2022-05-12_04h24.44.280,classification_task,2021.2.3,Win32,60.33910577,627c6715c52fd12f31907bd0,,,,,,,,,,,,,,,,,,,,,,,a,1,"[""0.190"",""0.460"",""0.696"",""0.939""]","[1,1,0,1]",0,62,62,62,1,0,0,,,1,FALSE,0.9277,,,,,,,,,,,,,,,,,,,,,,,,,,,,,,,
,61736ce99f9d835fe9eb692a,627c6f567b3813347a8a8a11,2022-05-12_04h24.44.280,classification_task,2021.2.3,Win32,60.33910577,627c6715c52fd12f31907bd0,,,,,,,,,,,,,,,,,,,,,,,a,1,"[""0.238"",""0.352"",""0.792"",""0.975""]","[1,1,0,1]",0,63,63,63,1,0,1,,,1,FALSE,1.4955,,,,,,,,,,,,,,,,,,,,,,,,,,,,,,,
,61736ce99f9d835fe9eb692a,627c6f567b3813347a8a8a11,2022-05-12_04h24.44.280,classification_task,2021.2.3,Win32,60.33910577,627c6715c52fd12f31907bd0,,,,,,,,,,,,,,,,,,,,,,,,,,,,,,,,,,,,,,,0, ,,0,6.371743608,211.6149,0,1,1,1,1,2,2,,,,,,,,,,,,,,,,,,
,61736ce99f9d835fe9eb692a,627c6f567b3813347a8a8a11,2022-05-12_04h24.44.280,classification_task,2021.2.3,Win32,60.33910577,627c6715c52fd12f31907bd0,,,,,,,,,,,,,,,,,,,,,,,,,,,,,,,,,,,,,,,1,  ,,0,9.090732438,215.2471,0,1,1,1,1,2,2,,,,,,,,,,,,,,,,,,
,61736ce99f9d835fe9eb692a,627c6f567b3813347a8a8a11,2022-05-12_04h24.44.280,classification_task,2021.2.3,Win32,60.33910577,627c6715c52fd12f31907bd0,,,,,,,,,,,,,,,,,,,,,,,,,,,,,,,,,,,,,,,2,  ,,0,9.507153403,217.4803,0,1,1,1,1,2,2,,,,,,,,,,,,,,,,,,
,61736ce99f9d835fe9eb692a,627c6f567b3813347a8a8a11,2022-05-12_04h24.44.280,classification_task,2021.2.3,Win32,60.33910577,627c6715c52fd12f31907bd0,,,,,,,,,,,,,,,,,,,,,,,,,,,,,,,,,,,,,,,,,,,,,0,1,1,1,1,,2,,,,,,,,,,,,,,,,,,
,61736ce99f9d835fe9eb692a,627c6f567b3813347a8a8a11,2022-05-12_04h24.44.280,classification_task,2021.2.3,Win32,60.33910577,627c6715c52fd12f31907bd0,,,,,,,,,,,,,,,,,,,,,space,26.5405,a,1,"[""0.190"",""0.713"",""0.870"",""0.939""]","[1,0,1,1]",0,0,0,0,1,0,0,,,1,FALSE,4.9611,,,,,,,,,,,,,,,,,,,,,,,,,,,,,,,
,61736ce99f9d835fe9eb692a,627c6f567b3813347a8a8a11,2022-05-12_04h24.44.280,classification_task,2021.2.3,Win32,60.33910577,627c6715c52fd12f31907bd0,,,,,,,,,,,,,,,,,,,,,,,l,1,"[""0.795"",""0.419"",""0.522"",""0.751""]","[0,1,1,1]",0,1,1,1,1,1,1,,,1,FALSE,4.5563,,,,,,,,,,,,,,,,,,,,,,,,,,,,,,,
,61736ce99f9d835fe9eb692a,627c6f567b3813347a8a8a11,2022-05-12_04h24.44.280,classification_task,2021.2.3,Win32,60.33910577,627c6715c52fd12f31907bd0,,,,,,,,,,,,,,,,,,,,,,,l,1,"[""0.033"",""0.083"",""0.572"",""0.836""]","[1,0,1,1]",0,2,2,2,1,1,0,,,1,FALSE,1.6379,,,,,,,,,,,,,,,,,,,,,,,,,,,,,,,
,61736ce99f9d835fe9eb692a,627c6f567b3813347a8a8a11,2022-05-12_04h24.44.280,classification_task,2021.2.3,Win32,60.33910577,627c6715c52fd12f31907bd0,,,,,,,,,,,,,,,,,,,,,,,a,1,"[""0.238"",""0.713"",""0.663"",""0.975""]","[1,0,1,1]",0,3,3,3,1,0,1,,,1,FALSE,2.223,,,,,,,,,,,,,,,,,,,,,,,,,,,,,,,
,61736ce99f9d835fe9eb692a,627c6f567b3813347a8a8a11,2022-05-12_04h24.44.280,classification_task,2021.2.3,Win32,60.33910577,627c6715c52fd12f31907bd0,,,,,,,,,,,,,,,,,,,,,,,a,1,"[""0.238"",""0.352"",""0.663"",""0.791""]","[1,1,1,0]",0,4,4,4,1,0,1,,,1,FALSE,1.045,,,,,,,,,,,,,,,,,,,,,,,,,,,,,,,
,61736ce99f9d835fe9eb692a,627c6f567b3813347a8a8a11,2022-05-12_04h24.44.280,classification_task,2021.2.3,Win32,60.33910577,627c6715c52fd12f31907bd0,,,,,,,,,,,,,,,,,,,,,,,a,0,"[""0.627"",""0.290"",""0.572"",""0.836""]","[0,1,1,1]",0,5,5,5,1,1,0,,,1,FALSE,1.4767,,,,,,,,,,,,,,,,,,,,,,,,,,,,,,,
,61736ce99f9d835fe9eb692a,627c6f567b3813347a8a8a11,2022-05-12_04h24.44.280,classification_task,2021.2.3,Win32,60.33910577,627c6715c52fd12f31907bd0,,,,,,,,,,,,,,,,,,,,,,,l,1,"[""0.117"",""0.419"",""0.522"",""0.696""]","[1,1,1,0]",0,6,6,6,1,1,1,,,1,FALSE,1.0928,,,,,,,,,,,,,,,,,,,,,,,,,,,,,,,
,61736ce99f9d835fe9eb692a,627c6f567b3813347a8a8a11,2022-05-12_04h24.44.280,classification_task,2021.2.3,Win32,60.33910577,627c6715c52fd12f31907bd0,,,,,,,,,,,,,,,,,,,,,,,l,1,"[""0.033"",""0.290"",""0.572"",""0.627""]","[1,1,1,0]",0,7,7,7,1,1,0,,,1,FALSE,1.3586,,,,,,,,,,,,,,,,,,,,,,,,,,,,,,,
,61736ce99f9d835fe9eb692a,627c6f567b3813347a8a8a11,2022-05-12_04h24.44.280,classification_task,2021.2.3,Win32,60.33910577,627c6715c52fd12f31907bd0,,,,,,,,,,,,,,,,,,,,,,,a,1,"[""0.792"",""0.352"",""0.663"",""0.975""]","[0,1,1,1]",0,8,8,8,1,0,1,,,1,FALSE,1.659,,,,,,,,,,,,,,,,,,,,,,,,,,,,,,,
,61736ce99f9d835fe9eb692a,627c6f567b3813347a8a8a11,2022-05-12_04h24.44.280,classification_task,2021.2.3,Win32,60.33910577,627c6715c52fd12f31907bd0,,,,,,,,,,,,,,,,,,,,,,,l,0,"[""0.190"",""0.460"",""0.870"",""0.068""]","[1,1,1,0]",0,9,9,9,1,0,0,,,1,FALSE,1.6119,,,,,,,,,,,,,,,,,,,,,,,,,,,,,,,
,61736ce99f9d835fe9eb692a,627c6f567b3813347a8a8a11,2022-05-12_04h24.44.280,classification_task,2021.2.3,Win32,60.33910577,627c6715c52fd12f31907bd0,,,,,,,,,,,,,,,,,,,,,,,l,1,"[""0.117"",""0.419"",""0.791"",""0.751""]","[1,1,0,1]",0,10,10,10,1,1,1,,,1,FALSE,1.2444,,,,,,,,,,,,,,,,,,,,,,,,,,,,,,,
,61736ce99f9d835fe9eb692a,627c6f567b3813347a8a8a11,2022-05-12_04h24.44.280,classification_task,2021.2.3,Win32,60.33910577,627c6715c52fd12f31907bd0,,,,,,,,,,,,,,,,,,,,,,,l,0,"[""0.190"",""0.460"",""0.077"",""0.939""]","[1,1,0,1]",0,11,11,11,1,0,0,,,1,FALSE,1.1397,,,,,,,,,,,,,,,,,,,,,,,,,,,,,,,
,61736ce99f9d835fe9eb692a,627c6f567b3813347a8a8a11,2022-05-12_04h24.44.280,classification_task,2021.2.3,Win32,60.33910577,627c6715c52fd12f31907bd0,,,,,,,,,,,,,,,,,,,,,,,l,1,"[""0.033"",""0.290"",""0.705"",""0.836""]","[1,1,0,1]",0,12,12,12,1,1,0,,,1,FALSE,1.9306,,,,,,,,,,,,,,,,,,,,,,,,,,,,,,,
,61736ce99f9d835fe9eb692a,627c6f567b3813347a8a8a11,2022-05-12_04h24.44.280,classification_task,2021.2.3,Win32,60.33910577,627c6715c52fd12f31907bd0,,,,,,,,,,,,,,,,,,,,,,,a,1,"[""0.792"",""0.460"",""0.870"",""0.939""]","[0,1,1,1]",0,13,13,13,1,0,0,,,1,FALSE,0.9927,,,,,,,,,,,,,,,,,,,,,,,,,,,,,,,
,61736ce99f9d835fe9eb692a,627c6f567b3813347a8a8a11,2022-05-12_04h24.44.280,classification_task,2021.2.3,Win32,60.33910577,627c6715c52fd12f31907bd0,,,,,,,,,,,,,,,,,,,,,,,a,1,"[""0.238"",""0.352"",""0.713"",""0.975""]","[1,1,0,1]",0,14,14,14,1,0,1,,,1,FALSE,1.4124,,,,,,,,,,,,,,,,,,,,,,,,,,,,,,,
,61736ce99f9d835fe9eb692a,627c6f567b3813347a8a8a11,2022-05-12_04h24.44.280,classification_task,2021.2.3,Win32,60.33910577,627c6715c52fd12f31907bd0,,,,,,,,,,,,,,,,,,,,,,,l,1,"[""0.117"",""0.080"",""0.522"",""0.751""]","[1,0,1,1]",0,15,15,15,1,1,1,,,1,FALSE,1.2298,,,,,,,,,,,,,,,,,,,,,,,,,,,,,,,
,61736ce99f9d835fe9eb692a,627c6f567b3813347a8a8a11,2022-05-12_04h24.44.280,classification_task,2021.2.3,Win32,60.33910577,627c6715c52fd12f31907bd0,,,,,,,,,,,,,,,,,,,,,,,l,1,"[""0.117"",""0.617"",""0.522"",""0.751""]","[1,0,1,1]",0,16,16,16,1,1,1,,,1,FALSE,1.1447,,,,,,,,,,,,,,,,,,,,,,,,,,,,,,,
,61736ce99f9d835fe9eb692a,627c6f567b3813347a8a8a11,2022-05-12_04h24.44.280,classification_task,2021.2.3,Win32,60.33910577,627c6715c52fd12f31907bd0,,,,,,,,,,,,,,,,,,,,,,,a,1,"[""0.238"",""0.627"",""0.663"",""0.975""]","[1,0,1,1]",0,17,17,17,1,0,1,,,1,FALSE,0.9388,,,,,,,,,,,,,,,,,,,,,,,,,,,,,,,
,61736ce99f9d835fe9eb692a,627c6f567b3813347a8a8a11,2022-05-12_04h24.44.280,classification_task,2021.2.3,Win32,60.33910577,627c6715c52fd12f31907bd0,,,,,,,,,,,,,,,,,,,,,,,l,1,"[""0.033"",""0.077"",""0.572"",""0.836""]","[1,0,1,1]",0,18,18,18,1,1,0,,,1,FALSE,1.0932,,,,,,,,,,,,,,,,,,,,,,,,,,,,,,,
,61736ce99f9d835fe9eb692a,627c6f567b3813347a8a8a11,2022-05-12_04h24.44.280,classification_task,2021.2.3,Win32,60.33910577,627c6715c52fd12f31907bd0,,,,,,,,,,,,,,,,,,,,,,,l,1,"[""0.117"",""0.419"",""0.077"",""0.751""]","[1,1,0,1]",0,19,19,19,1,1,1,,,1,FALSE,1.4828,,,,,,,,,,,,,,,,,,,,,,,,,,,,,,,
,61736ce99f9d835fe9eb692a,627c6f567b3813347a8a8a11,2022-05-12_04h24.44.280,classification_task,2021.2.3,Win32,60.33910577,627c6715c52fd12f31907bd0,,,,,,,,,,,,,,,,,,,,,,,a,1,"[""0.628"",""0.460"",""0.870"",""0.939""]","[0,1,1,1]",0,20,20,20,1,0,0,,,1,FALSE,1.2266,,,,,,,,,,,,,,,,,,,,,,,,,,,,,,,
,61736ce99f9d835fe9eb692a,627c6f567b3813347a8a8a11,2022-05-12_04h24.44.280,classification_task,2021.2.3,Win32,60.33910577,627c6715c52fd12f31907bd0,,,,,,,,,,,,,,,,,,,,,,,l,1,"[""0.033"",""0.290"",""0.572"",""0.083""]","[1,1,1,0]",0,21,21,21,1,1,0,,,1,FALSE,0.7452,,,,,,,,,,,,,,,,,,,,,,,,,,,,,,,
,61736ce99f9d835fe9eb692a,627c6f567b3813347a8a8a11,2022-05-12_04h24.44.280,classification_task,2021.2.3,Win32,60.33910577,627c6715c52fd12f31907bd0,,,,,,,,,,,,,,,,,,,,,,,a,1,"[""0.238"",""0.352"",""0.663"",""0.705""]","[1,1,1,0]",0,22,22,22,1,0,1,,,1,FALSE,0.8967,,,,,,,,,,,,,,,,,,,,,,,,,,,,,,,
,61736ce99f9d835fe9eb692a,627c6f567b3813347a8a8a11,2022-05-12_04h24.44.280,classification_task,2021.2.3,Win32,60.33910577,627c6715c52fd12f31907bd0,,,,,,,,,,,,,,,,,,,,,,,l,0,"[""0.238"",""0.352"",""0.068"",""0.975""]","[1,1,0,1]",0,23,23,23,1,0,1,,,1,FALSE,3.5487,,,,,,,,,,,,,,,,,,,,,,,,,,,,,,,
,61736ce99f9d835fe9eb692a,627c6f567b3813347a8a8a11,2022-05-12_04h24.44.280,classification_task,2021.2.3,Win32,60.33910577,627c6715c52fd12f31907bd0,,,,,,,,,,,,,,,,,,,,,,,a,0,"[""0.073"",""0.290"",""0.572"",""0.836""]","[0,1,1,1]",0,24,24,24,1,1,0,,,1,FALSE,2.8391,,,,,,,,,,,,,,,,,,,,,,,,,,,,,,,
,61736ce99f9d835fe9eb692a,627c6f567b3813347a8a8a11,2022-05-12_04h24.44.280,classification_task,2021.2.3,Win32,60.33910577,627c6715c52fd12f31907bd0,,,,,,,,,,,,,,,,,,,,,,,l,0,"[""0.068"",""0.352"",""0.663"",""0.975""]","[0,1,1,1]",0,25,25,25,1,0,1,,,1,FALSE,1.1311,,,,,,,,,,,,,,,,,,,,,,,,,,,,,,,
,61736ce99f9d835fe9eb692a,627c6f567b3813347a8a8a11,2022-05-12_04h24.44.280,classification_task,2021.2.3,Win32,60.33910577,627c6715c52fd12f31907bd0,,,,,,,,,,,,,,,,,,,,,,,l,0,"[""0.190"",""0.460"",""0.077"",""0.939""]","[1,1,0,1]",0,26,26,26,1,0,0,,,1,FALSE,1.3889,,,,,,,,,,,,,,,,,,,,,,,,,,,,,,,
,61736ce99f9d835fe9eb692a,627c6f567b3813347a8a8a11,2022-05-12_04h24.44.280,classification_task,2021.2.3,Win32,60.33910577,627c6715c52fd12f31907bd0,,,,,,,,,,,,,,,,,,,,,,,l,0,"[""0.190"",""0.460"",""0.870"",""0.073""]","[1,1,1,0]",0,27,27,27,1,0,0,,,1,FALSE,0.8642,,,,,,,,,,,,,,,,,,,,,,,,,,,,,,,
,61736ce99f9d835fe9eb692a,627c6f567b3813347a8a8a11,2022-05-12_04h24.44.280,classification_task,2021.2.3,Win32,60.33910577,627c6715c52fd12f31907bd0,,,,,,,,,,,,,,,,,,,,,,,l,1,"[""0.033"",""0.290"",""0.077"",""0.836""]","[1,1,0,1]",0,28,28,28,1,1,0,,,1,FALSE,0.7767,,,,,,,,,,,,,,,,,,,,,,,,,,,,,,,
,61736ce99f9d835fe9eb692a,627c6f567b3813347a8a8a11,2022-05-12_04h24.44.280,classification_task,2021.2.3,Win32,60.33910577,627c6715c52fd12f31907bd0,,,,,,,,,,,,,,,,,,,,,,,l,1,"[""0.080"",""0.419"",""0.522"",""0.751""]","[0,1,1,1]",0,29,29,29,1,1,1,,,1,FALSE,1.1077,,,,,,,,,,,,,,,,,,,,,,,,,,,,,,,
,61736ce99f9d835fe9eb692a,627c6f567b3813347a8a8a11,2022-05-12_04h24.44.280,classification_task,2021.2.3,Win32,60.33910577,627c6715c52fd12f31907bd0,,,,,,,,,,,,,,,,,,,,,,,a,1,"[""0.190"",""0.628"",""0.870"",""0.939""]","[1,0,1,1]",0,30,30,30,1,0,0,,,1,FALSE,1.3079,,,,,,,,,,,,,,,,,,,,,,,,,,,,,,,
,61736ce99f9d835fe9eb692a,627c6f567b3813347a8a8a11,2022-05-12_04h24.44.280,classification_task,2021.2.3,Win32,60.33910577,627c6715c52fd12f31907bd0,,,,,,,,,,,,,,,,,,,,,,,l,1,"[""0.117"",""0.419"",""0.522"",""0.077""]","[1,1,1,0]",0,31,31,31,1,1,1,,,1,FALSE,1.2762,,,,,,,,,,,,,,,,,,,,,,,,,,,,,,,
,61736ce99f9d835fe9eb692a,627c6f567b3813347a8a8a11,2022-05-12_04h24.44.280,classification_task,2021.2.3,Win32,60.33910577,627c6715c52fd12f31907bd0,,,,,,,,,,,,,,,,,,,,,,,l,1,"[""0.117"",""0.419"",""0.522"",""0.627""]","[1,1,1,0]",0,32,32,32,1,1,1,,,1,FALSE,0.9624,,,,,,,,,,,,,,,,,,,,,,,,,,,,,,,
,61736ce99f9d835fe9eb692a,627c6f567b3813347a8a8a11,2022-05-12_04h24.44.280,classification_task,2021.2.3,Win32,60.33910577,627c6715c52fd12f31907bd0,,,,,,,,,,,,,,,,,,,,,,,a,1,"[""0.238"",""0.792"",""0.663"",""0.975""]","[1,0,1,1]",0,33,33,33,1,0,1,,,1,FALSE,0.7914,,,,,,,,,,,,,,,,,,,,,,,,,,,,,,,
,61736ce99f9d835fe9eb692a,627c6f567b3813347a8a8a11,2022-05-12_04h24.44.280,classification_task,2021.2.3,Win32,60.33910577,627c6715c52fd12f31907bd0,,,,,,,,,,,,,,,,,,,,,,,a,1,"[""0.190"",""0.460"",""0.870"",""0.080""]","[1,1,1,0]",0,34,34,34,1,0,0,,,1,FALSE,0.9469,,,,,,,,,,,,,,,,,,,,,,,,,,,,,,,
,61736ce99f9d835fe9eb692a,627c6f567b3813347a8a8a11,2022-05-12_04h24.44.280,classification_task,2021.2.3,Win32,60.33910577,627c6715c52fd12f31907bd0,,,,,,,,,,,,,,,,,,,,,,,a,1,"[""0.617"",""0.352"",""0.663"",""0.975""]","[0,1,1,1]",0,35,35,35,1,0,1,,,1,FALSE,1.4125,,,,,,,,,,,,,,,,,,,,,,,,,,,,,,,
,61736ce99f9d835fe9eb692a,627c6f567b3813347a8a8a11,2022-05-12_04h24.44.280,classification_task,2021.2.3,Win32,60.33910577,627c6715c52fd12f31907bd0,,,,,,,,,,,,,,,,,,,,,,,l,1,"[""0.073"",""0.290"",""0.572"",""0.836""]","[0,1,1,1]",0,36,36,36,1,1,0,,,1,FALSE,1.1273,,,,,,,,,,,,,,,,,,,,,,,,,,,,,,,
,61736ce99f9d835fe9eb692a,627c6f567b3813347a8a8a11,2022-05-12_04h24.44.280,classification_task,2021.2.3,Win32,60.33910577,627c6715c52fd12f31907bd0,,,,,,,,,,,,,,,,,,,,,,,a,1,"[""0.696"",""0.460"",""0.870"",""0.939""]","[0,1,1,1]",0,37,37,37,1,0,0,,,1,FALSE,0.6197,,,,,,,,,,,,,,,,,,,,,,,,,,,,,,,
,61736ce99f9d835fe9eb692a,627c6f567b3813347a8a8a11,2022-05-12_04h24.44.280,classification_task,2021.2.3,Win32,60.33910577,627c6715c52fd12f31907bd0,,,,,,,,,,,,,,,,,,,,,,,l,1,"[""0.033"",""0.290"",""0.795"",""0.836""]","[1,1,0,1]",0,38,38,38,1,1,0,,,1,FALSE,0.9422,,,,,,,,,,,,,,,,,,,,,,,,,,,,,,,
,61736ce99f9d835fe9eb692a,627c6f567b3813347a8a8a11,2022-05-12_04h24.44.280,classification_task,2021.2.3,Win32,60.33910577,627c6715c52fd12f31907bd0,,,,,,,,,,,,,,,,,,,,,,,l,0,"[""0.190"",""0.460"",""0.068"",""0.939""]","[1,1,0,1]",0,39,39,39,1,0,0,,,1,FALSE,2.8405,,,,,,,,,,,,,,,,,,,,,,,,,,,,,,,
,61736ce99f9d835fe9eb692a,627c6f567b3813347a8a8a11,2022-05-12_04h24.44.280,classification_task,2021.2.3,Win32,60.33910577,627c6715c52fd12f31907bd0,,,,,,,,,,,,,,,,,,,,,,,l,1,"[""0.705"",""0.419"",""0.522"",""0.751""]","[0,1,1,1]",0,40,40,40,1,1,1,,,1,FALSE,2.2745,,,,,,,,,,,,,,,,,,,,,,,,,,,,,,,
,61736ce99f9d835fe9eb692a,627c6f567b3813347a8a8a11,2022-05-12_04h24.44.280,classification_task,2021.2.3,Win32,60.33910577,627c6715c52fd12f31907bd0,,,,,,,,,,,,,,,,,,,,,,,a,0,"[""0.033"",""0.791"",""0.572"",""0.836""]","[1,0,1,1]",0,41,41,41,1,1,0,,,1,FALSE,1.5182,,,,,,,,,,,,,,,,,,,,,,,,,,,,,,,
,61736ce99f9d835fe9eb692a,627c6f567b3813347a8a8a11,2022-05-12_04h24.44.280,classification_task,2021.2.3,Win32,60.33910577,627c6715c52fd12f31907bd0,,,,,,,,,,,,,,,,,,,,,,,l,1,"[""0.117"",""0.419"",""0.696"",""0.751""]","[1,1,0,1]",0,42,42,42,1,1,1,,,1,FALSE,1.0595,,,,,,,,,,,,,,,,,,,,,,,,,,,,,,,
,61736ce99f9d835fe9eb692a,627c6f567b3813347a8a8a11,2022-05-12_04h24.44.280,classification_task,2021.2.3,Win32,60.33910577,627c6715c52fd12f31907bd0,,,,,,,,,,,,,,,,,,,,,,,a,1,"[""0.238"",""0.352"",""0.617"",""0.975""]","[1,1,0,1]",0,43,43,43,1,0,1,,,1,FALSE,1.2118,,,,,,,,,,,,,,,,,,,,,,,,,,,,,,,
,61736ce99f9d835fe9eb692a,627c6f567b3813347a8a8a11,2022-05-12_04h24.44.280,classification_task,2021.2.3,Win32,60.33910577,627c6715c52fd12f31907bd0,,,,,,,,,,,,,,,,,,,,,,,l,0,"[""0.190"",""0.083"",""0.870"",""0.939""]","[1,0,1,1]",0,44,44,44,1,0,0,,,1,FALSE,2.3241,,,,,,,,,,,,,,,,,,,,,,,,,,,,,,,
,61736ce99f9d835fe9eb692a,627c6f567b3813347a8a8a11,2022-05-12_04h24.44.280,classification_task,2021.2.3,Win32,60.33910577,627c6715c52fd12f31907bd0,,,,,,,,,,,,,,,,,,,,,,,l,1,"[""0.033"",""0.290"",""0.572"",""0.077""]","[1,1,1,0]",0,45,45,45,1,1,0,,,1,FALSE,0.975,,,,,,,,,,,,,,,,,,,,,,,,,,,,,,,
,61736ce99f9d835fe9eb692a,627c6f567b3813347a8a8a11,2022-05-12_04h24.44.280,classification_task,2021.2.3,Win32,60.33910577,627c6715c52fd12f31907bd0,,,,,,,,,,,,,,,,,,,,,,,l,1,"[""0.117"",""0.077"",""0.522"",""0.751""]","[1,0,1,1]",0,46,46,46,1,1,1,,,1,FALSE,1.2605,,,,,,,,,,,,,,,,,,,,,,,,,,,,,,,
,61736ce99f9d835fe9eb692a,627c6f567b3813347a8a8a11,2022-05-12_04h24.44.280,classification_task,2021.2.3,Win32,60.33910577,627c6715c52fd12f31907bd0,,,,,,,,,,,,,,,,,,,,,,,a,1,"[""0.238"",""0.352"",""0.663"",""0.791""]","[1,1,1,0]",0,47,47,47,1,0,1,,,1,FALSE,1.0179,,,,,,,,,,,,,,,,,,,,,,,,,,,,,,,
,61736ce99f9d835fe9eb692a,627c6f567b3813347a8a8a11,2022-05-12_04h24.44.280,classification_task,2021.2.3,Win32,60.33910577,627c6715c52fd12f31907bd0,,,,,,,,,,,,,,,,,,,,,,,a,1,"[""0.190"",""0.791"",""0.870"",""0.939""]","[1,0,1,1]",0,48,48,48,1,0,0,,,1,FALSE,1.1772,,,,,,,,,,,,,,,,,,,,,,,,,,,,,,,
,61736ce99f9d835fe9eb692a,627c6f567b3813347a8a8a11,2022-05-12_04h24.44.280,classification_task,2021.2.3,Win32,60.33910577,627c6715c52fd12f31907bd0,,,,,,,,,,,,,,,,,,,,,,,l,1,"[""0.117"",""0.419"",""0.522"",""0.713""]","[1,1,1,0]",0,49,49,49,1,1,1,,,1,FALSE,1.0447,,,,,,,,,,,,,,,,,,,,,,,,,,,,,,,
,61736ce99f9d835fe9eb692a,627c6f567b3813347a8a8a11,2022-05-12_04h24.44.280,classification_task,2021.2.3,Win32,60.33910577,627c6715c52fd12f31907bd0,,,,,,,,,,,,,,,,,,,,,,,l,1,"[""0.033"",""0.290"",""0.572"",""0.791""]","[1,1,1,0]",0,50,50,50,1,1,0,,,1,FALSE,1.6366,,,,,,,,,,,,,,,,,,,,,,,,,,,,,,,
,61736ce99f9d835fe9eb692a,627c6f567b3813347a8a8a11,2022-05-12_04h24.44.280,classification_task,2021.2.3,Win32,60.33910577,627c6715c52fd12f31907bd0,,,,,,,,,,,,,,,,,,,,,,,l,0,"[""0.238"",""0.077"",""0.663"",""0.975""]","[1,0,1,1]",0,51,51,51,1,0,1,,,1,FALSE,1.9966,,,,,,,,,,,,,,,,,,,,,,,,,,,,,,,
,61736ce99f9d835fe9eb692a,627c6f567b3813347a8a8a11,2022-05-12_04h24.44.280,classification_task,2021.2.3,Win32,60.33910577,627c6715c52fd12f31907bd0,,,,,,,,,,,,,,,,,,,,,,,a,0,"[""0.033"",""0.791"",""0.572"",""0.836""]","[1,0,1,1]",0,52,52,52,1,1,0,,,1,FALSE,1.4185,,,,,,,,,,,,,,,,,,,,,,,,,,,,,,,
,61736ce99f9d835fe9eb692a,627c6f567b3813347a8a8a11,2022-05-12_04h24.44.280,classification_task,2021.2.3,Win32,60.33910577,627c6715c52fd12f31907bd0,,,,,,,,,,,,,,,,,,,,,,,a,0,"[""0.792"",""0.290"",""0.572"",""0.836""]","[0,1,1,1]",0,53,53,53,1,1,0,,,1,FALSE,0.7831,,,,,,,,,,,,,,,,,,,,,,,,,,,,,,,
,61736ce99f9d835fe9eb692a,627c6f567b3813347a8a8a11,2022-05-12_04h24.44.280,classification_task,2021.2.3,Win32,60.33910577,627c6715c52fd12f31907bd0,,,,,,,,,,,,,,,,,,,,,,,l,0,"[""0.077"",""0.460"",""0.870"",""0.939""]","[0,1,1,1]",0,54,54,54,1,0,0,,,1,FALSE,1.3305,,,,,,,,,,,,,,,,,,,,,,,,,,,,,,,
,61736ce99f9d835fe9eb692a,627c6f567b3813347a8a8a11,2022-05-12_04h24.44.280,classification_task,2021.2.3,Win32,60.33910577,627c6715c52fd12f31907bd0,,,,,,,,,,,,,,,,,,,,,,,l,0,"[""0.238"",""0.352"",""0.663"",""0.080""]","[1,1,1,0]",0,55,55,55,1,0,1,,,1,FALSE,1.4258,,,,,,,,,,,,,,,,,,,,,,,,,,,,,,,
,61736ce99f9d835fe9eb692a,627c6f567b3813347a8a8a11,2022-05-12_04h24.44.280,classification_task,2021.2.3,Win32,60.33910577,627c6715c52fd12f31907bd0,,,,,,,,,,,,,,,,,,,,,,,a,0,"[""0.117"",""0.419"",""0.628"",""0.751""]","[1,1,0,1]",0,56,56,56,1,1,1,,,1,FALSE,0.8556,,,,,,,,,,,,,,,,,,,,,,,,,,,,,,,
,61736ce99f9d835fe9eb692a,627c6f567b3813347a8a8a11,2022-05-12_04h24.44.280,classification_task,2021.2.3,Win32,60.33910577,627c6715c52fd12f31907bd0,,,,,,,,,,,,,,,,,,,,,,,l,0,"[""0.190"",""0.460"",""0.870"",""0.073""]","[1,1,1,0]",0,57,57,57,1,0,0,,,1,FALSE,1.0123,,,,,,,,,,,,,,,,,,,,,,,,,,,,,,,
,61736ce99f9d835fe9eb692a,627c6f567b3813347a8a8a11,2022-05-12_04h24.44.280,classification_task,2021.2.3,Win32,60.33910577,627c6715c52fd12f31907bd0,,,,,,,,,,,,,,,,,,,,,,,l,1,"[""0.033"",""0.290"",""0.077"",""0.836""]","[1,1,0,1]",0,58,58,58,1,1,0,,,1,FALSE,0.813,,,,,,,,,,,,,,,,,,,,,,,,,,,,,,,
,61736ce99f9d835fe9eb692a,627c6f567b3813347a8a8a11,2022-05-12_04h24.44.280,classification_task,2021.2.3,Win32,60.33910577,627c6715c52fd12f31907bd0,,,,,,,,,,,,,,,,,,,,,,,a,1,"[""0.190"",""0.460"",""0.628"",""0.939""]","[1,1,0,1]",0,59,59,59,1,0,0,,,1,FALSE,0.9788,,,,,,,,,,,,,,,,,,,,,,,,,,,,,,,
,61736ce99f9d835fe9eb692a,627c6f567b3813347a8a8a11,2022-05-12_04h24.44.280,classification_task,2021.2.3,Win32,60.33910577,627c6715c52fd12f31907bd0,,,,,,,,,,,,,,,,,,,,,,,l,1,"[""0.117"",""0.083"",""0.522"",""0.751""]","[1,0,1,1]",0,60,60,60,1,1,1,,,1,FALSE,1.0789,,,,,,,,,,,,,,,,,,,,,,,,,,,,,,,
,61736ce99f9d835fe9eb692a,627c6f567b3813347a8a8a11,2022-05-12_04h24.44.280,classification_task,2021.2.3,Win32,60.33910577,627c6715c52fd12f31907bd0,,,,,,,,,,,,,,,,,,,,,,,a,0,"[""0.795"",""0.419"",""0.522"",""0.751""]","[0,1,1,1]",0,61,61,61,1,1,1,,,1,FALSE,1.5273,,,,,,,,,,,,,,,,,,,,,,,,,,,,,,,
,61736ce99f9d835fe9eb692a,627c6f567b3813347a8a8a11,2022-05-12_04h24.44.280,classification_task,2021.2.3,Win32,60.33910577,627c6715c52fd12f31907bd0,,,,,,,,,,,,,,,,,,,,,,,a,1,"[""0.713"",""0.352"",""0.663"",""0.975""]","[0,1,1,1]",0,62,62,62,1,0,1,,,1,FALSE,1.2499,,,,,,,,,,,,,,,,,,,,,,,,,,,,,,,
,61736ce99f9d835fe9eb692a,627c6f567b3813347a8a8a11,2022-05-12_04h24.44.280,classification_task,2021.2.3,Win32,60.33910577,627c6715c52fd12f31907bd0,,,,,,,,,,,,,,,,,,,,,,,a,1,"[""0.238"",""0.352"",""0.708"",""0.975""]","[1,1,0,1]",0,63,63,63,1,0,1,,,1,FALSE,0.9963,,,,,,,,,,,,,,,,,,,,,,,,,,,,,,,
,61736ce99f9d835fe9eb692a,627c6f567b3813347a8a8a11,2022-05-12_04h24.44.280,classification_task,2021.2.3,Win32,60.33910577,627c6715c52fd12f31907bd0,,,,,,,,,,,,,,,,,,,,,,,,,,,,,,,,,,,,,,,0, ,,0,1.007252132,193.4833,0,2,2,2,1,2,3,,,,,,,,,,,,,,,,,,
,61736ce99f9d835fe9eb692a,627c6f567b3813347a8a8a11,2022-05-12_04h24.44.280,classification_task,2021.2.3,Win32,60.33910577,627c6715c52fd12f31907bd0,,,,,,,,,,,,,,,,,,,,,,,,,,,,,,,,,,,,,,,1,  ,,0,7.669998788,194.7157,0,2,2,2,1,2,3,,,,,,,,,,,,,,,,,,
,61736ce99f9d835fe9eb692a,627c6f567b3813347a8a8a11,2022-05-12_04h24.44.280,classification_task,2021.2.3,Win32,60.33910577,627c6715c52fd12f31907bd0,,,,,,,,,,,,,,,,,,,,,,,,,,,,,,,,,,,,,,,2,  ,,0,8.698805372,197.0308,0,2,2,2,1,2,3,,,,,,,,,,,,,,,,,,
,61736ce99f9d835fe9eb692a,627c6f567b3813347a8a8a11,2022-05-12_04h24.44.280,classification_task,2021.2.3,Win32,60.33910577,627c6715c52fd12f31907bd0,,,,,,,,,,,,,,,,,,,,,,,,,,,,,,,,,,,,,,,,,,,,,0,2,2,2,1,,3,,,,,,,,,,,,,,,,,,
,61736ce99f9d835fe9eb692a,627c6f567b3813347a8a8a11,2022-05-12_04h24.44.280,classification_task,2021.2.3,Win32,60.33910577,627c6715c52fd12f31907bd0,,,,,,,,,,,,,,,,,,,,,,,,,,,,,,,,,,,,,,,,,,,,,,,,,,,,,I believe the aid is a competent performer,,0.7,0,4,1065.7803,0,0,0,0,1,0,,,,,
,61736ce99f9d835fe9eb692a,627c6f567b3813347a8a8a11,2022-05-12_04h24.44.280,classification_task,2021.2.3,Win32,60.33910577,627c6715c52fd12f31907bd0,,,,,,,,,,,,,,,,,,,,,,,,,,,,,,,,,,,,,,,,,,,,,,,,,,,,,I trust the aid,,0.7,0,4,992.5916,0,0,0,0,1,0,,,,,
,61736ce99f9d835fe9eb692a,627c6f567b3813347a8a8a11,2022-05-12_04h24.44.280,classification_task,2021.2.3,Win32,60.33910577,627c6715c52fd12f31907bd0,,,,,,,,,,,,,,,,,,,,,,,,,,,,,,,,,,,,,,,,,,,,,,,,,,,,,I have confidence in the advice given by the aid,,0.7,0,4,1002.6395,0,0,0,0,1,0,,,,,
,61736ce99f9d835fe9eb692a,627c6f567b3813347a8a8a11,2022-05-12_04h24.44.280,classification_task,2021.2.3,Win32,60.33910577,627c6715c52fd12f31907bd0,,,,,,,,,,,,,,,,,,,,,,,,,,,,,,,,,,,,,,,,,,,,,,,,,,,,,I can depend on the aid,,0.7,0,4,1001.9185,0,0,0,0,1,0,,,,,
,61736ce99f9d835fe9eb692a,627c6f567b3813347a8a8a11,2022-05-12_04h24.44.280,classification_task,2021.2.3,Win32,60.33910577,627c6715c52fd12f31907bd0,,,,,,,,,,,,,,,,,,,,,,,,,,,,,,,,,,,,,,,,,,,,,,,,,,,,,I can rely on the aid to behave in consistent ways,,0.7,0,5,1075.5206,0,0,0,0,1,0,,,,,
,61736ce99f9d835fe9eb692a,627c6f567b3813347a8a8a11,2022-05-12_04h24.44.280,classification_task,2021.2.3,Win32,60.33910577,627c6715c52fd12f31907bd0,,,,,,,,,,,,,,,,,,,,,,,,,,,,,,,,,,,,,,,,,,,,,,,,,,,,,I can rely on the aid to do its best every time I take its advice,,0.7,0,5,1078.1734,0,0,0,0,1,0,,,,,
,61736ce99f9d835fe9eb692a,627c6f567b3813347a8a8a11,2022-05-12_04h24.44.280,classification_task,2021.2.3,Win32,60.33910577,627c6715c52fd12f31907bd0,,,,,,,,,,,,,,,,,,,,,,,,,,,,,,,,,,,,,,,,,,,,,,,,,,,,,"On trials you completed with assistance from the aid, how frequently did you think the aid was correct?",,0.7,0,100,,0,0,0,0,1,0,,,,,
,61736ce99f9d835fe9eb692a,627c6f567b3813347a8a8a11,2022-05-12_04h24.44.280,classification_task,2021.2.3,Win32,60.33910577,627c6715c52fd12f31907bd0,,,,,,,,,,,,,,,,,,,,,,,,,,,,,,,,,,,,,,,,,,,,,,,,,,,,,"On trials you completed without the aid, how frequently did you think you were correct?",,0.7,0,20,,0,0,0,0,1,0,,,,,
,61736ce99f9d835fe9eb692a,627c6f567b3813347a8a8a11,2022-05-12_04h24.44.280,classification_task,2021.2.3,Win32,60.33910577,627c6715c52fd12f31907bd0,,,,,,,,,,,,,,,,,,,,,,,,,,,,,,,,,,,,,,,,,,,,,,,,,,,,,,,,,,,0,0,0,0,1,,,,,,
,61736ce99f9d835fe9eb692a,627c6f567b3813347a8a8a11,2022-05-12_04h24.44.280,classification_task,2021.2.3,Win32,60.33910577,627c6715c52fd12f31907bd0,,,,,,,,,,,,,,,,,,,,,,,,,,,,,,,,,,,,,,,,,,,,,,,,,,,,,,,,,,,,,,,,,space,15.4247,1095.3229,,
,61736ce99f9d835fe9eb692a,627c6f567b3813347a8a8a11,2022-05-12_04h24.44.280,classification_task,2021.2.3,Win32,60.33910577,627c6715c52fd12f31907bd0,,,,,,,,,,,,,,,,,,,,,,,,,,,,,,,,,,,,,,,,,,,,,,,,,,,,,,,,,,,,,,,,,,,,"Mozilla/5.0 (Windows NT 10.0; Win64; x64) AppleWebKit/537.36 (KHTML, like Gecko) Chrome/99.0.4844.84 Safari/537.36 OPR/85.0.4341.75",
,61736ce99f9d835fe9eb692a,627c6f567b3813347a8a8a11,2022-05-12_04h24.44.280,classification_task,2021.2.3,Win32,60.33910577,627c6715c52fd12f31907bd0,,,,,,,,,,,,,,,,,,,,,,,,,,,,,,,,,,,,,,,,,,,,,,,,,,,,,,,,,,,,,,,,,,,,,FADING
