usingWebGL,participant,session,date,expName,psychopyVersion,OS,frameRate,study_id,signatures_friend,signatures_foe,band_ranges_top,band_ranges_bottom,formitemText,formtype,formundefined,formitemWidth,formindex,formresponse,formrt,key_resp_2.keys,key_resp_2.rt,tute_resp.keys,tute_resp.rt,tutorial.thisRepN,tutorial.thisTrialN,tutorial.thisN,tutorial.thisIndex,tutorial.ran,key_resp_4.keys,key_resp_4.rt,key_resp.keys,key_resp.corr,lines_presented,is_signal_presented,trials.thisRepN,trials.thisTrialN,trials.thisN,trials.thisIndex,trials.ran,vessel,active_band,lines,is_signal,supported_pos,catch_trial,key_resp.rt,debrief_formindex,debrief_formitemText,debrief_formtype,debrief_formitemWidth,debrief_formresponse,debrief_formrt,phases.thisRepN,phases.thisTrialN,phases.thisN,phases.thisIndex,phases.ran,phases.order,phase,key_resp_3.keys,trustitemText,trusttype,trustitemWidth,trustindex,trustresponse,trustrt,support_status.thisRepN,support_status.thisTrialN,support_status.thisN,support_status.thisIndex,support_status.ran,support_status.order,key_resp_5.keys,key_resp_5.rt,globalClockTime,userAgent,manualCondition
TRUE,61734e733cc29eb67f354f82,627c703abe43ac8ecac5d737,2022-05-11_21h26.35.405,classification_task,2021.2.3,Win32,59.99160118,627c6715c52fd12f31907bd0,,,,,,,,,,,,,,,,,,,,,,,,,,,,,,,,,,,,,,,,,,,,,,,,,,,,,,,,,,,,,,,,,,,,,
,61734e733cc29eb67f354f82,627c703abe43ac8ecac5d737,2022-05-11_21h26.35.405,classification_task,2021.2.3,Win32,59.99160118,627c6715c52fd12f31907bd0,"[[""0.278"",""0.554"",""0.700"",""0.941""],[""0.167"",""0.357"",""0.852"",""0.888""]]","[[""0.039"",""0.074"",""0.647"",""0.819""],[""0.120"",""0.319"",""0.476"",""0.739""]]","[1,10]","[100,1000]",Video game experience,,,0.7,0,,,,,,,,,,,,,,,,,,,,,,,,,,,,,,,,,,,,,,,,,,,,,,,,,,,,,,,,,,,,
,61734e733cc29eb67f354f82,627c703abe43ac8ecac5d737,2022-05-11_21h26.35.405,classification_task,2021.2.3,Win32,59.99160118,627c6715c52fd12f31907bd0,,,,,Approximately how many hours did you spend playing video games in the last week?,,,0.7,0,1 hour,,,,,,,,,,,,,,,,,,,,,,,,,,,,,,,,,,,,,,,,,,,,,,,,,,,,,,,,,,,
,61734e733cc29eb67f354f82,627c703abe43ac8ecac5d737,2022-05-11_21h26.35.405,classification_task,2021.2.3,Win32,59.99160118,627c6715c52fd12f31907bd0,,,,,"Which game did you play the most this year? (Enter ""None"" if you didn't play any)",,,0.7,0,none,,,,,,,,,,,,,,,,,,,,,,,,,,,,,,,,,,,,,,,,,,,,,,,,,,,,,,,,,,,
,61734e733cc29eb67f354f82,627c703abe43ac8ecac5d737,2022-05-11_21h26.35.405,classification_task,2021.2.3,Win32,59.99160118,627c6715c52fd12f31907bd0,,,,,Visual perception,,,0.7,0,,,,,,,,,,,,,,,,,,,,,,,,,,,,,,,,,,,,,,,,,,,,,,,,,,,,,,,,,,,,
,61734e733cc29eb67f354f82,627c703abe43ac8ecac5d737,2022-05-11_21h26.35.405,classification_task,2021.2.3,Win32,59.99160118,627c6715c52fd12f31907bd0,,,,,Do you have any form of color blindness?,,,0.7,0,No,99.2916,,,,,,,,,,,,,,,,,,,,,,,,,,,,,,,,,,,,,,,,,,,,,,,,,,,,,,,,,,
,61734e733cc29eb67f354f82,627c703abe43ac8ecac5d737,2022-05-11_21h26.35.405,classification_task,2021.2.3,Win32,59.99160118,627c6715c52fd12f31907bd0,,,,,Do you use software to change the colour temperature of your screen (e.g. f.lux)?,,,0.7,0,No,102.9511,,,,,,,,,,,,,,,,,,,,,,,,,,,,,,,,,,,,,,,,,,,,,,,,,,,,,,,,,,
,61734e733cc29eb67f354f82,627c703abe43ac8ecac5d737,2022-05-11_21h26.35.405,classification_task,2021.2.3,Win32,59.99160118,627c6715c52fd12f31907bd0,,,,,,,,,,,,space,37.0143,space,15.5813,0,0,0,0,1,,,,,,,,,,,,,,,,,,,,,,,,,,,,,,,,,,,,,,,,,,,,,,,,,
,61734e733cc29eb67f354f82,627c703abe43ac8ecac5d737,2022-05-11_21h26.35.405,classification_task,2021.2.3,Win32,59.99160118,627c6715c52fd12f31907bd0,,,,,,,,,,,,,,space,10.9988,1,0,1,0,1,,,,,,,,,,,,,,,,,,,,,,,,,,,,,,,,,,,,,,,,,,,,,,,,,
,61734e733cc29eb67f354f82,627c703abe43ac8ecac5d737,2022-05-11_21h26.35.405,classification_task,2021.2.3,Win32,59.99160118,627c6715c52fd12f31907bd0,,,,,,,,,,,,,,space,63.5657,2,0,2,0,1,,,,,,,,,,,,,,,,,,,,,,,,,,,,,,,,,,,,,,,,,,,,,,,,,
,61734e733cc29eb67f354f82,627c703abe43ac8ecac5d737,2022-05-11_21h26.35.405,classification_task,2021.2.3,Win32,59.99160118,627c6715c52fd12f31907bd0,,,,,,,,,,,,,,space,27.9165,3,0,3,0,1,,,,,,,,,,,,,,,,,,,,,,,,,,,,,,,,,,,,,,,,,,,,,,,,,
,61734e733cc29eb67f354f82,627c703abe43ac8ecac5d737,2022-05-11_21h26.35.405,classification_task,2021.2.3,Win32,59.99160118,627c6715c52fd12f31907bd0,,,,,,,,,,,,,,space,18.1295,4,0,4,0,1,,,,,,,,,,,,,,,,,,,,,,,,,,,,,,,,,,,,,,,,,,,,,,,,,
,61734e733cc29eb67f354f82,627c703abe43ac8ecac5d737,2022-05-11_21h26.35.405,classification_task,2021.2.3,Win32,59.99160118,627c6715c52fd12f31907bd0,,,,,,,,,,,,,,,,,,,,,space,9.4848,,0,"[""0.407"",""0.074"",""0.647"",""0.819""]","[0,1,1,1]",0,0,0,0,1,1,0,,,0,FALSE,,,,,,,,,,,,,,,,,,,,,,,,,,,,,,,,
,61734e733cc29eb67f354f82,627c703abe43ac8ecac5d737,2022-05-11_21h26.35.405,classification_task,2021.2.3,Win32,59.99160118,627c6715c52fd12f31907bd0,,,,,,,,,,,,,,,,,,,,,,,l,1,"[""0.120"",""0.319"",""0.476"",""0.519""]","[1,1,1,0]",0,1,1,1,1,1,1,,,0,FALSE,7.3336,,,,,,,,,,,,,,,,,,,,,,,,,,,,,,,
,61734e733cc29eb67f354f82,627c703abe43ac8ecac5d737,2022-05-11_21h26.35.405,classification_task,2021.2.3,Win32,59.99160118,627c6715c52fd12f31907bd0,,,,,,,,,,,,,,,,,,,,,,,a,1,"[""0.278"",""0.554"",""0.775"",""0.941""]","[1,1,0,1]",0,2,2,2,1,0,0,,,0,FALSE,4.5092,,,,,,,,,,,,,,,,,,,,,,,,,,,,,,,
,61734e733cc29eb67f354f82,627c703abe43ac8ecac5d737,2022-05-11_21h26.35.405,classification_task,2021.2.3,Win32,59.99160118,627c6715c52fd12f31907bd0,,,,,,,,,,,,,,,,,,,,,,,a,1,"[""0.240"",""0.554"",""0.700"",""0.941""]","[0,1,1,1]",0,3,3,3,1,0,0,,,0,FALSE,3.6365,,,,,,,,,,,,,,,,,,,,,,,,,,,,,,,
,61734e733cc29eb67f354f82,627c703abe43ac8ecac5d737,2022-05-11_21h26.35.405,classification_task,2021.2.3,Win32,59.99160118,627c6715c52fd12f31907bd0,,,,,,,,,,,,,,,,,,,,,,,a,1,"[""0.278"",""0.226"",""0.700"",""0.941""]","[1,0,1,1]",0,4,4,4,1,0,0,,,0,FALSE,3.203,,,,,,,,,,,,,,,,,,,,,,,,,,,,,,,
,61734e733cc29eb67f354f82,627c703abe43ac8ecac5d737,2022-05-11_21h26.35.405,classification_task,2021.2.3,Win32,59.99160118,627c6715c52fd12f31907bd0,,,,,,,,,,,,,,,,,,,,,,,a,1,"[""0.167"",""0.782"",""0.852"",""0.888""]","[1,0,1,1]",0,5,5,5,1,0,1,,,0,FALSE,3.1093,,,,,,,,,,,,,,,,,,,,,,,,,,,,,,,
,61734e733cc29eb67f354f82,627c703abe43ac8ecac5d737,2022-05-11_21h26.35.405,classification_task,2021.2.3,Win32,59.99160118,627c6715c52fd12f31907bd0,,,,,,,,,,,,,,,,,,,,,,,a,0,"[""0.120"",""0.407"",""0.476"",""0.739""]","[1,0,1,1]",0,6,6,6,1,1,1,,,0,FALSE,4.5648,,,,,,,,,,,,,,,,,,,,,,,,,,,,,,,
,61734e733cc29eb67f354f82,627c703abe43ac8ecac5d737,2022-05-11_21h26.35.405,classification_task,2021.2.3,Win32,59.99160118,627c6715c52fd12f31907bd0,,,,,,,,,,,,,,,,,,,,,,,l,1,"[""0.039"",""0.074"",""0.407"",""0.819""]","[1,1,0,1]",0,7,7,7,1,1,0,,,0,FALSE,4.2159,,,,,,,,,,,,,,,,,,,,,,,,,,,,,,,
,61734e733cc29eb67f354f82,627c703abe43ac8ecac5d737,2022-05-11_21h26.35.405,classification_task,2021.2.3,Win32,59.99160118,627c6715c52fd12f31907bd0,,,,,,,,,,,,,,,,,,,,,,,a,1,"[""0.167"",""0.357"",""0.852"",""0.512""]","[1,1,1,0]",0,8,8,8,1,0,1,,,0,FALSE,4.739,,,,,,,,,,,,,,,,,,,,,,,,,,,,,,,
,61734e733cc29eb67f354f82,627c703abe43ac8ecac5d737,2022-05-11_21h26.35.405,classification_task,2021.2.3,Win32,59.99160118,627c6715c52fd12f31907bd0,,,,,,,,,,,,,,,,,,,,,,,a,0,"[""0.039"",""0.074"",""0.647"",""0.514""]","[1,1,1,0]",0,9,9,9,1,1,0,,,0,FALSE,7.3835,,,,,,,,,,,,,,,,,,,,,,,,,,,,,,,
,61734e733cc29eb67f354f82,627c703abe43ac8ecac5d737,2022-05-11_21h26.35.405,classification_task,2021.2.3,Win32,59.99160118,627c6715c52fd12f31907bd0,,,,,,,,,,,,,,,,,,,,,,,l,1,"[""0.039"",""0.782"",""0.647"",""0.819""]","[1,0,1,1]",0,10,10,10,1,1,0,,,0,FALSE,3.7718,,,,,,,,,,,,,,,,,,,,,,,,,,,,,,,
,61734e733cc29eb67f354f82,627c703abe43ac8ecac5d737,2022-05-11_21h26.35.405,classification_task,2021.2.3,Win32,59.99160118,627c6715c52fd12f31907bd0,,,,,,,,,,,,,,,,,,,,,,,l,1,"[""0.120"",""0.319"",""0.242"",""0.739""]","[1,1,0,1]",0,11,11,11,1,1,1,,,0,FALSE,3.4138,,,,,,,,,,,,,,,,,,,,,,,,,,,,,,,
,61734e733cc29eb67f354f82,627c703abe43ac8ecac5d737,2022-05-11_21h26.35.405,classification_task,2021.2.3,Win32,59.99160118,627c6715c52fd12f31907bd0,,,,,,,,,,,,,,,,,,,,,,,l,1,"[""0.242"",""0.319"",""0.476"",""0.739""]","[0,1,1,1]",0,12,12,12,1,1,1,,,0,FALSE,2.5268,,,,,,,,,,,,,,,,,,,,,,,,,,,,,,,
,61734e733cc29eb67f354f82,627c703abe43ac8ecac5d737,2022-05-11_21h26.35.405,classification_task,2021.2.3,Win32,59.99160118,627c6715c52fd12f31907bd0,,,,,,,,,,,,,,,,,,,,,,,l,0,"[""0.278"",""0.554"",""0.700"",""0.226""]","[1,1,1,0]",0,13,13,13,1,0,0,,,0,FALSE,4.4055,,,,,,,,,,,,,,,,,,,,,,,,,,,,,,,
,61734e733cc29eb67f354f82,627c703abe43ac8ecac5d737,2022-05-11_21h26.35.405,classification_task,2021.2.3,Win32,59.99160118,627c6715c52fd12f31907bd0,,,,,,,,,,,,,,,,,,,,,,,a,1,"[""0.167"",""0.357"",""0.519"",""0.888""]","[1,1,0,1]",0,14,14,14,1,0,1,,,0,FALSE,4.2372,,,,,,,,,,,,,,,,,,,,,,,,,,,,,,,
,61734e733cc29eb67f354f82,627c703abe43ac8ecac5d737,2022-05-11_21h26.35.405,classification_task,2021.2.3,Win32,59.99160118,627c6715c52fd12f31907bd0,,,,,,,,,,,,,,,,,,,,,,,a,1,"[""0.407"",""0.357"",""0.852"",""0.888""]","[0,1,1,1]",0,15,15,15,1,0,1,,,0,FALSE,3.0662,,,,,,,,,,,,,,,,,,,,,,,,,,,,,,,
,61734e733cc29eb67f354f82,627c703abe43ac8ecac5d737,2022-05-11_21h26.35.405,classification_task,2021.2.3,Win32,59.99160118,627c6715c52fd12f31907bd0,,,,,,,,,,,,,,,,,,,,,,,l,1,"[""0.039"",""0.775"",""0.647"",""0.819""]","[1,0,1,1]",0,16,16,16,1,1,0,,,0,FALSE,3.4871,,,,,,,,,,,,,,,,,,,,,,,,,,,,,,,
,61734e733cc29eb67f354f82,627c703abe43ac8ecac5d737,2022-05-11_21h26.35.405,classification_task,2021.2.3,Win32,59.99160118,627c6715c52fd12f31907bd0,,,,,,,,,,,,,,,,,,,,,,,a,1,"[""0.782"",""0.554"",""0.700"",""0.941""]","[0,1,1,1]",0,17,17,17,1,0,0,,,0,FALSE,3.0043,,,,,,,,,,,,,,,,,,,,,,,,,,,,,,,
,61734e733cc29eb67f354f82,627c703abe43ac8ecac5d737,2022-05-11_21h26.35.405,classification_task,2021.2.3,Win32,59.99160118,627c6715c52fd12f31907bd0,,,,,,,,,,,,,,,,,,,,,,,l,1,"[""0.120"",""0.319"",""0.476"",""0.411""]","[1,1,1,0]",0,18,18,18,1,1,1,,,0,FALSE,5.7133,,,,,,,,,,,,,,,,,,,,,,,,,,,,,,,
,61734e733cc29eb67f354f82,627c703abe43ac8ecac5d737,2022-05-11_21h26.35.405,classification_task,2021.2.3,Win32,59.99160118,627c6715c52fd12f31907bd0,,,,,,,,,,,,,,,,,,,,,,,a,1,"[""0.278"",""0.554"",""0.242"",""0.941""]","[1,1,0,1]",0,19,19,19,1,0,0,,,0,FALSE,4.9167,,,,,,,,,,,,,,,,,,,,,,,,,,,,,,,
,61734e733cc29eb67f354f82,627c703abe43ac8ecac5d737,2022-05-11_21h26.35.405,classification_task,2021.2.3,Win32,59.99160118,627c6715c52fd12f31907bd0,,,,,,,,,,,,,,,,,,,,,,,a,1,"[""0.167"",""0.357"",""0.228"",""0.888""]","[1,1,0,1]",0,20,20,20,1,0,1,,,0,FALSE,1.9617,,,,,,,,,,,,,,,,,,,,,,,,,,,,,,,
,61734e733cc29eb67f354f82,627c703abe43ac8ecac5d737,2022-05-11_21h26.35.405,classification_task,2021.2.3,Win32,59.99160118,627c6715c52fd12f31907bd0,,,,,,,,,,,,,,,,,,,,,,,a,1,"[""0.167"",""0.357"",""0.852"",""0.429""]","[1,1,1,0]",0,21,21,21,1,0,1,,,0,FALSE,2.7721,,,,,,,,,,,,,,,,,,,,,,,,,,,,,,,
,61734e733cc29eb67f354f82,627c703abe43ac8ecac5d737,2022-05-11_21h26.35.405,classification_task,2021.2.3,Win32,59.99160118,627c6715c52fd12f31907bd0,,,,,,,,,,,,,,,,,,,,,,,l,1,"[""0.120"",""0.319"",""0.437"",""0.739""]","[1,1,0,1]",0,22,22,22,1,1,1,,,0,FALSE,3.0673,,,,,,,,,,,,,,,,,,,,,,,,,,,,,,,
,61734e733cc29eb67f354f82,627c703abe43ac8ecac5d737,2022-05-11_21h26.35.405,classification_task,2021.2.3,Win32,59.99160118,627c6715c52fd12f31907bd0,,,,,,,,,,,,,,,,,,,,,,,l,1,"[""0.039"",""0.074"",""0.647"",""0.782""]","[1,1,1,0]",0,23,23,23,1,1,0,,,0,FALSE,2.6215,,,,,,,,,,,,,,,,,,,,,,,,,,,,,,,
,61734e733cc29eb67f354f82,627c703abe43ac8ecac5d737,2022-05-11_21h26.35.405,classification_task,2021.2.3,Win32,59.99160118,627c6715c52fd12f31907bd0,,,,,,,,,,,,,,,,,,,,,,,a,1,"[""0.278"",""0.554"",""0.700"",""0.598""]","[1,1,1,0]",0,24,24,24,1,0,0,,,0,FALSE,2.9513,,,,,,,,,,,,,,,,,,,,,,,,,,,,,,,
,61734e733cc29eb67f354f82,627c703abe43ac8ecac5d737,2022-05-11_21h26.35.405,classification_task,2021.2.3,Win32,59.99160118,627c6715c52fd12f31907bd0,,,,,,,,,,,,,,,,,,,,,,,l,1,"[""0.120"",""0.411"",""0.476"",""0.739""]","[1,0,1,1]",0,25,25,25,1,1,1,,,0,FALSE,2.9973,,,,,,,,,,,,,,,,,,,,,,,,,,,,,,,
,61734e733cc29eb67f354f82,627c703abe43ac8ecac5d737,2022-05-11_21h26.35.405,classification_task,2021.2.3,Win32,59.99160118,627c6715c52fd12f31907bd0,,,,,,,,,,,,,,,,,,,,,,,a,1,"[""0.519"",""0.357"",""0.852"",""0.888""]","[0,1,1,1]",0,26,26,26,1,0,1,,,0,FALSE,1.9797,,,,,,,,,,,,,,,,,,,,,,,,,,,,,,,
,61734e733cc29eb67f354f82,627c703abe43ac8ecac5d737,2022-05-11_21h26.35.405,classification_task,2021.2.3,Win32,59.99160118,627c6715c52fd12f31907bd0,,,,,,,,,,,,,,,,,,,,,,,a,1,"[""0.278"",""0.519"",""0.700"",""0.941""]","[1,0,1,1]",0,27,27,27,1,0,0,,,0,FALSE,3.2183,,,,,,,,,,,,,,,,,,,,,,,,,,,,,,,
,61734e733cc29eb67f354f82,627c703abe43ac8ecac5d737,2022-05-11_21h26.35.405,classification_task,2021.2.3,Win32,59.99160118,627c6715c52fd12f31907bd0,,,,,,,,,,,,,,,,,,,,,,,l,1,"[""0.598"",""0.319"",""0.476"",""0.739""]","[0,1,1,1]",0,28,28,28,1,1,1,,,0,FALSE,3.4197,,,,,,,,,,,,,,,,,,,,,,,,,,,,,,,
,61734e733cc29eb67f354f82,627c703abe43ac8ecac5d737,2022-05-11_21h26.35.405,classification_task,2021.2.3,Win32,59.99160118,627c6715c52fd12f31907bd0,,,,,,,,,,,,,,,,,,,,,,,a,1,"[""0.167"",""0.429"",""0.852"",""0.888""]","[1,0,1,1]",0,29,29,29,1,0,1,,,0,FALSE,1.5303,,,,,,,,,,,,,,,,,,,,,,,,,,,,,,,
,61734e733cc29eb67f354f82,627c703abe43ac8ecac5d737,2022-05-11_21h26.35.405,classification_task,2021.2.3,Win32,59.99160118,627c6715c52fd12f31907bd0,,,,,,,,,,,,,,,,,,,,,,,l,1,"[""0.226"",""0.074"",""0.647"",""0.819""]","[0,1,1,1]",0,30,30,30,1,1,0,,,0,FALSE,2.7289,,,,,,,,,,,,,,,,,,,,,,,,,,,,,,,
,61734e733cc29eb67f354f82,627c703abe43ac8ecac5d737,2022-05-11_21h26.35.405,classification_task,2021.2.3,Win32,59.99160118,627c6715c52fd12f31907bd0,,,,,,,,,,,,,,,,,,,,,,,l,1,"[""0.039"",""0.074"",""0.407"",""0.819""]","[1,1,0,1]",0,31,31,31,1,1,0,,,0,FALSE,2.298,,,,,,,,,,,,,,,,,,,,,,,,,,,,,,,
,61734e733cc29eb67f354f82,627c703abe43ac8ecac5d737,2022-05-11_21h26.35.405,classification_task,2021.2.3,Win32,59.99160118,627c6715c52fd12f31907bd0,,,,,,,,,,,,,,,,,,,,,,,l,0,"[""0.167"",""0.423"",""0.852"",""0.888""]","[1,0,1,1]",0,32,32,32,1,0,1,,,0,FALSE,7.7935,,,,,,,,,,,,,,,,,,,,,,,,,,,,,,,
,61734e733cc29eb67f354f82,627c703abe43ac8ecac5d737,2022-05-11_21h26.35.405,classification_task,2021.2.3,Win32,59.99160118,627c6715c52fd12f31907bd0,,,,,,,,,,,,,,,,,,,,,,,a,0,"[""0.519"",""0.319"",""0.476"",""0.739""]","[0,1,1,1]",0,33,33,33,1,1,1,,,0,FALSE,4.8569,,,,,,,,,,,,,,,,,,,,,,,,,,,,,,,
,61734e733cc29eb67f354f82,627c703abe43ac8ecac5d737,2022-05-11_21h26.35.405,classification_task,2021.2.3,Win32,59.99160118,627c6715c52fd12f31907bd0,,,,,,,,,,,,,,,,,,,,,,,a,0,"[""0.242"",""0.074"",""0.647"",""0.819""]","[0,1,1,1]",0,34,34,34,1,1,0,,,0,FALSE,1.0746,,,,,,,,,,,,,,,,,,,,,,,,,,,,,,,
,61734e733cc29eb67f354f82,627c703abe43ac8ecac5d737,2022-05-11_21h26.35.405,classification_task,2021.2.3,Win32,59.99160118,627c6715c52fd12f31907bd0,,,,,,,,,,,,,,,,,,,,,,,a,1,"[""0.423"",""0.357"",""0.852"",""0.888""]","[0,1,1,1]",0,35,35,35,1,0,1,,,0,FALSE,1.039,,,,,,,,,,,,,,,,,,,,,,,,,,,,,,,
,61734e733cc29eb67f354f82,627c703abe43ac8ecac5d737,2022-05-11_21h26.35.405,classification_task,2021.2.3,Win32,59.99160118,627c6715c52fd12f31907bd0,,,,,,,,,,,,,,,,,,,,,,,l,0,"[""0.167"",""0.357"",""0.423"",""0.888""]","[1,1,0,1]",0,36,36,36,1,0,1,,,0,FALSE,1.1254,,,,,,,,,,,,,,,,,,,,,,,,,,,,,,,
,61734e733cc29eb67f354f82,627c703abe43ac8ecac5d737,2022-05-11_21h26.35.405,classification_task,2021.2.3,Win32,59.99160118,627c6715c52fd12f31907bd0,,,,,,,,,,,,,,,,,,,,,,,l,1,"[""0.039"",""0.074"",""0.228"",""0.819""]","[1,1,0,1]",0,37,37,37,1,1,0,,,0,FALSE,1.187,,,,,,,,,,,,,,,,,,,,,,,,,,,,,,,
,61734e733cc29eb67f354f82,627c703abe43ac8ecac5d737,2022-05-11_21h26.35.405,classification_task,2021.2.3,Win32,59.99160118,627c6715c52fd12f31907bd0,,,,,,,,,,,,,,,,,,,,,,,a,1,"[""0.242"",""0.554"",""0.700"",""0.941""]","[0,1,1,1]",0,38,38,38,1,0,0,,,0,FALSE,1.1323,,,,,,,,,,,,,,,,,,,,,,,,,,,,,,,
,61734e733cc29eb67f354f82,627c703abe43ac8ecac5d737,2022-05-11_21h26.35.405,classification_task,2021.2.3,Win32,59.99160118,627c6715c52fd12f31907bd0,,,,,,,,,,,,,,,,,,,,,,,l,1,"[""0.039"",""0.074"",""0.647"",""0.598""]","[1,1,1,0]",0,39,39,39,1,1,0,,,0,FALSE,1.3592,,,,,,,,,,,,,,,,,,,,,,,,,,,,,,,
,61734e733cc29eb67f354f82,627c703abe43ac8ecac5d737,2022-05-11_21h26.35.405,classification_task,2021.2.3,Win32,59.99160118,627c6715c52fd12f31907bd0,,,,,,,,,,,,,,,,,,,,,,,a,0,"[""0.120"",""0.319"",""0.476"",""0.411""]","[1,1,1,0]",0,40,40,40,1,1,1,,,0,FALSE,1.2336,,,,,,,,,,,,,,,,,,,,,,,,,,,,,,,
,61734e733cc29eb67f354f82,627c703abe43ac8ecac5d737,2022-05-11_21h26.35.405,classification_task,2021.2.3,Win32,59.99160118,627c6715c52fd12f31907bd0,,,,,,,,,,,,,,,,,,,,,,,a,1,"[""0.278"",""0.554"",""0.242"",""0.941""]","[1,1,0,1]",0,41,41,41,1,0,0,,,0,FALSE,0.8205,,,,,,,,,,,,,,,,,,,,,,,,,,,,,,,
,61734e733cc29eb67f354f82,627c703abe43ac8ecac5d737,2022-05-11_21h26.35.405,classification_task,2021.2.3,Win32,59.99160118,627c6715c52fd12f31907bd0,,,,,,,,,,,,,,,,,,,,,,,a,0,"[""0.120"",""0.319"",""0.423"",""0.739""]","[1,1,0,1]",0,42,42,42,1,1,1,,,0,FALSE,1.5373,,,,,,,,,,,,,,,,,,,,,,,,,,,,,,,
,61734e733cc29eb67f354f82,627c703abe43ac8ecac5d737,2022-05-11_21h26.35.405,classification_task,2021.2.3,Win32,59.99160118,627c6715c52fd12f31907bd0,,,,,,,,,,,,,,,,,,,,,,,a,1,"[""0.278"",""0.242"",""0.700"",""0.941""]","[1,0,1,1]",0,43,43,43,1,0,0,,,0,FALSE,0.9899,,,,,,,,,,,,,,,,,,,,,,,,,,,,,,,
,61734e733cc29eb67f354f82,627c703abe43ac8ecac5d737,2022-05-11_21h26.35.405,classification_task,2021.2.3,Win32,59.99160118,627c6715c52fd12f31907bd0,,,,,,,,,,,,,,,,,,,,,,,l,1,"[""0.120"",""0.519"",""0.476"",""0.739""]","[1,0,1,1]",0,44,44,44,1,1,1,,,0,FALSE,0.9217,,,,,,,,,,,,,,,,,,,,,,,,,,,,,,,
,61734e733cc29eb67f354f82,627c703abe43ac8ecac5d737,2022-05-11_21h26.35.405,classification_task,2021.2.3,Win32,59.99160118,627c6715c52fd12f31907bd0,,,,,,,,,,,,,,,,,,,,,,,l,0,"[""0.167"",""0.357"",""0.852"",""0.437""]","[1,1,1,0]",0,45,45,45,1,0,1,,,0,FALSE,0.9513,,,,,,,,,,,,,,,,,,,,,,,,,,,,,,,
,61734e733cc29eb67f354f82,627c703abe43ac8ecac5d737,2022-05-11_21h26.35.405,classification_task,2021.2.3,Win32,59.99160118,627c6715c52fd12f31907bd0,,,,,,,,,,,,,,,,,,,,,,,a,0,"[""0.039"",""0.216"",""0.647"",""0.819""]","[1,0,1,1]",0,46,46,46,1,1,0,,,0,FALSE,1.3137,,,,,,,,,,,,,,,,,,,,,,,,,,,,,,,
,61734e733cc29eb67f354f82,627c703abe43ac8ecac5d737,2022-05-11_21h26.35.405,classification_task,2021.2.3,Win32,59.99160118,627c6715c52fd12f31907bd0,,,,,,,,,,,,,,,,,,,,,,,l,0,"[""0.278"",""0.554"",""0.700"",""0.598""]","[1,1,1,0]",0,47,47,47,1,0,0,,,0,FALSE,2.0517,,,,,,,,,,,,,,,,,,,,,,,,,,,,,,,
,61734e733cc29eb67f354f82,627c703abe43ac8ecac5d737,2022-05-11_21h26.35.405,classification_task,2021.2.3,Win32,59.99160118,627c6715c52fd12f31907bd0,,,,,,,,,,,,,,,,,,,,,,,a,1,"[""0.167"",""0.357"",""0.514"",""0.888""]","[1,1,0,1]",0,48,48,48,1,0,1,,,0,FALSE,6.9753,,,,,,,,,,,,,,,,,,,,,,,,,,,,,,,
,61734e733cc29eb67f354f82,627c703abe43ac8ecac5d737,2022-05-11_21h26.35.405,classification_task,2021.2.3,Win32,59.99160118,627c6715c52fd12f31907bd0,,,,,,,,,,,,,,,,,,,,,,,l,0,"[""0.278"",""0.554"",""0.226"",""0.941""]","[1,1,0,1]",0,49,49,49,1,0,0,,,0,FALSE,5.1405,,,,,,,,,,,,,,,,,,,,,,,,,,,,,,,
,61734e733cc29eb67f354f82,627c703abe43ac8ecac5d737,2022-05-11_21h26.35.405,classification_task,2021.2.3,Win32,59.99160118,627c6715c52fd12f31907bd0,,,,,,,,,,,,,,,,,,,,,,,a,0,"[""0.120"",""0.319"",""0.476"",""0.226""]","[1,1,1,0]",0,50,50,50,1,1,1,,,0,FALSE,1.0438,,,,,,,,,,,,,,,,,,,,,,,,,,,,,,,
,61734e733cc29eb67f354f82,627c703abe43ac8ecac5d737,2022-05-11_21h26.35.405,classification_task,2021.2.3,Win32,59.99160118,627c6715c52fd12f31907bd0,,,,,,,,,,,,,,,,,,,,,,,a,1,"[""0.411"",""0.357"",""0.852"",""0.888""]","[0,1,1,1]",0,51,51,51,1,0,1,,,0,FALSE,1.1717,,,,,,,,,,,,,,,,,,,,,,,,,,,,,,,
,61734e733cc29eb67f354f82,627c703abe43ac8ecac5d737,2022-05-11_21h26.35.405,classification_task,2021.2.3,Win32,59.99160118,627c6715c52fd12f31907bd0,,,,,,,,,,,,,,,,,,,,,,,a,0,"[""0.120"",""0.519"",""0.476"",""0.739""]","[1,0,1,1]",0,52,52,52,1,1,1,,,0,FALSE,1.9203,,,,,,,,,,,,,,,,,,,,,,,,,,,,,,,
,61734e733cc29eb67f354f82,627c703abe43ac8ecac5d737,2022-05-11_21h26.35.405,classification_task,2021.2.3,Win32,59.99160118,627c6715c52fd12f31907bd0,,,,,,,,,,,,,,,,,,,,,,,l,1,"[""0.039"",""0.074"",""0.226"",""0.819""]","[1,1,0,1]",0,53,53,53,1,1,0,,,0,FALSE,1.4529,,,,,,,,,,,,,,,,,,,,,,,,,,,,,,,
,61734e733cc29eb67f354f82,627c703abe43ac8ecac5d737,2022-05-11_21h26.35.405,classification_task,2021.2.3,Win32,59.99160118,627c6715c52fd12f31907bd0,,,,,,,,,,,,,,,,,,,,,,,l,1,"[""0.242"",""0.074"",""0.647"",""0.819""]","[0,1,1,1]",0,54,54,54,1,1,0,,,0,FALSE,5.116,,,,,,,,,,,,,,,,,,,,,,,,,,,,,,,
,61734e733cc29eb67f354f82,627c703abe43ac8ecac5d737,2022-05-11_21h26.35.405,classification_task,2021.2.3,Win32,59.99160118,627c6715c52fd12f31907bd0,,,,,,,,,,,,,,,,,,,,,,,l,1,"[""0.039"",""0.074"",""0.647"",""0.216""]","[1,1,1,0]",0,55,55,55,1,1,0,,,0,FALSE,2.8935,,,,,,,,,,,,,,,,,,,,,,,,,,,,,,,
,61734e733cc29eb67f354f82,627c703abe43ac8ecac5d737,2022-05-11_21h26.35.405,classification_task,2021.2.3,Win32,59.99160118,627c6715c52fd12f31907bd0,,,,,,,,,,,,,,,,,,,,,,,a,0,"[""0.242"",""0.319"",""0.476"",""0.739""]","[0,1,1,1]",0,56,56,56,1,1,1,,,0,FALSE,1.2693,,,,,,,,,,,,,,,,,,,,,,,,,,,,,,,
,61734e733cc29eb67f354f82,627c703abe43ac8ecac5d737,2022-05-11_21h26.35.405,classification_task,2021.2.3,Win32,59.99160118,627c6715c52fd12f31907bd0,,,,,,,,,,,,,,,,,,,,,,,l,1,"[""0.039"",""0.240"",""0.647"",""0.819""]","[1,0,1,1]",0,57,57,57,1,1,0,,,0,FALSE,1.0376,,,,,,,,,,,,,,,,,,,,,,,,,,,,,,,
,61734e733cc29eb67f354f82,627c703abe43ac8ecac5d737,2022-05-11_21h26.35.405,classification_task,2021.2.3,Win32,59.99160118,627c6715c52fd12f31907bd0,,,,,,,,,,,,,,,,,,,,,,,l,1,"[""0.120"",""0.319"",""0.226"",""0.739""]","[1,1,0,1]",0,58,58,58,1,1,1,,,0,FALSE,1.5609,,,,,,,,,,,,,,,,,,,,,,,,,,,,,,,
,61734e733cc29eb67f354f82,627c703abe43ac8ecac5d737,2022-05-11_21h26.35.405,classification_task,2021.2.3,Win32,59.99160118,627c6715c52fd12f31907bd0,,,,,,,,,,,,,,,,,,,,,,,a,1,"[""0.278"",""0.216"",""0.700"",""0.941""]","[1,0,1,1]",0,59,59,59,1,0,0,,,0,FALSE,0.8617,,,,,,,,,,,,,,,,,,,,,,,,,,,,,,,
,61734e733cc29eb67f354f82,627c703abe43ac8ecac5d737,2022-05-11_21h26.35.405,classification_task,2021.2.3,Win32,59.99160118,627c6715c52fd12f31907bd0,,,,,,,,,,,,,,,,,,,,,,,a,1,"[""0.167"",""0.357"",""0.852"",""0.216""]","[1,1,1,0]",0,60,60,60,1,0,1,,,0,FALSE,0.7512,,,,,,,,,,,,,,,,,,,,,,,,,,,,,,,
,61734e733cc29eb67f354f82,627c703abe43ac8ecac5d737,2022-05-11_21h26.35.405,classification_task,2021.2.3,Win32,59.99160118,627c6715c52fd12f31907bd0,,,,,,,,,,,,,,,,,,,,,,,a,1,"[""0.514"",""0.554"",""0.700"",""0.941""]","[0,1,1,1]",0,61,61,61,1,0,0,,,0,FALSE,0.8515,,,,,,,,,,,,,,,,,,,,,,,,,,,,,,,
,61734e733cc29eb67f354f82,627c703abe43ac8ecac5d737,2022-05-11_21h26.35.405,classification_task,2021.2.3,Win32,59.99160118,627c6715c52fd12f31907bd0,,,,,,,,,,,,,,,,,,,,,,,l,0,"[""0.167"",""0.242"",""0.852"",""0.888""]","[1,0,1,1]",0,62,62,62,1,0,1,,,0,FALSE,1.4551,,,,,,,,,,,,,,,,,,,,,,,,,,,,,,,
,61734e733cc29eb67f354f82,627c703abe43ac8ecac5d737,2022-05-11_21h26.35.405,classification_task,2021.2.3,Win32,59.99160118,627c6715c52fd12f31907bd0,,,,,,,,,,,,,,,,,,,,,,,a,1,"[""0.278"",""0.554"",""0.700"",""0.512""]","[1,1,1,0]",0,63,63,63,1,0,0,,,0,FALSE,1.0352,,,,,,,,,,,,,,,,,,,,,,,,,,,,,,,
,61734e733cc29eb67f354f82,627c703abe43ac8ecac5d737,2022-05-11_21h26.35.405,classification_task,2021.2.3,Win32,59.99160118,627c6715c52fd12f31907bd0,,,,,,,,,,,,,,,,,,,,,,,,,,,,,,,,,,,,,,,0, ,,0,7.927965168,571.3977,0,0,0,0,1,2,1,,,,,,,,,,,,,,,,,,
,61734e733cc29eb67f354f82,627c703abe43ac8ecac5d737,2022-05-11_21h26.35.405,classification_task,2021.2.3,Win32,59.99160118,627c6715c52fd12f31907bd0,,,,,,,,,,,,,,,,,,,,,,,,,,,,,,,,,,,,,,,1,  ,,0,10,575.9745,0,0,0,0,1,2,1,,,,,,,,,,,,,,,,,,
,61734e733cc29eb67f354f82,627c703abe43ac8ecac5d737,2022-05-11_21h26.35.405,classification_task,2021.2.3,Win32,59.99160118,627c6715c52fd12f31907bd0,,,,,,,,,,,,,,,,,,,,,,,,,,,,,,,,,,,,,,,2,  ,,0,7.652391975,587.4311,0,0,0,0,1,2,1,,,,,,,,,,,,,,,,,,
,61734e733cc29eb67f354f82,627c703abe43ac8ecac5d737,2022-05-11_21h26.35.405,classification_task,2021.2.3,Win32,59.99160118,627c6715c52fd12f31907bd0,,,,,,,,,,,,,,,,,,,,,,,,,,,,,,,,,,,,,,,,,,,,,0,0,0,0,1,,1,,,,,,,,,,,,,,,,,,
,61734e733cc29eb67f354f82,627c703abe43ac8ecac5d737,2022-05-11_21h26.35.405,classification_task,2021.2.3,Win32,59.99160118,627c6715c52fd12f31907bd0,,,,,,,,,,,,,,,,,,,,,space,2.4991,l,1,"[""0.120"",""0.598"",""0.476"",""0.739""]","[1,0,1,1]",0,0,0,0,1,1,1,,,0,FALSE,3.5314,,,,,,,,,,,,,,,,,,,,,,,,,,,,,,,
,61734e733cc29eb67f354f82,627c703abe43ac8ecac5d737,2022-05-11_21h26.35.405,classification_task,2021.2.3,Win32,59.99160118,627c6715c52fd12f31907bd0,,,,,,,,,,,,,,,,,,,,,,,a,1,"[""0.423"",""0.554"",""0.700"",""0.941""]","[0,1,1,1]",0,1,1,1,1,0,0,,,0,FALSE,1.0351,,,,,,,,,,,,,,,,,,,,,,,,,,,,,,,
,61734e733cc29eb67f354f82,627c703abe43ac8ecac5d737,2022-05-11_21h26.35.405,classification_task,2021.2.3,Win32,59.99160118,627c6715c52fd12f31907bd0,,,,,,,,,,,,,,,,,,,,,,,l,1,"[""0.039"",""0.074"",""0.240"",""0.819""]","[1,1,0,1]",0,2,2,2,1,1,0,,,0,FALSE,1.0031,,,,,,,,,,,,,,,,,,,,,,,,,,,,,,,
,61734e733cc29eb67f354f82,627c703abe43ac8ecac5d737,2022-05-11_21h26.35.405,classification_task,2021.2.3,Win32,59.99160118,627c6715c52fd12f31907bd0,,,,,,,,,,,,,,,,,,,,,,,l,0,"[""0.278"",""0.554"",""0.700"",""0.423""]","[1,1,1,0]",0,3,3,3,1,0,0,,,0,FALSE,2.4076,,,,,,,,,,,,,,,,,,,,,,,,,,,,,,,
,61734e733cc29eb67f354f82,627c703abe43ac8ecac5d737,2022-05-11_21h26.35.405,classification_task,2021.2.3,Win32,59.99160118,627c6715c52fd12f31907bd0,,,,,,,,,,,,,,,,,,,,,,,l,1,"[""0.437"",""0.074"",""0.647"",""0.819""]","[0,1,1,1]",0,4,4,4,1,1,0,,,0,FALSE,1.1317,,,,,,,,,,,,,,,,,,,,,,,,,,,,,,,
,61734e733cc29eb67f354f82,627c703abe43ac8ecac5d737,2022-05-11_21h26.35.405,classification_task,2021.2.3,Win32,59.99160118,627c6715c52fd12f31907bd0,,,,,,,,,,,,,,,,,,,,,,,l,1,"[""0.039"",""0.216"",""0.647"",""0.819""]","[1,0,1,1]",0,5,5,5,1,1,0,,,0,FALSE,0.6154,,,,,,,,,,,,,,,,,,,,,,,,,,,,,,,
,61734e733cc29eb67f354f82,627c703abe43ac8ecac5d737,2022-05-11_21h26.35.405,classification_task,2021.2.3,Win32,59.99160118,627c6715c52fd12f31907bd0,,,,,,,,,,,,,,,,,,,,,,,a,1,"[""0.411"",""0.357"",""0.852"",""0.888""]","[0,1,1,1]",0,6,6,6,1,0,1,,,0,FALSE,0.8002,,,,,,,,,,,,,,,,,,,,,,,,,,,,,,,
,61734e733cc29eb67f354f82,627c703abe43ac8ecac5d737,2022-05-11_21h26.35.405,classification_task,2021.2.3,Win32,59.99160118,627c6715c52fd12f31907bd0,,,,,,,,,,,,,,,,,,,,,,,l,1,"[""0.226"",""0.319"",""0.476"",""0.739""]","[0,1,1,1]",0,7,7,7,1,1,1,,,0,FALSE,1.398,,,,,,,,,,,,,,,,,,,,,,,,,,,,,,,
,61734e733cc29eb67f354f82,627c703abe43ac8ecac5d737,2022-05-11_21h26.35.405,classification_task,2021.2.3,Win32,59.99160118,627c6715c52fd12f31907bd0,,,,,,,,,,,,,,,,,,,,,,,a,1,"[""0.167"",""0.782"",""0.852"",""0.888""]","[1,0,1,1]",0,8,8,8,1,0,1,,,0,FALSE,0.9428,,,,,,,,,,,,,,,,,,,,,,,,,,,,,,,
,61734e733cc29eb67f354f82,627c703abe43ac8ecac5d737,2022-05-11_21h26.35.405,classification_task,2021.2.3,Win32,59.99160118,627c6715c52fd12f31907bd0,,,,,,,,,,,,,,,,,,,,,,,a,1,"[""0.278"",""0.407"",""0.700"",""0.941""]","[1,0,1,1]",0,9,9,9,1,0,0,,,0,FALSE,0.9041,,,,,,,,,,,,,,,,,,,,,,,,,,,,,,,
,61734e733cc29eb67f354f82,627c703abe43ac8ecac5d737,2022-05-11_21h26.35.405,classification_task,2021.2.3,Win32,59.99160118,627c6715c52fd12f31907bd0,,,,,,,,,,,,,,,,,,,,,,,l,0,"[""0.167"",""0.357"",""0.598"",""0.888""]","[1,1,0,1]",0,10,10,10,1,0,1,,,0,FALSE,1.4629,,,,,,,,,,,,,,,,,,,,,,,,,,,,,,,
,61734e733cc29eb67f354f82,627c703abe43ac8ecac5d737,2022-05-11_21h26.35.405,classification_task,2021.2.3,Win32,59.99160118,627c6715c52fd12f31907bd0,,,,,,,,,,,,,,,,,,,,,,,l,0,"[""0.167"",""0.357"",""0.852"",""0.407""]","[1,1,1,0]",0,11,11,11,1,0,1,,,0,FALSE,1.9757,,,,,,,,,,,,,,,,,,,,,,,,,,,,,,,
,61734e733cc29eb67f354f82,627c703abe43ac8ecac5d737,2022-05-11_21h26.35.405,classification_task,2021.2.3,Win32,59.99160118,627c6715c52fd12f31907bd0,,,,,,,,,,,,,,,,,,,,,,,l,1,"[""0.120"",""0.319"",""0.476"",""0.423""]","[1,1,1,0]",0,12,12,12,1,1,1,,,0,FALSE,1.0043,,,,,,,,,,,,,,,,,,,,,,,,,,,,,,,
,61734e733cc29eb67f354f82,627c703abe43ac8ecac5d737,2022-05-11_21h26.35.405,classification_task,2021.2.3,Win32,59.99160118,627c6715c52fd12f31907bd0,,,,,,,,,,,,,,,,,,,,,,,l,1,"[""0.120"",""0.319"",""0.242"",""0.739""]","[1,1,0,1]",0,13,13,13,1,1,1,,,0,FALSE,0.7266,,,,,,,,,,,,,,,,,,,,,,,,,,,,,,,
,61734e733cc29eb67f354f82,627c703abe43ac8ecac5d737,2022-05-11_21h26.35.405,classification_task,2021.2.3,Win32,59.99160118,627c6715c52fd12f31907bd0,,,,,,,,,,,,,,,,,,,,,,,l,1,"[""0.039"",""0.074"",""0.647"",""0.228""]","[1,1,1,0]",0,14,14,14,1,1,0,,,0,FALSE,1.3984,,,,,,,,,,,,,,,,,,,,,,,,,,,,,,,
,61734e733cc29eb67f354f82,627c703abe43ac8ecac5d737,2022-05-11_21h26.35.405,classification_task,2021.2.3,Win32,59.99160118,627c6715c52fd12f31907bd0,,,,,,,,,,,,,,,,,,,,,,,a,1,"[""0.278"",""0.554"",""0.429"",""0.941""]","[1,1,0,1]",0,15,15,15,1,0,0,,,0,FALSE,0.8654,,,,,,,,,,,,,,,,,,,,,,,,,,,,,,,
,61734e733cc29eb67f354f82,627c703abe43ac8ecac5d737,2022-05-11_21h26.35.405,classification_task,2021.2.3,Win32,59.99160118,627c6715c52fd12f31907bd0,,,,,,,,,,,,,,,,,,,,,,,a,1,"[""0.167"",""0.357"",""0.852"",""0.411""]","[1,1,1,0]",0,16,16,16,1,0,1,,,0,FALSE,2.0096,,,,,,,,,,,,,,,,,,,,,,,,,,,,,,,
,61734e733cc29eb67f354f82,627c703abe43ac8ecac5d737,2022-05-11_21h26.35.405,classification_task,2021.2.3,Win32,59.99160118,627c6715c52fd12f31907bd0,,,,,,,,,,,,,,,,,,,,,,,l,1,"[""0.039"",""0.074"",""0.647"",""0.514""]","[1,1,1,0]",0,17,17,17,1,1,0,,,0,FALSE,0.8737,,,,,,,,,,,,,,,,,,,,,,,,,,,,,,,
,61734e733cc29eb67f354f82,627c703abe43ac8ecac5d737,2022-05-11_21h26.35.405,classification_task,2021.2.3,Win32,59.99160118,627c6715c52fd12f31907bd0,,,,,,,,,,,,,,,,,,,,,,,a,1,"[""0.278"",""0.216"",""0.700"",""0.941""]","[1,0,1,1]",0,18,18,18,1,0,0,,,0,FALSE,1.1668,,,,,,,,,,,,,,,,,,,,,,,,,,,,,,,
,61734e733cc29eb67f354f82,627c703abe43ac8ecac5d737,2022-05-11_21h26.35.405,classification_task,2021.2.3,Win32,59.99160118,627c6715c52fd12f31907bd0,,,,,,,,,,,,,,,,,,,,,,,l,1,"[""0.120"",""0.319"",""0.519"",""0.739""]","[1,1,0,1]",0,19,19,19,1,1,1,,,0,FALSE,2.4043,,,,,,,,,,,,,,,,,,,,,,,,,,,,,,,
,61734e733cc29eb67f354f82,627c703abe43ac8ecac5d737,2022-05-11_21h26.35.405,classification_task,2021.2.3,Win32,59.99160118,627c6715c52fd12f31907bd0,,,,,,,,,,,,,,,,,,,,,,,a,1,"[""0.167"",""0.357"",""0.411"",""0.888""]","[1,1,0,1]",0,20,20,20,1,0,1,,,0,FALSE,7.0698,,,,,,,,,,,,,,,,,,,,,,,,,,,,,,,
,61734e733cc29eb67f354f82,627c703abe43ac8ecac5d737,2022-05-11_21h26.35.405,classification_task,2021.2.3,Win32,59.99160118,627c6715c52fd12f31907bd0,,,,,,,,,,,,,,,,,,,,,,,a,1,"[""0.278"",""0.554"",""0.423"",""0.941""]","[1,1,0,1]",0,21,21,21,1,0,0,,,0,FALSE,1.6595,,,,,,,,,,,,,,,,,,,,,,,,,,,,,,,
,61734e733cc29eb67f354f82,627c703abe43ac8ecac5d737,2022-05-11_21h26.35.405,classification_task,2021.2.3,Win32,59.99160118,627c6715c52fd12f31907bd0,,,,,,,,,,,,,,,,,,,,,,,a,0,"[""0.039"",""0.775"",""0.647"",""0.819""]","[1,0,1,1]",0,22,22,22,1,1,0,,,0,FALSE,1.7343,,,,,,,,,,,,,,,,,,,,,,,,,,,,,,,
,61734e733cc29eb67f354f82,627c703abe43ac8ecac5d737,2022-05-11_21h26.35.405,classification_task,2021.2.3,Win32,59.99160118,627c6715c52fd12f31907bd0,,,,,,,,,,,,,,,,,,,,,,,a,1,"[""0.598"",""0.357"",""0.852"",""0.888""]","[0,1,1,1]",0,23,23,23,1,0,1,,,0,FALSE,2.4272,,,,,,,,,,,,,,,,,,,,,,,,,,,,,,,
,61734e733cc29eb67f354f82,627c703abe43ac8ecac5d737,2022-05-11_21h26.35.405,classification_task,2021.2.3,Win32,59.99160118,627c6715c52fd12f31907bd0,,,,,,,,,,,,,,,,,,,,,,,l,1,"[""0.120"",""0.319"",""0.476"",""0.423""]","[1,1,1,0]",0,24,24,24,1,1,1,,,0,FALSE,0.8045,,,,,,,,,,,,,,,,,,,,,,,,,,,,,,,
,61734e733cc29eb67f354f82,627c703abe43ac8ecac5d737,2022-05-11_21h26.35.405,classification_task,2021.2.3,Win32,59.99160118,627c6715c52fd12f31907bd0,,,,,,,,,,,,,,,,,,,,,,,a,1,"[""0.167"",""0.437"",""0.852"",""0.888""]","[1,0,1,1]",0,25,25,25,1,0,1,,,0,FALSE,1.2916,,,,,,,,,,,,,,,,,,,,,,,,,,,,,,,
,61734e733cc29eb67f354f82,627c703abe43ac8ecac5d737,2022-05-11_21h26.35.405,classification_task,2021.2.3,Win32,59.99160118,627c6715c52fd12f31907bd0,,,,,,,,,,,,,,,,,,,,,,,l,0,"[""0.278"",""0.554"",""0.700"",""0.216""]","[1,1,1,0]",0,26,26,26,1,0,0,,,0,FALSE,1.969,,,,,,,,,,,,,,,,,,,,,,,,,,,,,,,
,61734e733cc29eb67f354f82,627c703abe43ac8ecac5d737,2022-05-11_21h26.35.405,classification_task,2021.2.3,Win32,59.99160118,627c6715c52fd12f31907bd0,,,,,,,,,,,,,,,,,,,,,,,l,1,"[""0.039"",""0.074"",""0.775"",""0.819""]","[1,1,0,1]",0,27,27,27,1,1,0,,,0,FALSE,1.9831,,,,,,,,,,,,,,,,,,,,,,,,,,,,,,,
,61734e733cc29eb67f354f82,627c703abe43ac8ecac5d737,2022-05-11_21h26.35.405,classification_task,2021.2.3,Win32,59.99160118,627c6715c52fd12f31907bd0,,,,,,,,,,,,,,,,,,,,,,,a,0,"[""0.514"",""0.319"",""0.476"",""0.739""]","[0,1,1,1]",0,28,28,28,1,1,1,,,0,FALSE,2.2048,,,,,,,,,,,,,,,,,,,,,,,,,,,,,,,
,61734e733cc29eb67f354f82,627c703abe43ac8ecac5d737,2022-05-11_21h26.35.405,classification_task,2021.2.3,Win32,59.99160118,627c6715c52fd12f31907bd0,,,,,,,,,,,,,,,,,,,,,,,l,1,"[""0.120"",""0.437"",""0.476"",""0.739""]","[1,0,1,1]",0,29,29,29,1,1,1,,,0,FALSE,2.2055,,,,,,,,,,,,,,,,,,,,,,,,,,,,,,,
,61734e733cc29eb67f354f82,627c703abe43ac8ecac5d737,2022-05-11_21h26.35.405,classification_task,2021.2.3,Win32,59.99160118,627c6715c52fd12f31907bd0,,,,,,,,,,,,,,,,,,,,,,,a,0,"[""0.514"",""0.074"",""0.647"",""0.819""]","[0,1,1,1]",0,30,30,30,1,1,0,,,0,FALSE,1.0849,,,,,,,,,,,,,,,,,,,,,,,,,,,,,,,
,61734e733cc29eb67f354f82,627c703abe43ac8ecac5d737,2022-05-11_21h26.35.405,classification_task,2021.2.3,Win32,59.99160118,627c6715c52fd12f31907bd0,,,,,,,,,,,,,,,,,,,,,,,a,1,"[""0.216"",""0.554"",""0.700"",""0.941""]","[0,1,1,1]",0,31,31,31,1,0,0,,,0,FALSE,1.046,,,,,,,,,,,,,,,,,,,,,,,,,,,,,,,
,61734e733cc29eb67f354f82,627c703abe43ac8ecac5d737,2022-05-11_21h26.35.405,classification_task,2021.2.3,Win32,59.99160118,627c6715c52fd12f31907bd0,,,,,,,,,,,,,,,,,,,,,,,a,0,"[""0.512"",""0.074"",""0.647"",""0.819""]","[0,1,1,1]",0,32,32,32,1,1,0,,,0,FALSE,1.2206,,,,,,,,,,,,,,,,,,,,,,,,,,,,,,,
,61734e733cc29eb67f354f82,627c703abe43ac8ecac5d737,2022-05-11_21h26.35.405,classification_task,2021.2.3,Win32,59.99160118,627c6715c52fd12f31907bd0,,,,,,,,,,,,,,,,,,,,,,,a,1,"[""0.278"",""0.554"",""0.242"",""0.941""]","[1,1,0,1]",0,33,33,33,1,0,0,,,0,FALSE,1.4678,,,,,,,,,,,,,,,,,,,,,,,,,,,,,,,
,61734e733cc29eb67f354f82,627c703abe43ac8ecac5d737,2022-05-11_21h26.35.405,classification_task,2021.2.3,Win32,59.99160118,627c6715c52fd12f31907bd0,,,,,,,,,,,,,,,,,,,,,,,a,1,"[""0.407"",""0.554"",""0.700"",""0.941""]","[0,1,1,1]",0,34,34,34,1,0,0,,,0,FALSE,0.752,,,,,,,,,,,,,,,,,,,,,,,,,,,,,,,
,61734e733cc29eb67f354f82,627c703abe43ac8ecac5d737,2022-05-11_21h26.35.405,classification_task,2021.2.3,Win32,59.99160118,627c6715c52fd12f31907bd0,,,,,,,,,,,,,,,,,,,,,,,a,1,"[""0.775"",""0.357"",""0.852"",""0.888""]","[0,1,1,1]",0,35,35,35,1,0,1,,,0,FALSE,1.0901,,,,,,,,,,,,,,,,,,,,,,,,,,,,,,,
,61734e733cc29eb67f354f82,627c703abe43ac8ecac5d737,2022-05-11_21h26.35.405,classification_task,2021.2.3,Win32,59.99160118,627c6715c52fd12f31907bd0,,,,,,,,,,,,,,,,,,,,,,,l,1,"[""0.039"",""0.074"",""0.647"",""0.242""]","[1,1,1,0]",0,36,36,36,1,1,0,,,0,FALSE,0.8971,,,,,,,,,,,,,,,,,,,,,,,,,,,,,,,
,61734e733cc29eb67f354f82,627c703abe43ac8ecac5d737,2022-05-11_21h26.35.405,classification_task,2021.2.3,Win32,59.99160118,627c6715c52fd12f31907bd0,,,,,,,,,,,,,,,,,,,,,,,l,1,"[""0.120"",""0.319"",""0.476"",""0.598""]","[1,1,1,0]",0,37,37,37,1,1,1,,,0,FALSE,1.1209,,,,,,,,,,,,,,,,,,,,,,,,,,,,,,,
,61734e733cc29eb67f354f82,627c703abe43ac8ecac5d737,2022-05-11_21h26.35.405,classification_task,2021.2.3,Win32,59.99160118,627c6715c52fd12f31907bd0,,,,,,,,,,,,,,,,,,,,,,,l,0,"[""0.167"",""0.357"",""0.407"",""0.888""]","[1,1,0,1]",0,38,38,38,1,0,1,,,0,FALSE,2.6538,,,,,,,,,,,,,,,,,,,,,,,,,,,,,,,
,61734e733cc29eb67f354f82,627c703abe43ac8ecac5d737,2022-05-11_21h26.35.405,classification_task,2021.2.3,Win32,59.99160118,627c6715c52fd12f31907bd0,,,,,,,,,,,,,,,,,,,,,,,a,1,"[""0.167"",""0.228"",""0.852"",""0.888""]","[1,0,1,1]",0,39,39,39,1,0,1,,,0,FALSE,2.263,,,,,,,,,,,,,,,,,,,,,,,,,,,,,,,
,61734e733cc29eb67f354f82,627c703abe43ac8ecac5d737,2022-05-11_21h26.35.405,classification_task,2021.2.3,Win32,59.99160118,627c6715c52fd12f31907bd0,,,,,,,,,,,,,,,,,,,,,,,l,1,"[""0.120"",""0.407"",""0.476"",""0.739""]","[1,0,1,1]",0,40,40,40,1,1,1,,,0,FALSE,2.5269,,,,,,,,,,,,,,,,,,,,,,,,,,,,,,,
,61734e733cc29eb67f354f82,627c703abe43ac8ecac5d737,2022-05-11_21h26.35.405,classification_task,2021.2.3,Win32,59.99160118,627c6715c52fd12f31907bd0,,,,,,,,,,,,,,,,,,,,,,,a,1,"[""0.167"",""0.357"",""0.852"",""0.782""]","[1,1,1,0]",0,41,41,41,1,0,1,,,0,FALSE,1.9308,,,,,,,,,,,,,,,,,,,,,,,,,,,,,,,
,61734e733cc29eb67f354f82,627c703abe43ac8ecac5d737,2022-05-11_21h26.35.405,classification_task,2021.2.3,Win32,59.99160118,627c6715c52fd12f31907bd0,,,,,,,,,,,,,,,,,,,,,,,a,1,"[""0.278"",""0.226"",""0.700"",""0.941""]","[1,0,1,1]",0,42,42,42,1,0,0,,,0,FALSE,1.9777,,,,,,,,,,,,,,,,,,,,,,,,,,,,,,,
,61734e733cc29eb67f354f82,627c703abe43ac8ecac5d737,2022-05-11_21h26.35.405,classification_task,2021.2.3,Win32,59.99160118,627c6715c52fd12f31907bd0,,,,,,,,,,,,,,,,,,,,,,,l,1,"[""0.039"",""0.423"",""0.647"",""0.819""]","[1,0,1,1]",0,43,43,43,1,1,0,,,0,FALSE,1.6128,,,,,,,,,,,,,,,,,,,,,,,,,,,,,,,
,61734e733cc29eb67f354f82,627c703abe43ac8ecac5d737,2022-05-11_21h26.35.405,classification_task,2021.2.3,Win32,59.99160118,627c6715c52fd12f31907bd0,,,,,,,,,,,,,,,,,,,,,,,l,1,"[""0.120"",""0.319"",""0.782"",""0.739""]","[1,1,0,1]",0,44,44,44,1,1,1,,,0,FALSE,2.4498,,,,,,,,,,,,,,,,,,,,,,,,,,,,,,,
,61734e733cc29eb67f354f82,627c703abe43ac8ecac5d737,2022-05-11_21h26.35.405,classification_task,2021.2.3,Win32,59.99160118,627c6715c52fd12f31907bd0,,,,,,,,,,,,,,,,,,,,,,,a,1,"[""0.278"",""0.554"",""0.700"",""0.228""]","[1,1,1,0]",0,45,45,45,1,0,0,,,0,FALSE,2.0185,,,,,,,,,,,,,,,,,,,,,,,,,,,,,,,
,61734e733cc29eb67f354f82,627c703abe43ac8ecac5d737,2022-05-11_21h26.35.405,classification_task,2021.2.3,Win32,59.99160118,627c6715c52fd12f31907bd0,,,,,,,,,,,,,,,,,,,,,,,a,0,"[""0.216"",""0.319"",""0.476"",""0.739""]","[0,1,1,1]",0,46,46,46,1,1,1,,,0,FALSE,2.8871,,,,,,,,,,,,,,,,,,,,,,,,,,,,,,,
,61734e733cc29eb67f354f82,627c703abe43ac8ecac5d737,2022-05-11_21h26.35.405,classification_task,2021.2.3,Win32,59.99160118,627c6715c52fd12f31907bd0,,,,,,,,,,,,,,,,,,,,,,,l,1,"[""0.039"",""0.074"",""0.598"",""0.819""]","[1,1,0,1]",0,47,47,47,1,1,0,,,0,FALSE,1.1464,,,,,,,,,,,,,,,,,,,,,,,,,,,,,,,
,61734e733cc29eb67f354f82,627c703abe43ac8ecac5d737,2022-05-11_21h26.35.405,classification_task,2021.2.3,Win32,59.99160118,627c6715c52fd12f31907bd0,,,,,,,,,,,,,,,,,,,,,,,a,0,"[""0.514"",""0.319"",""0.476"",""0.739""]","[0,1,1,1]",0,48,48,48,1,1,1,,,0,FALSE,2.6231,,,,,,,,,,,,,,,,,,,,,,,,,,,,,,,
,61734e733cc29eb67f354f82,627c703abe43ac8ecac5d737,2022-05-11_21h26.35.405,classification_task,2021.2.3,Win32,59.99160118,627c6715c52fd12f31907bd0,,,,,,,,,,,,,,,,,,,,,,,a,1,"[""0.278"",""0.554"",""0.598"",""0.941""]","[1,1,0,1]",0,49,49,49,1,0,0,,,0,FALSE,0.9036,,,,,,,,,,,,,,,,,,,,,,,,,,,,,,,
,61734e733cc29eb67f354f82,627c703abe43ac8ecac5d737,2022-05-11_21h26.35.405,classification_task,2021.2.3,Win32,59.99160118,627c6715c52fd12f31907bd0,,,,,,,,,,,,,,,,,,,,,,,l,1,"[""0.120"",""0.319"",""0.216"",""0.739""]","[1,1,0,1]",0,50,50,50,1,1,1,,,0,FALSE,0.8476,,,,,,,,,,,,,,,,,,,,,,,,,,,,,,,
,61734e733cc29eb67f354f82,627c703abe43ac8ecac5d737,2022-05-11_21h26.35.405,classification_task,2021.2.3,Win32,59.99160118,627c6715c52fd12f31907bd0,,,,,,,,,,,,,,,,,,,,,,,l,0,"[""0.167"",""0.357"",""0.852"",""0.775""]","[1,1,1,0]",0,51,51,51,1,0,1,,,0,FALSE,1.5228,,,,,,,,,,,,,,,,,,,,,,,,,,,,,,,
,61734e733cc29eb67f354f82,627c703abe43ac8ecac5d737,2022-05-11_21h26.35.405,classification_task,2021.2.3,Win32,59.99160118,627c6715c52fd12f31907bd0,,,,,,,,,,,,,,,,,,,,,,,a,1,"[""0.242"",""0.554"",""0.700"",""0.941""]","[0,1,1,1]",0,52,52,52,1,0,0,,,0,FALSE,0.9446,,,,,,,,,,,,,,,,,,,,,,,,,,,,,,,
,61734e733cc29eb67f354f82,627c703abe43ac8ecac5d737,2022-05-11_21h26.35.405,classification_task,2021.2.3,Win32,59.99160118,627c6715c52fd12f31907bd0,,,,,,,,,,,,,,,,,,,,,,,a,1,"[""0.167"",""0.437"",""0.852"",""0.888""]","[1,0,1,1]",0,53,53,53,1,0,1,,,0,FALSE,2.4779,,,,,,,,,,,,,,,,,,,,,,,,,,,,,,,
,61734e733cc29eb67f354f82,627c703abe43ac8ecac5d737,2022-05-11_21h26.35.405,classification_task,2021.2.3,Win32,59.99160118,627c6715c52fd12f31907bd0,,,,,,,,,,,,,,,,,,,,,,,a,1,"[""0.278"",""0.514"",""0.700"",""0.941""]","[1,0,1,1]",0,54,54,54,1,0,0,,,0,FALSE,0.9038,,,,,,,,,,,,,,,,,,,,,,,,,,,,,,,
,61734e733cc29eb67f354f82,627c703abe43ac8ecac5d737,2022-05-11_21h26.35.405,classification_task,2021.2.3,Win32,59.99160118,627c6715c52fd12f31907bd0,,,,,,,,,,,,,,,,,,,,,,,a,1,"[""0.228"",""0.357"",""0.852"",""0.888""]","[0,1,1,1]",0,55,55,55,1,0,1,,,0,FALSE,2.0429,,,,,,,,,,,,,,,,,,,,,,,,,,,,,,,
,61734e733cc29eb67f354f82,627c703abe43ac8ecac5d737,2022-05-11_21h26.35.405,classification_task,2021.2.3,Win32,59.99160118,627c6715c52fd12f31907bd0,,,,,,,,,,,,,,,,,,,,,,,l,1,"[""0.120"",""0.319"",""0.476"",""0.216""]","[1,1,1,0]",0,56,56,56,1,1,1,,,0,FALSE,1.1857,,,,,,,,,,,,,,,,,,,,,,,,,,,,,,,
,61734e733cc29eb67f354f82,627c703abe43ac8ecac5d737,2022-05-11_21h26.35.405,classification_task,2021.2.3,Win32,59.99160118,627c6715c52fd12f31907bd0,,,,,,,,,,,,,,,,,,,,,,,l,1,"[""0.120"",""0.514"",""0.476"",""0.739""]","[1,0,1,1]",0,57,57,57,1,1,1,,,0,FALSE,1.4506,,,,,,,,,,,,,,,,,,,,,,,,,,,,,,,
,61734e733cc29eb67f354f82,627c703abe43ac8ecac5d737,2022-05-11_21h26.35.405,classification_task,2021.2.3,Win32,59.99160118,627c6715c52fd12f31907bd0,,,,,,,,,,,,,,,,,,,,,,,l,1,"[""0.407"",""0.074"",""0.647"",""0.819""]","[0,1,1,1]",0,58,58,58,1,1,0,,,0,FALSE,1.3863,,,,,,,,,,,,,,,,,,,,,,,,,,,,,,,
,61734e733cc29eb67f354f82,627c703abe43ac8ecac5d737,2022-05-11_21h26.35.405,classification_task,2021.2.3,Win32,59.99160118,627c6715c52fd12f31907bd0,,,,,,,,,,,,,,,,,,,,,,,a,1,"[""0.167"",""0.357"",""0.437"",""0.888""]","[1,1,0,1]",0,59,59,59,1,0,1,,,0,FALSE,2.6226,,,,,,,,,,,,,,,,,,,,,,,,,,,,,,,
,61734e733cc29eb67f354f82,627c703abe43ac8ecac5d737,2022-05-11_21h26.35.405,classification_task,2021.2.3,Win32,59.99160118,627c6715c52fd12f31907bd0,,,,,,,,,,,,,,,,,,,,,,,l,1,"[""0.039"",""0.074"",""0.647"",""0.514""]","[1,1,1,0]",0,60,60,60,1,1,0,,,0,FALSE,1.5555,,,,,,,,,,,,,,,,,,,,,,,,,,,,,,,
,61734e733cc29eb67f354f82,627c703abe43ac8ecac5d737,2022-05-11_21h26.35.405,classification_task,2021.2.3,Win32,59.99160118,627c6715c52fd12f31907bd0,,,,,,,,,,,,,,,,,,,,,,,l,1,"[""0.039"",""0.775"",""0.647"",""0.819""]","[1,0,1,1]",0,61,61,61,1,1,0,,,0,FALSE,1.78,,,,,,,,,,,,,,,,,,,,,,,,,,,,,,,
,61734e733cc29eb67f354f82,627c703abe43ac8ecac5d737,2022-05-11_21h26.35.405,classification_task,2021.2.3,Win32,59.99160118,627c6715c52fd12f31907bd0,,,,,,,,,,,,,,,,,,,,,,,l,0,"[""0.278"",""0.554"",""0.700"",""0.598""]","[1,1,1,0]",0,62,62,62,1,0,0,,,0,FALSE,2.908,,,,,,,,,,,,,,,,,,,,,,,,,,,,,,,
,61734e733cc29eb67f354f82,627c703abe43ac8ecac5d737,2022-05-11_21h26.35.405,classification_task,2021.2.3,Win32,59.99160118,627c6715c52fd12f31907bd0,,,,,,,,,,,,,,,,,,,,,,,l,1,"[""0.039"",""0.074"",""0.411"",""0.819""]","[1,1,0,1]",0,63,63,63,1,1,0,,,0,FALSE,0.9071,,,,,,,,,,,,,,,,,,,,,,,,,,,,,,,
,61734e733cc29eb67f354f82,627c703abe43ac8ecac5d737,2022-05-11_21h26.35.405,classification_task,2021.2.3,Win32,59.99160118,627c6715c52fd12f31907bd0,,,,,,,,,,,,,,,,,,,,,,,,,,,,,,,,,,,,,,,0, ,,0,5.241126543,188.6611,0,1,1,1,1,2,2,,,,,,,,,,,,,,,,,,
,61734e733cc29eb67f354f82,627c703abe43ac8ecac5d737,2022-05-11_21h26.35.405,classification_task,2021.2.3,Win32,59.99160118,627c6715c52fd12f31907bd0,,,,,,,,,,,,,,,,,,,,,,,,,,,,,,,,,,,,,,,1,  ,,0,10,190.6751,0,1,1,1,1,2,2,,,,,,,,,,,,,,,,,,
,61734e733cc29eb67f354f82,627c703abe43ac8ecac5d737,2022-05-11_21h26.35.405,classification_task,2021.2.3,Win32,59.99160118,627c6715c52fd12f31907bd0,,,,,,,,,,,,,,,,,,,,,,,,,,,,,,,,,,,,,,,2,  ,,0,3.484347443,192.497,0,1,1,1,1,2,2,,,,,,,,,,,,,,,,,,
,61734e733cc29eb67f354f82,627c703abe43ac8ecac5d737,2022-05-11_21h26.35.405,classification_task,2021.2.3,Win32,59.99160118,627c6715c52fd12f31907bd0,,,,,,,,,,,,,,,,,,,,,,,,,,,,,,,,,,,,,,,,,,,,,0,1,1,1,1,,2,,,,,,,,,,,,,,,,,,
,61734e733cc29eb67f354f82,627c703abe43ac8ecac5d737,2022-05-11_21h26.35.405,classification_task,2021.2.3,Win32,59.99160118,627c6715c52fd12f31907bd0,,,,,,,,,,,,,,,,,,,,,space,1.8643,l,1,"[""0.120"",""0.429"",""0.476"",""0.739""]","[1,0,1,1]",0,0,0,0,1,1,1,,,0,FALSE,3.6167,,,,,,,,,,,,,,,,,,,,,,,,,,,,,,,
,61734e733cc29eb67f354f82,627c703abe43ac8ecac5d737,2022-05-11_21h26.35.405,classification_task,2021.2.3,Win32,59.99160118,627c6715c52fd12f31907bd0,,,,,,,,,,,,,,,,,,,,,,,a,1,"[""0.278"",""0.554"",""0.700"",""0.429""]","[1,1,1,0]",0,1,1,1,1,0,0,,,0,FALSE,2.6862,,,,,,,,,,,,,,,,,,,,,,,,,,,,,,,
,61734e733cc29eb67f354f82,627c703abe43ac8ecac5d737,2022-05-11_21h26.35.405,classification_task,2021.2.3,Win32,59.99160118,627c6715c52fd12f31907bd0,,,,,,,,,,,,,,,,,,,,,,,a,1,"[""0.167"",""0.357"",""0.782"",""0.888""]","[1,1,0,1]",0,2,2,2,1,0,1,,,0,FALSE,3.6427,,,,,,,,,,,,,,,,,,,,,,,,,,,,,,,
,61734e733cc29eb67f354f82,627c703abe43ac8ecac5d737,2022-05-11_21h26.35.405,classification_task,2021.2.3,Win32,59.99160118,627c6715c52fd12f31907bd0,,,,,,,,,,,,,,,,,,,,,,,a,1,"[""0.407"",""0.554"",""0.700"",""0.941""]","[0,1,1,1]",0,3,3,3,1,0,0,,,0,FALSE,1.2178,,,,,,,,,,,,,,,,,,,,,,,,,,,,,,,
,61734e733cc29eb67f354f82,627c703abe43ac8ecac5d737,2022-05-11_21h26.35.405,classification_task,2021.2.3,Win32,59.99160118,627c6715c52fd12f31907bd0,,,,,,,,,,,,,,,,,,,,,,,a,0,"[""0.228"",""0.319"",""0.476"",""0.739""]","[0,1,1,1]",0,4,4,4,1,1,1,,,0,FALSE,4.7834,,,,,,,,,,,,,,,,,,,,,,,,,,,,,,,
,61734e733cc29eb67f354f82,627c703abe43ac8ecac5d737,2022-05-11_21h26.35.405,classification_task,2021.2.3,Win32,59.99160118,627c6715c52fd12f31907bd0,,,,,,,,,,,,,,,,,,,,,,,a,0,"[""0.598"",""0.074"",""0.647"",""0.819""]","[0,1,1,1]",0,5,5,5,1,1,0,,,0,FALSE,2.883,,,,,,,,,,,,,,,,,,,,,,,,,,,,,,,
,61734e733cc29eb67f354f82,627c703abe43ac8ecac5d737,2022-05-11_21h26.35.405,classification_task,2021.2.3,Win32,59.99160118,627c6715c52fd12f31907bd0,,,,,,,,,,,,,,,,,,,,,,,a,1,"[""0.278"",""0.554"",""0.240"",""0.941""]","[1,1,0,1]",0,6,6,6,1,0,0,,,0,FALSE,5.3083,,,,,,,,,,,,,,,,,,,,,,,,,,,,,,,
,61734e733cc29eb67f354f82,627c703abe43ac8ecac5d737,2022-05-11_21h26.35.405,classification_task,2021.2.3,Win32,59.99160118,627c6715c52fd12f31907bd0,,,,,,,,,,,,,,,,,,,,,,,a,1,"[""0.167"",""0.512"",""0.852"",""0.888""]","[1,0,1,1]",0,7,7,7,1,0,1,,,0,FALSE,8.8553,,,,,,,,,,,,,,,,,,,,,,,,,,,,,,,
,61734e733cc29eb67f354f82,627c703abe43ac8ecac5d737,2022-05-11_21h26.35.405,classification_task,2021.2.3,Win32,59.99160118,627c6715c52fd12f31907bd0,,,,,,,,,,,,,,,,,,,,,,,l,1,"[""0.039"",""0.074"",""0.647"",""0.216""]","[1,1,1,0]",0,8,8,8,1,1,0,,,0,FALSE,1.3692,,,,,,,,,,,,,,,,,,,,,,,,,,,,,,,
,61734e733cc29eb67f354f82,627c703abe43ac8ecac5d737,2022-05-11_21h26.35.405,classification_task,2021.2.3,Win32,59.99160118,627c6715c52fd12f31907bd0,,,,,,,,,,,,,,,,,,,,,,,l,1,"[""0.039"",""0.429"",""0.647"",""0.819""]","[1,0,1,1]",0,9,9,9,1,1,0,,,0,FALSE,2.0708,,,,,,,,,,,,,,,,,,,,,,,,,,,,,,,
,61734e733cc29eb67f354f82,627c703abe43ac8ecac5d737,2022-05-11_21h26.35.405,classification_task,2021.2.3,Win32,59.99160118,627c6715c52fd12f31907bd0,,,,,,,,,,,,,,,,,,,,,,,a,1,"[""0.167"",""0.357"",""0.852"",""0.429""]","[1,1,1,0]",0,10,10,10,1,0,1,,,0,FALSE,1.5608,,,,,,,,,,,,,,,,,,,,,,,,,,,,,,,
,61734e733cc29eb67f354f82,627c703abe43ac8ecac5d737,2022-05-11_21h26.35.405,classification_task,2021.2.3,Win32,59.99160118,627c6715c52fd12f31907bd0,,,,,,,,,,,,,,,,,,,,,,,a,1,"[""0.226"",""0.357"",""0.852"",""0.888""]","[0,1,1,1]",0,11,11,11,1,0,1,,,0,FALSE,2.7215,,,,,,,,,,,,,,,,,,,,,,,,,,,,,,,
,61734e733cc29eb67f354f82,627c703abe43ac8ecac5d737,2022-05-11_21h26.35.405,classification_task,2021.2.3,Win32,59.99160118,627c6715c52fd12f31907bd0,,,,,,,,,,,,,,,,,,,,,,,a,1,"[""0.278"",""0.514"",""0.700"",""0.941""]","[1,0,1,1]",0,12,12,12,1,0,0,,,0,FALSE,1.4572,,,,,,,,,,,,,,,,,,,,,,,,,,,,,,,
,61734e733cc29eb67f354f82,627c703abe43ac8ecac5d737,2022-05-11_21h26.35.405,classification_task,2021.2.3,Win32,59.99160118,627c6715c52fd12f31907bd0,,,,,,,,,,,,,,,,,,,,,,,l,1,"[""0.039"",""0.074"",""0.411"",""0.819""]","[1,1,0,1]",0,13,13,13,1,1,0,,,0,FALSE,1.3141,,,,,,,,,,,,,,,,,,,,,,,,,,,,,,,
,61734e733cc29eb67f354f82,627c703abe43ac8ecac5d737,2022-05-11_21h26.35.405,classification_task,2021.2.3,Win32,59.99160118,627c6715c52fd12f31907bd0,,,,,,,,,,,,,,,,,,,,,,,l,1,"[""0.120"",""0.319"",""0.429"",""0.739""]","[1,1,0,1]",0,14,14,14,1,1,1,,,0,FALSE,4.8036,,,,,,,,,,,,,,,,,,,,,,,,,,,,,,,
,61734e733cc29eb67f354f82,627c703abe43ac8ecac5d737,2022-05-11_21h26.35.405,classification_task,2021.2.3,Win32,59.99160118,627c6715c52fd12f31907bd0,,,,,,,,,,,,,,,,,,,,,,,l,1,"[""0.120"",""0.319"",""0.476"",""0.216""]","[1,1,1,0]",0,15,15,15,1,1,1,,,0,FALSE,1.6459,,,,,,,,,,,,,,,,,,,,,,,,,,,,,,,
,61734e733cc29eb67f354f82,627c703abe43ac8ecac5d737,2022-05-11_21h26.35.405,classification_task,2021.2.3,Win32,59.99160118,627c6715c52fd12f31907bd0,,,,,,,,,,,,,,,,,,,,,,,a,1,"[""0.278"",""0.554"",""0.700"",""0.240""]","[1,1,1,0]",0,16,16,16,1,0,0,,,0,FALSE,4.1712,,,,,,,,,,,,,,,,,,,,,,,,,,,,,,,
,61734e733cc29eb67f354f82,627c703abe43ac8ecac5d737,2022-05-11_21h26.35.405,classification_task,2021.2.3,Win32,59.99160118,627c6715c52fd12f31907bd0,,,,,,,,,,,,,,,,,,,,,,,a,1,"[""0.167"",""0.357"",""0.852"",""0.437""]","[1,1,1,0]",0,17,17,17,1,0,1,,,0,FALSE,3.7157,,,,,,,,,,,,,,,,,,,,,,,,,,,,,,,
,61734e733cc29eb67f354f82,627c703abe43ac8ecac5d737,2022-05-11_21h26.35.405,classification_task,2021.2.3,Win32,59.99160118,627c6715c52fd12f31907bd0,,,,,,,,,,,,,,,,,,,,,,,a,1,"[""0.167"",""0.598"",""0.852"",""0.888""]","[1,0,1,1]",0,18,18,18,1,0,1,,,0,FALSE,0.7078,,,,,,,,,,,,,,,,,,,,,,,,,,,,,,,
,61734e733cc29eb67f354f82,627c703abe43ac8ecac5d737,2022-05-11_21h26.35.405,classification_task,2021.2.3,Win32,59.99160118,627c6715c52fd12f31907bd0,,,,,,,,,,,,,,,,,,,,,,,a,0,"[""0.512"",""0.074"",""0.647"",""0.819""]","[0,1,1,1]",0,19,19,19,1,1,0,,,0,FALSE,1.7144,,,,,,,,,,,,,,,,,,,,,,,,,,,,,,,
,61734e733cc29eb67f354f82,627c703abe43ac8ecac5d737,2022-05-11_21h26.35.405,classification_task,2021.2.3,Win32,59.99160118,627c6715c52fd12f31907bd0,,,,,,,,,,,,,,,,,,,,,,,a,0,"[""0.226"",""0.319"",""0.476"",""0.739""]","[0,1,1,1]",0,20,20,20,1,1,1,,,0,FALSE,2.0941,,,,,,,,,,,,,,,,,,,,,,,,,,,,,,,
,61734e733cc29eb67f354f82,627c703abe43ac8ecac5d737,2022-05-11_21h26.35.405,classification_task,2021.2.3,Win32,59.99160118,627c6715c52fd12f31907bd0,,,,,,,,,,,,,,,,,,,,,,,a,1,"[""0.278"",""0.554"",""0.242"",""0.941""]","[1,1,0,1]",0,21,21,21,1,0,0,,,0,FALSE,4.0143,,,,,,,,,,,,,,,,,,,,,,,,,,,,,,,
,61734e733cc29eb67f354f82,627c703abe43ac8ecac5d737,2022-05-11_21h26.35.405,classification_task,2021.2.3,Win32,59.99160118,627c6715c52fd12f31907bd0,,,,,,,,,,,,,,,,,,,,,,,a,1,"[""0.167"",""0.357"",""0.514"",""0.888""]","[1,1,0,1]",0,22,22,22,1,0,1,,,0,FALSE,3.281,,,,,,,,,,,,,,,,,,,,,,,,,,,,,,,
,61734e733cc29eb67f354f82,627c703abe43ac8ecac5d737,2022-05-11_21h26.35.405,classification_task,2021.2.3,Win32,59.99160118,627c6715c52fd12f31907bd0,,,,,,,,,,,,,,,,,,,,,,,a,1,"[""0.775"",""0.554"",""0.700"",""0.941""]","[0,1,1,1]",0,23,23,23,1,0,0,,,0,FALSE,1.9105,,,,,,,,,,,,,,,,,,,,,,,,,,,,,,,
,61734e733cc29eb67f354f82,627c703abe43ac8ecac5d737,2022-05-11_21h26.35.405,classification_task,2021.2.3,Win32,59.99160118,627c6715c52fd12f31907bd0,,,,,,,,,,,,,,,,,,,,,,,l,1,"[""0.120"",""0.319"",""0.775"",""0.739""]","[1,1,0,1]",0,24,24,24,1,1,1,,,0,FALSE,2.0636,,,,,,,,,,,,,,,,,,,,,,,,,,,,,,,
,61734e733cc29eb67f354f82,627c703abe43ac8ecac5d737,2022-05-11_21h26.35.405,classification_task,2021.2.3,Win32,59.99160118,627c6715c52fd12f31907bd0,,,,,,,,,,,,,,,,,,,,,,,l,1,"[""0.039"",""0.074"",""0.407"",""0.819""]","[1,1,0,1]",0,25,25,25,1,1,0,,,0,FALSE,1.8327,,,,,,,,,,,,,,,,,,,,,,,,,,,,,,,
,61734e733cc29eb67f354f82,627c703abe43ac8ecac5d737,2022-05-11_21h26.35.405,classification_task,2021.2.3,Win32,59.99160118,627c6715c52fd12f31907bd0,,,,,,,,,,,,,,,,,,,,,,,a,1,"[""0.278"",""0.437"",""0.700"",""0.941""]","[1,0,1,1]",0,26,26,26,1,0,0,,,0,FALSE,4.8113,,,,,,,,,,,,,,,,,,,,,,,,,,,,,,,
,61734e733cc29eb67f354f82,627c703abe43ac8ecac5d737,2022-05-11_21h26.35.405,classification_task,2021.2.3,Win32,59.99160118,627c6715c52fd12f31907bd0,,,,,,,,,,,,,,,,,,,,,,,a,0,"[""0.120"",""0.782"",""0.476"",""0.739""]","[1,0,1,1]",0,27,27,27,1,1,1,,,0,FALSE,1.0418,,,,,,,,,,,,,,,,,,,,,,,,,,,,,,,
,61734e733cc29eb67f354f82,627c703abe43ac8ecac5d737,2022-05-11_21h26.35.405,classification_task,2021.2.3,Win32,59.99160118,627c6715c52fd12f31907bd0,,,,,,,,,,,,,,,,,,,,,,,a,1,"[""0.775"",""0.357"",""0.852"",""0.888""]","[0,1,1,1]",0,28,28,28,1,0,1,,,0,FALSE,0.6392,,,,,,,,,,,,,,,,,,,,,,,,,,,,,,,
,61734e733cc29eb67f354f82,627c703abe43ac8ecac5d737,2022-05-11_21h26.35.405,classification_task,2021.2.3,Win32,59.99160118,627c6715c52fd12f31907bd0,,,,,,,,,,,,,,,,,,,,,,,l,1,"[""0.120"",""0.319"",""0.476"",""0.228""]","[1,1,1,0]",0,29,29,29,1,1,1,,,0,FALSE,0.782,,,,,,,,,,,,,,,,,,,,,,,,,,,,,,,
,61734e733cc29eb67f354f82,627c703abe43ac8ecac5d737,2022-05-11_21h26.35.405,classification_task,2021.2.3,Win32,59.99160118,627c6715c52fd12f31907bd0,,,,,,,,,,,,,,,,,,,,,,,l,1,"[""0.039"",""0.226"",""0.647"",""0.819""]","[1,0,1,1]",0,30,30,30,1,1,0,,,0,FALSE,2.4189,,,,,,,,,,,,,,,,,,,,,,,,,,,,,,,
,61734e733cc29eb67f354f82,627c703abe43ac8ecac5d737,2022-05-11_21h26.35.405,classification_task,2021.2.3,Win32,59.99160118,627c6715c52fd12f31907bd0,,,,,,,,,,,,,,,,,,,,,,,l,1,"[""0.039"",""0.074"",""0.647"",""0.411""]","[1,1,1,0]",0,31,31,31,1,1,0,,,0,FALSE,0.9945,,,,,,,,,,,,,,,,,,,,,,,,,,,,,,,
,61734e733cc29eb67f354f82,627c703abe43ac8ecac5d737,2022-05-11_21h26.35.405,classification_task,2021.2.3,Win32,59.99160118,627c6715c52fd12f31907bd0,,,,,,,,,,,,,,,,,,,,,,,a,1,"[""0.167"",""0.782"",""0.852"",""0.888""]","[1,0,1,1]",0,32,32,32,1,0,1,,,0,FALSE,3.8246,,,,,,,,,,,,,,,,,,,,,,,,,,,,,,,
,61734e733cc29eb67f354f82,627c703abe43ac8ecac5d737,2022-05-11_21h26.35.405,classification_task,2021.2.3,Win32,59.99160118,627c6715c52fd12f31907bd0,,,,,,,,,,,,,,,,,,,,,,,a,1,"[""0.278"",""0.554"",""0.216"",""0.941""]","[1,1,0,1]",0,33,33,33,1,0,0,,,0,FALSE,1.8345,,,,,,,,,,,,,,,,,,,,,,,,,,,,,,,
,61734e733cc29eb67f354f82,627c703abe43ac8ecac5d737,2022-05-11_21h26.35.405,classification_task,2021.2.3,Win32,59.99160118,627c6715c52fd12f31907bd0,,,,,,,,,,,,,,,,,,,,,,,l,1,"[""0.039"",""0.074"",""0.647"",""0.519""]","[1,1,1,0]",0,34,34,34,1,1,0,,,0,FALSE,1.2637,,,,,,,,,,,,,,,,,,,,,,,,,,,,,,,
,61734e733cc29eb67f354f82,627c703abe43ac8ecac5d737,2022-05-11_21h26.35.405,classification_task,2021.2.3,Win32,59.99160118,627c6715c52fd12f31907bd0,,,,,,,,,,,,,,,,,,,,,,,l,1,"[""0.120"",""0.319"",""0.476"",""0.512""]","[1,1,1,0]",0,35,35,35,1,1,1,,,0,FALSE,1.9399,,,,,,,,,,,,,,,,,,,,,,,,,,,,,,,
,61734e733cc29eb67f354f82,627c703abe43ac8ecac5d737,2022-05-11_21h26.35.405,classification_task,2021.2.3,Win32,59.99160118,627c6715c52fd12f31907bd0,,,,,,,,,,,,,,,,,,,,,,,a,1,"[""0.240"",""0.554"",""0.700"",""0.941""]","[0,1,1,1]",0,36,36,36,1,0,0,,,0,FALSE,2.9599,,,,,,,,,,,,,,,,,,,,,,,,,,,,,,,
,61734e733cc29eb67f354f82,627c703abe43ac8ecac5d737,2022-05-11_21h26.35.405,classification_task,2021.2.3,Win32,59.99160118,627c6715c52fd12f31907bd0,,,,,,,,,,,,,,,,,,,,,,,a,1,"[""0.512"",""0.357"",""0.852"",""0.888""]","[0,1,1,1]",0,37,37,37,1,0,1,,,0,FALSE,1.69,,,,,,,,,,,,,,,,,,,,,,,,,,,,,,,
,61734e733cc29eb67f354f82,627c703abe43ac8ecac5d737,2022-05-11_21h26.35.405,classification_task,2021.2.3,Win32,59.99160118,627c6715c52fd12f31907bd0,,,,,,,,,,,,,,,,,,,,,,,a,1,"[""0.278"",""0.554"",""0.700"",""0.598""]","[1,1,1,0]",0,38,38,38,1,0,0,,,0,FALSE,1.6302,,,,,,,,,,,,,,,,,,,,,,,,,,,,,,,
,61734e733cc29eb67f354f82,627c703abe43ac8ecac5d737,2022-05-11_21h26.35.405,classification_task,2021.2.3,Win32,59.99160118,627c6715c52fd12f31907bd0,,,,,,,,,,,,,,,,,,,,,,,l,1,"[""0.039"",""0.423"",""0.647"",""0.819""]","[1,0,1,1]",0,39,39,39,1,1,0,,,0,FALSE,1.928,,,,,,,,,,,,,,,,,,,,,,,,,,,,,,,
,61734e733cc29eb67f354f82,627c703abe43ac8ecac5d737,2022-05-11_21h26.35.405,classification_task,2021.2.3,Win32,59.99160118,627c6715c52fd12f31907bd0,,,,,,,,,,,,,,,,,,,,,,,l,1,"[""0.120"",""0.437"",""0.476"",""0.739""]","[1,0,1,1]",0,40,40,40,1,1,1,,,0,FALSE,3.351,,,,,,,,,,,,,,,,,,,,,,,,,,,,,,,
,61734e733cc29eb67f354f82,627c703abe43ac8ecac5d737,2022-05-11_21h26.35.405,classification_task,2021.2.3,Win32,59.99160118,627c6715c52fd12f31907bd0,,,,,,,,,,,,,,,,,,,,,,,l,1,"[""0.120"",""0.319"",""0.242"",""0.739""]","[1,1,0,1]",0,41,41,41,1,1,1,,,0,FALSE,2.0608,,,,,,,,,,,,,,,,,,,,,,,,,,,,,,,
,61734e733cc29eb67f354f82,627c703abe43ac8ecac5d737,2022-05-11_21h26.35.405,classification_task,2021.2.3,Win32,59.99160118,627c6715c52fd12f31907bd0,,,,,,,,,,,,,,,,,,,,,,,a,1,"[""0.167"",""0.357"",""0.519"",""0.888""]","[1,1,0,1]",0,42,42,42,1,0,1,,,0,FALSE,7.8413,,,,,,,,,,,,,,,,,,,,,,,,,,,,,,,
,61734e733cc29eb67f354f82,627c703abe43ac8ecac5d737,2022-05-11_21h26.35.405,classification_task,2021.2.3,Win32,59.99160118,627c6715c52fd12f31907bd0,,,,,,,,,,,,,,,,,,,,,,,a,1,"[""0.278"",""0.598"",""0.700"",""0.941""]","[1,0,1,1]",0,43,43,43,1,0,0,,,0,FALSE,1.737,,,,,,,,,,,,,,,,,,,,,,,,,,,,,,,
,61734e733cc29eb67f354f82,627c703abe43ac8ecac5d737,2022-05-11_21h26.35.405,classification_task,2021.2.3,Win32,59.99160118,627c6715c52fd12f31907bd0,,,,,,,,,,,,,,,,,,,,,,,l,0,"[""0.167"",""0.357"",""0.852"",""0.782""]","[1,1,1,0]",0,44,44,44,1,0,1,,,0,FALSE,1.6729,,,,,,,,,,,,,,,,,,,,,,,,,,,,,,,
,61734e733cc29eb67f354f82,627c703abe43ac8ecac5d737,2022-05-11_21h26.35.405,classification_task,2021.2.3,Win32,59.99160118,627c6715c52fd12f31907bd0,,,,,,,,,,,,,,,,,,,,,,,l,1,"[""0.039"",""0.074"",""0.519"",""0.819""]","[1,1,0,1]",0,45,45,45,1,1,0,,,0,FALSE,1.3262,,,,,,,,,,,,,,,,,,,,,,,,,,,,,,,
,61734e733cc29eb67f354f82,627c703abe43ac8ecac5d737,2022-05-11_21h26.35.405,classification_task,2021.2.3,Win32,59.99160118,627c6715c52fd12f31907bd0,,,,,,,,,,,,,,,,,,,,,,,a,0,"[""0.423"",""0.319"",""0.476"",""0.739""]","[0,1,1,1]",0,46,46,46,1,1,1,,,0,FALSE,2.2015,,,,,,,,,,,,,,,,,,,,,,,,,,,,,,,
,61734e733cc29eb67f354f82,627c703abe43ac8ecac5d737,2022-05-11_21h26.35.405,classification_task,2021.2.3,Win32,59.99160118,627c6715c52fd12f31907bd0,,,,,,,,,,,,,,,,,,,,,,,l,1,"[""0.407"",""0.074"",""0.647"",""0.819""]","[0,1,1,1]",0,47,47,47,1,1,0,,,0,FALSE,1.8748,,,,,,,,,,,,,,,,,,,,,,,,,,,,,,,
,61734e733cc29eb67f354f82,627c703abe43ac8ecac5d737,2022-05-11_21h26.35.405,classification_task,2021.2.3,Win32,59.99160118,627c6715c52fd12f31907bd0,,,,,,,,,,,,,,,,,,,,,,,a,1,"[""0.278"",""0.775"",""0.700"",""0.941""]","[1,0,1,1]",0,48,48,48,1,0,0,,,0,FALSE,1.9245,,,,,,,,,,,,,,,,,,,,,,,,,,,,,,,
,61734e733cc29eb67f354f82,627c703abe43ac8ecac5d737,2022-05-11_21h26.35.405,classification_task,2021.2.3,Win32,59.99160118,627c6715c52fd12f31907bd0,,,,,,,,,,,,,,,,,,,,,,,l,1,"[""0.039"",""0.074"",""0.647"",""0.782""]","[1,1,1,0]",0,49,49,49,1,1,0,,,0,FALSE,1.0937,,,,,,,,,,,,,,,,,,,,,,,,,,,,,,,
,61734e733cc29eb67f354f82,627c703abe43ac8ecac5d737,2022-05-11_21h26.35.405,classification_task,2021.2.3,Win32,59.99160118,627c6715c52fd12f31907bd0,,,,,,,,,,,,,,,,,,,,,,,l,1,"[""0.039"",""0.411"",""0.647"",""0.819""]","[1,0,1,1]",0,50,50,50,1,1,0,,,0,FALSE,1.3811,,,,,,,,,,,,,,,,,,,,,,,,,,,,,,,
,61734e733cc29eb67f354f82,627c703abe43ac8ecac5d737,2022-05-11_21h26.35.405,classification_task,2021.2.3,Win32,59.99160118,627c6715c52fd12f31907bd0,,,,,,,,,,,,,,,,,,,,,,,a,1,"[""0.278"",""0.554"",""0.700"",""0.775""]","[1,1,1,0]",0,51,51,51,1,0,0,,,0,FALSE,6.4659,,,,,,,,,,,,,,,,,,,,,,,,,,,,,,,
,61734e733cc29eb67f354f82,627c703abe43ac8ecac5d737,2022-05-11_21h26.35.405,classification_task,2021.2.3,Win32,59.99160118,627c6715c52fd12f31907bd0,,,,,,,,,,,,,,,,,,,,,,,a,1,"[""0.278"",""0.554"",""0.216"",""0.941""]","[1,1,0,1]",0,52,52,52,1,0,0,,,0,FALSE,1.3642,,,,,,,,,,,,,,,,,,,,,,,,,,,,,,,
,61734e733cc29eb67f354f82,627c703abe43ac8ecac5d737,2022-05-11_21h26.35.405,classification_task,2021.2.3,Win32,59.99160118,627c6715c52fd12f31907bd0,,,,,,,,,,,,,,,,,,,,,,,a,1,"[""0.167"",""0.514"",""0.852"",""0.888""]","[1,0,1,1]",0,53,53,53,1,0,1,,,0,FALSE,2.2345,,,,,,,,,,,,,,,,,,,,,,,,,,,,,,,
,61734e733cc29eb67f354f82,627c703abe43ac8ecac5d737,2022-05-11_21h26.35.405,classification_task,2021.2.3,Win32,59.99160118,627c6715c52fd12f31907bd0,,,,,,,,,,,,,,,,,,,,,,,a,1,"[""0.167"",""0.357"",""0.852"",""0.519""]","[1,1,1,0]",0,54,54,54,1,0,1,,,0,FALSE,1.8431,,,,,,,,,,,,,,,,,,,,,,,,,,,,,,,
,61734e733cc29eb67f354f82,627c703abe43ac8ecac5d737,2022-05-11_21h26.35.405,classification_task,2021.2.3,Win32,59.99160118,627c6715c52fd12f31907bd0,,,,,,,,,,,,,,,,,,,,,,,l,1,"[""0.120"",""0.319"",""0.476"",""0.775""]","[1,1,1,0]",0,55,55,55,1,1,1,,,0,FALSE,1.133,,,,,,,,,,,,,,,,,,,,,,,,,,,,,,,
,61734e733cc29eb67f354f82,627c703abe43ac8ecac5d737,2022-05-11_21h26.35.405,classification_task,2021.2.3,Win32,59.99160118,627c6715c52fd12f31907bd0,,,,,,,,,,,,,,,,,,,,,,,a,1,"[""0.167"",""0.357"",""0.775"",""0.888""]","[1,1,0,1]",0,56,56,56,1,0,1,,,0,FALSE,0.907,,,,,,,,,,,,,,,,,,,,,,,,,,,,,,,
,61734e733cc29eb67f354f82,627c703abe43ac8ecac5d737,2022-05-11_21h26.35.405,classification_task,2021.2.3,Win32,59.99160118,627c6715c52fd12f31907bd0,,,,,,,,,,,,,,,,,,,,,,,l,1,"[""0.120"",""0.319"",""0.242"",""0.739""]","[1,1,0,1]",0,57,57,57,1,1,1,,,0,FALSE,2.23,,,,,,,,,,,,,,,,,,,,,,,,,,,,,,,
,61734e733cc29eb67f354f82,627c703abe43ac8ecac5d737,2022-05-11_21h26.35.405,classification_task,2021.2.3,Win32,59.99160118,627c6715c52fd12f31907bd0,,,,,,,,,,,,,,,,,,,,,,,l,1,"[""0.782"",""0.074"",""0.647"",""0.819""]","[0,1,1,1]",0,58,58,58,1,1,0,,,0,FALSE,1.5359,,,,,,,,,,,,,,,,,,,,,,,,,,,,,,,
,61734e733cc29eb67f354f82,627c703abe43ac8ecac5d737,2022-05-11_21h26.35.405,classification_task,2021.2.3,Win32,59.99160118,627c6715c52fd12f31907bd0,,,,,,,,,,,,,,,,,,,,,,,a,1,"[""0.782"",""0.357"",""0.852"",""0.888""]","[0,1,1,1]",0,59,59,59,1,0,1,,,0,FALSE,0.9442,,,,,,,,,,,,,,,,,,,,,,,,,,,,,,,
,61734e733cc29eb67f354f82,627c703abe43ac8ecac5d737,2022-05-11_21h26.35.405,classification_task,2021.2.3,Win32,59.99160118,627c6715c52fd12f31907bd0,,,,,,,,,,,,,,,,,,,,,,,l,1,"[""0.120"",""0.411"",""0.476"",""0.739""]","[1,0,1,1]",0,60,60,60,1,1,1,,,0,FALSE,1.634,,,,,,,,,,,,,,,,,,,,,,,,,,,,,,,
,61734e733cc29eb67f354f82,627c703abe43ac8ecac5d737,2022-05-11_21h26.35.405,classification_task,2021.2.3,Win32,59.99160118,627c6715c52fd12f31907bd0,,,,,,,,,,,,,,,,,,,,,,,a,0,"[""0.437"",""0.319"",""0.476"",""0.739""]","[0,1,1,1]",0,61,61,61,1,1,1,,,0,FALSE,6.4078,,,,,,,,,,,,,,,,,,,,,,,,,,,,,,,
,61734e733cc29eb67f354f82,627c703abe43ac8ecac5d737,2022-05-11_21h26.35.405,classification_task,2021.2.3,Win32,59.99160118,627c6715c52fd12f31907bd0,,,,,,,,,,,,,,,,,,,,,,,a,1,"[""0.242"",""0.554"",""0.700"",""0.941""]","[0,1,1,1]",0,62,62,62,1,0,0,,,0,FALSE,1.0525,,,,,,,,,,,,,,,,,,,,,,,,,,,,,,,
,61734e733cc29eb67f354f82,627c703abe43ac8ecac5d737,2022-05-11_21h26.35.405,classification_task,2021.2.3,Win32,59.99160118,627c6715c52fd12f31907bd0,,,,,,,,,,,,,,,,,,,,,,,l,1,"[""0.039"",""0.074"",""0.228"",""0.819""]","[1,1,0,1]",0,63,63,63,1,1,0,,,0,FALSE,1.0851,,,,,,,,,,,,,,,,,,,,,,,,,,,,,,,
,61734e733cc29eb67f354f82,627c703abe43ac8ecac5d737,2022-05-11_21h26.35.405,classification_task,2021.2.3,Win32,59.99160118,627c6715c52fd12f31907bd0,,,,,,,,,,,,,,,,,,,,,,,,,,,,,,,,,,,,,,,0, ,,0,9.099151235,236.0326,0,2,2,2,1,2,3,,,,,,,,,,,,,,,,,,
,61734e733cc29eb67f354f82,627c703abe43ac8ecac5d737,2022-05-11_21h26.35.405,classification_task,2021.2.3,Win32,59.99160118,627c6715c52fd12f31907bd0,,,,,,,,,,,,,,,,,,,,,,,,,,,,,,,,,,,,,,,1,  ,,0,5.551146384,237.2088,0,2,2,2,1,2,3,,,,,,,,,,,,,,,,,,
,61734e733cc29eb67f354f82,627c703abe43ac8ecac5d737,2022-05-11_21h26.35.405,classification_task,2021.2.3,Win32,59.99160118,627c6715c52fd12f31907bd0,,,,,,,,,,,,,,,,,,,,,,,,,,,,,,,,,,,,,,,2,  ,,0,10,241.2749,0,2,2,2,1,2,3,,,,,,,,,,,,,,,,,,
,61734e733cc29eb67f354f82,627c703abe43ac8ecac5d737,2022-05-11_21h26.35.405,classification_task,2021.2.3,Win32,59.99160118,627c6715c52fd12f31907bd0,,,,,,,,,,,,,,,,,,,,,,,,,,,,,,,,,,,,,,,,,,,,,0,2,2,2,1,,3,,,,,,,,,,,,,,,,,,
,61734e733cc29eb67f354f82,627c703abe43ac8ecac5d737,2022-05-11_21h26.35.405,classification_task,2021.2.3,Win32,59.99160118,627c6715c52fd12f31907bd0,,,,,,,,,,,,,,,,,,,,,,,,,,,,,,,,,,,,,,,,,,,,,,,,,,,,,I believe the aid is a competent performer,,0.7,0,4,1054.627,0,0,0,0,1,0,,,,,
,61734e733cc29eb67f354f82,627c703abe43ac8ecac5d737,2022-05-11_21h26.35.405,classification_task,2021.2.3,Win32,59.99160118,627c6715c52fd12f31907bd0,,,,,,,,,,,,,,,,,,,,,,,,,,,,,,,,,,,,,,,,,,,,,,,,,,,,,I trust the aid,,0.7,0,5,1059.2453,0,0,0,0,1,0,,,,,
,61734e733cc29eb67f354f82,627c703abe43ac8ecac5d737,2022-05-11_21h26.35.405,classification_task,2021.2.3,Win32,59.99160118,627c6715c52fd12f31907bd0,,,,,,,,,,,,,,,,,,,,,,,,,,,,,,,,,,,,,,,,,,,,,,,,,,,,,I have confidence in the advice given by the aid,,0.7,0,5,1062.5809,0,0,0,0,1,0,,,,,
,61734e733cc29eb67f354f82,627c703abe43ac8ecac5d737,2022-05-11_21h26.35.405,classification_task,2021.2.3,Win32,59.99160118,627c6715c52fd12f31907bd0,,,,,,,,,,,,,,,,,,,,,,,,,,,,,,,,,,,,,,,,,,,,,,,,,,,,,I can depend on the aid,,0.7,0,3,1070.0753,0,0,0,0,1,0,,,,,
,61734e733cc29eb67f354f82,627c703abe43ac8ecac5d737,2022-05-11_21h26.35.405,classification_task,2021.2.3,Win32,59.99160118,627c6715c52fd12f31907bd0,,,,,,,,,,,,,,,,,,,,,,,,,,,,,,,,,,,,,,,,,,,,,,,,,,,,,I can rely on the aid to behave in consistent ways,,0.7,0,4,1076.9854,0,0,0,0,1,0,,,,,
,61734e733cc29eb67f354f82,627c703abe43ac8ecac5d737,2022-05-11_21h26.35.405,classification_task,2021.2.3,Win32,59.99160118,627c6715c52fd12f31907bd0,,,,,,,,,,,,,,,,,,,,,,,,,,,,,,,,,,,,,,,,,,,,,,,,,,,,,I can rely on the aid to do its best every time I take its advice,,0.7,0,3,1085.2552,0,0,0,0,1,0,,,,,
,61734e733cc29eb67f354f82,627c703abe43ac8ecac5d737,2022-05-11_21h26.35.405,classification_task,2021.2.3,Win32,59.99160118,627c6715c52fd12f31907bd0,,,,,,,,,,,,,,,,,,,,,,,,,,,,,,,,,,,,,,,,,,,,,,,,,,,,,"On trials you completed with assistance from the aid, how frequently did you think the aid was correct?",,0.7,0,100%,,0,0,0,0,1,0,,,,,
,61734e733cc29eb67f354f82,627c703abe43ac8ecac5d737,2022-05-11_21h26.35.405,classification_task,2021.2.3,Win32,59.99160118,627c6715c52fd12f31907bd0,,,,,,,,,,,,,,,,,,,,,,,,,,,,,,,,,,,,,,,,,,,,,,,,,,,,,"On trials you completed without the aid, how frequently did you think you were correct?",,0.7,0,90%,,0,0,0,0,1,0,,,,,
,61734e733cc29eb67f354f82,627c703abe43ac8ecac5d737,2022-05-11_21h26.35.405,classification_task,2021.2.3,Win32,59.99160118,627c6715c52fd12f31907bd0,,,,,,,,,,,,,,,,,,,,,,,,,,,,,,,,,,,,,,,,,,,,,,,,,,,,,,,,,,,0,0,0,0,1,,,,,,
,61734e733cc29eb67f354f82,627c703abe43ac8ecac5d737,2022-05-11_21h26.35.405,classification_task,2021.2.3,Win32,59.99160118,627c6715c52fd12f31907bd0,,,,,,,,,,,,,,,,,,,,,,,,,,,,,,,,,,,,,,,,,,,,,,,,,,,,,,,,,,,,,,,,,space,15.3677,1146.9179,,
,61734e733cc29eb67f354f82,627c703abe43ac8ecac5d737,2022-05-11_21h26.35.405,classification_task,2021.2.3,Win32,59.99160118,627c6715c52fd12f31907bd0,,,,,,,,,,,,,,,,,,,,,,,,,,,,,,,,,,,,,,,,,,,,,,,,,,,,,,,,,,,,,,,,,,,,"Mozilla/5.0 (Windows NT 10.0; Win64; x64) AppleWebKit/537.36 (KHTML, like Gecko) Chrome/101.0.4951.54 Safari/537.36",
,61734e733cc29eb67f354f82,627c703abe43ac8ecac5d737,2022-05-11_21h26.35.405,classification_task,2021.2.3,Win32,59.99160118,627c6715c52fd12f31907bd0,,,,,,,,,,,,,,,,,,,,,,,,,,,,,,,,,,,,,,,,,,,,,,,,,,,,,,,,,,,,,,,,,,,,,LOWLIGHT
