usingWebGL,participant,session,date,expName,psychopyVersion,OS,frameRate,study_id,signatures_friend,signatures_foe,band_ranges_top,band_ranges_bottom,formitemText,formtype,formundefined,formitemWidth,formindex,formresponse,formrt,key_resp_2.keys,key_resp_2.rt,tute_resp.keys,tute_resp.rt,tutorial.thisRepN,tutorial.thisTrialN,tutorial.thisN,tutorial.thisIndex,tutorial.ran,key_resp_4.keys,key_resp_4.rt,key_resp.keys,key_resp.corr,key_resp.rt,lines_presented,is_signal_presented,trials.thisRepN,trials.thisTrialN,trials.thisN,trials.thisIndex,trials.ran,vessel,active_band,lines,is_signal,supported_pos,catch_trial,debrief_formindex,debrief_formitemText,debrief_formtype,debrief_formitemWidth,debrief_formresponse,debrief_formrt,phases.thisRepN,phases.thisTrialN,phases.thisN,phases.thisIndex,phases.ran,phases.order,phase,key_resp_3.keys,trustitemText,trusttype,trustitemWidth,trustindex,trustresponse,trustrt,support_status.thisRepN,support_status.thisTrialN,support_status.thisN,support_status.thisIndex,support_status.ran,support_status.order,key_resp_5.keys,key_resp_5.rt,globalClockTime,userAgent,manualCondition
TRUE,6175ef3720a77a161dbe7cdc,627c6f20d1967c145333bea1,2022-05-11_21h22.00.046,classification_task,2021.2.3,Win32,59.99880002,627c6715c52fd12f31907bcf,,,,,,,,,,,,,,,,,,,,,,,,,,,,,,,,,,,,,,,,,,,,,,,,,,,,,,,,,,,,,,,,,,,,,
,6175ef3720a77a161dbe7cdc,627c6f20d1967c145333bea1,2022-05-11_21h22.00.046,classification_task,2021.2.3,Win32,59.99880002,627c6715c52fd12f31907bcf,"[[""0.322"",""0.478"",""0.687"",""0.876""],[""0.179"",""0.404"",""0.911"",""0.945""]]","[[""0.106"",""0.368"",""0.646"",""0.768""],[""0.066"",""0.238"",""0.523"",""0.721""]]","[1,10]","[100,1000]",Video game experience,,,0.7,0,,,,,,,,,,,,,,,,,,,,,,,,,,,,,,,,,,,,,,,,,,,,,,,,,,,,,,,,,,,,
,6175ef3720a77a161dbe7cdc,627c6f20d1967c145333bea1,2022-05-11_21h22.00.046,classification_task,2021.2.3,Win32,59.99880002,627c6715c52fd12f31907bcf,,,,,Approximately how many hours did you spend playing video games in the last week?,,,0.7,0,50,,,,,,,,,,,,,,,,,,,,,,,,,,,,,,,,,,,,,,,,,,,,,,,,,,,,,,,,,,,
,6175ef3720a77a161dbe7cdc,627c6f20d1967c145333bea1,2022-05-11_21h22.00.046,classification_task,2021.2.3,Win32,59.99880002,627c6715c52fd12f31907bcf,,,,,"Which game did you play the most this year? (Enter ""None"" if you didn't play any)",,,0.7,0,Halo infinite,,,,,,,,,,,,,,,,,,,,,,,,,,,,,,,,,,,,,,,,,,,,,,,,,,,,,,,,,,,
,6175ef3720a77a161dbe7cdc,627c6f20d1967c145333bea1,2022-05-11_21h22.00.046,classification_task,2021.2.3,Win32,59.99880002,627c6715c52fd12f31907bcf,,,,,Visual perception,,,0.7,0,,,,,,,,,,,,,,,,,,,,,,,,,,,,,,,,,,,,,,,,,,,,,,,,,,,,,,,,,,,,
,6175ef3720a77a161dbe7cdc,627c6f20d1967c145333bea1,2022-05-11_21h22.00.046,classification_task,2021.2.3,Win32,59.99880002,627c6715c52fd12f31907bcf,,,,,Do you have any form of color blindness?,,,0.7,0,No,23.5277,,,,,,,,,,,,,,,,,,,,,,,,,,,,,,,,,,,,,,,,,,,,,,,,,,,,,,,,,,
,6175ef3720a77a161dbe7cdc,627c6f20d1967c145333bea1,2022-05-11_21h22.00.046,classification_task,2021.2.3,Win32,59.99880002,627c6715c52fd12f31907bcf,,,,,Do you use software to change the colour temperature of your screen (e.g. f.lux)?,,,0.7,0,No,26.6577,,,,,,,,,,,,,,,,,,,,,,,,,,,,,,,,,,,,,,,,,,,,,,,,,,,,,,,,,,
,6175ef3720a77a161dbe7cdc,627c6f20d1967c145333bea1,2022-05-11_21h22.00.046,classification_task,2021.2.3,Win32,59.99880002,627c6715c52fd12f31907bcf,,,,,,,,,,,,space,25.0816,space,5.9663,0,0,0,0,1,,,,,,,,,,,,,,,,,,,,,,,,,,,,,,,,,,,,,,,,,,,,,,,,,
,6175ef3720a77a161dbe7cdc,627c6f20d1967c145333bea1,2022-05-11_21h22.00.046,classification_task,2021.2.3,Win32,59.99880002,627c6715c52fd12f31907bcf,,,,,,,,,,,,,,space,5.6161,1,0,1,0,1,,,,,,,,,,,,,,,,,,,,,,,,,,,,,,,,,,,,,,,,,,,,,,,,,
,6175ef3720a77a161dbe7cdc,627c6f20d1967c145333bea1,2022-05-11_21h22.00.046,classification_task,2021.2.3,Win32,59.99880002,627c6715c52fd12f31907bcf,,,,,,,,,,,,,,space,20.004,2,0,2,0,1,,,,,,,,,,,,,,,,,,,,,,,,,,,,,,,,,,,,,,,,,,,,,,,,,
,6175ef3720a77a161dbe7cdc,627c6f20d1967c145333bea1,2022-05-11_21h22.00.046,classification_task,2021.2.3,Win32,59.99880002,627c6715c52fd12f31907bcf,,,,,,,,,,,,,,space,3.4029,3,0,3,0,1,,,,,,,,,,,,,,,,,,,,,,,,,,,,,,,,,,,,,,,,,,,,,,,,,
,6175ef3720a77a161dbe7cdc,627c6f20d1967c145333bea1,2022-05-11_21h22.00.046,classification_task,2021.2.3,Win32,59.99880002,627c6715c52fd12f31907bcf,,,,,,,,,,,,,,space,1.389,4,0,4,0,1,,,,,,,,,,,,,,,,,,,,,,,,,,,,,,,,,,,,,,,,,,,,,,,,,
,6175ef3720a77a161dbe7cdc,627c6f20d1967c145333bea1,2022-05-11_21h22.00.046,classification_task,2021.2.3,Win32,59.99880002,627c6715c52fd12f31907bcf,,,,,,,,,,,,,,,,,,,,,space,2.0892,l,1,5.4116,"[""0.106"",""0.368"",""0.646"",""0.820""]","[1,1,1,0]",0,0,0,0,1,1,0,,,0,FALSE,,,,,,,,,,,,,,,,,,,,,,,,,,,,,,,
,6175ef3720a77a161dbe7cdc,627c6f20d1967c145333bea1,2022-05-11_21h22.00.046,classification_task,2021.2.3,Win32,59.99880002,627c6715c52fd12f31907bcf,,,,,,,,,,,,,,,,,,,,,,,a,0,4.963,"[""0.843"",""0.368"",""0.646"",""0.768""]","[0,1,1,1]",0,1,1,1,1,1,0,,,0,FALSE,,,,,,,,,,,,,,,,,,,,,,,,,,,,,,,
,6175ef3720a77a161dbe7cdc,627c6f20d1967c145333bea1,2022-05-11_21h22.00.046,classification_task,2021.2.3,Win32,59.99880002,627c6715c52fd12f31907bcf,,,,,,,,,,,,,,,,,,,,,,,l,1,3.9714,"[""0.066"",""0.238"",""0.523"",""0.812""]","[1,1,1,0]",0,2,2,2,1,1,1,,,0,FALSE,,,,,,,,,,,,,,,,,,,,,,,,,,,,,,,
,6175ef3720a77a161dbe7cdc,627c6f20d1967c145333bea1,2022-05-11_21h22.00.046,classification_task,2021.2.3,Win32,59.99880002,627c6715c52fd12f31907bcf,,,,,,,,,,,,,,,,,,,,,,,l,1,2.4886,"[""0.066"",""0.238"",""0.443"",""0.721""]","[1,1,0,1]",0,3,3,3,1,1,1,,,0,FALSE,,,,,,,,,,,,,,,,,,,,,,,,,,,,,,,
,6175ef3720a77a161dbe7cdc,627c6f20d1967c145333bea1,2022-05-11_21h22.00.046,classification_task,2021.2.3,Win32,59.99880002,627c6715c52fd12f31907bcf,,,,,,,,,,,,,,,,,,,,,,,a,1,3.1835,"[""0.179"",""0.404"",""0.911"",""0.843""]","[1,1,1,0]",0,4,4,4,1,0,1,,,0,FALSE,,,,,,,,,,,,,,,,,,,,,,,,,,,,,,,
,6175ef3720a77a161dbe7cdc,627c6f20d1967c145333bea1,2022-05-11_21h22.00.046,classification_task,2021.2.3,Win32,59.99880002,627c6715c52fd12f31907bcf,,,,,,,,,,,,,,,,,,,,,,,a,1,4.9851,"[""0.322"",""0.478"",""0.687"",""0.804""]","[1,1,1,0]",0,5,5,5,1,0,0,,,0,FALSE,,,,,,,,,,,,,,,,,,,,,,,,,,,,,,,
,6175ef3720a77a161dbe7cdc,627c6f20d1967c145333bea1,2022-05-11_21h22.00.046,classification_task,2021.2.3,Win32,59.99880002,627c6715c52fd12f31907bcf,,,,,,,,,,,,,,,,,,,,,,,a,1,2.7568,"[""0.843"",""0.478"",""0.687"",""0.876""]","[0,1,1,1]",0,6,6,6,1,0,0,,,0,FALSE,,,,,,,,,,,,,,,,,,,,,,,,,,,,,,,
,6175ef3720a77a161dbe7cdc,627c6f20d1967c145333bea1,2022-05-11_21h22.00.046,classification_task,2021.2.3,Win32,59.99880002,627c6715c52fd12f31907bcf,,,,,,,,,,,,,,,,,,,,,,,a,1,2.8161,"[""0.179"",""0.404"",""0.600"",""0.945""]","[1,1,0,1]",0,7,7,7,1,0,1,,,0,FALSE,,,,,,,,,,,,,,,,,,,,,,,,,,,,,,,
,6175ef3720a77a161dbe7cdc,627c6f20d1967c145333bea1,2022-05-11_21h22.00.046,classification_task,2021.2.3,Win32,59.99880002,627c6715c52fd12f31907bcf,,,,,,,,,,,,,,,,,,,,,,,a,1,2.2678,"[""0.322"",""0.831"",""0.687"",""0.876""]","[1,0,1,1]",0,8,8,8,1,0,0,,,0,FALSE,,,,,,,,,,,,,,,,,,,,,,,,,,,,,,,
,6175ef3720a77a161dbe7cdc,627c6f20d1967c145333bea1,2022-05-11_21h22.00.046,classification_task,2021.2.3,Win32,59.99880002,627c6715c52fd12f31907bcf,,,,,,,,,,,,,,,,,,,,,,,a,1,2.2451,"[""0.179"",""0.437"",""0.911"",""0.945""]","[1,0,1,1]",0,9,9,9,1,0,1,,,0,FALSE,,,,,,,,,,,,,,,,,,,,,,,,,,,,,,,
,6175ef3720a77a161dbe7cdc,627c6f20d1967c145333bea1,2022-05-11_21h22.00.046,classification_task,2021.2.3,Win32,59.99880002,627c6715c52fd12f31907bcf,,,,,,,,,,,,,,,,,,,,,,,l,1,2.5058,"[""0.106"",""0.843"",""0.646"",""0.768""]","[1,0,1,1]",0,10,10,10,1,1,0,,,0,FALSE,,,,,,,,,,,,,,,,,,,,,,,,,,,,,,,
,6175ef3720a77a161dbe7cdc,627c6f20d1967c145333bea1,2022-05-11_21h22.00.046,classification_task,2021.2.3,Win32,59.99880002,627c6715c52fd12f31907bcf,,,,,,,,,,,,,,,,,,,,,,,l,1,2.1423,"[""0.066"",""0.600"",""0.523"",""0.721""]","[1,0,1,1]",0,11,11,11,1,1,1,,,0,FALSE,,,,,,,,,,,,,,,,,,,,,,,,,,,,,,,
,6175ef3720a77a161dbe7cdc,627c6f20d1967c145333bea1,2022-05-11_21h22.00.046,classification_task,2021.2.3,Win32,59.99880002,627c6715c52fd12f31907bcf,,,,,,,,,,,,,,,,,,,,,,,l,1,3.6431,"[""0.443"",""0.238"",""0.523"",""0.721""]","[0,1,1,1]",0,12,12,12,1,1,1,,,0,FALSE,,,,,,,,,,,,,,,,,,,,,,,,,,,,,,,
,6175ef3720a77a161dbe7cdc,627c6f20d1967c145333bea1,2022-05-11_21h22.00.046,classification_task,2021.2.3,Win32,59.99880002,627c6715c52fd12f31907bcf,,,,,,,,,,,,,,,,,,,,,,,a,1,3.7728,"[""0.568"",""0.404"",""0.911"",""0.945""]","[0,1,1,1]",0,13,13,13,1,0,1,,,0,FALSE,,,,,,,,,,,,,,,,,,,,,,,,,,,,,,,
,6175ef3720a77a161dbe7cdc,627c6f20d1967c145333bea1,2022-05-11_21h22.00.046,classification_task,2021.2.3,Win32,59.99880002,627c6715c52fd12f31907bcf,,,,,,,,,,,,,,,,,,,,,,,l,1,2.8284,"[""0.106"",""0.368"",""0.843"",""0.768""]","[1,1,0,1]",0,14,14,14,1,1,0,,,0,FALSE,,,,,,,,,,,,,,,,,,,,,,,,,,,,,,,
,6175ef3720a77a161dbe7cdc,627c6f20d1967c145333bea1,2022-05-11_21h22.00.046,classification_task,2021.2.3,Win32,59.99880002,627c6715c52fd12f31907bcf,,,,,,,,,,,,,,,,,,,,,,,a,1,3.1332,"[""0.322"",""0.478"",""0.606"",""0.876""]","[1,1,0,1]",0,15,15,15,1,0,0,,,0,FALSE,,,,,,,,,,,,,,,,,,,,,,,,,,,,,,,
,6175ef3720a77a161dbe7cdc,627c6f20d1967c145333bea1,2022-05-11_21h22.00.046,classification_task,2021.2.3,Win32,59.99880002,627c6715c52fd12f31907bcf,,,,,,,,,,,,,,,,,,,,,,,l,1,1.6029,"[""0.106"",""0.368"",""0.646"",""0.443""]","[1,1,1,0]",0,16,16,16,1,1,0,,,0,FALSE,,,,,,,,,,,,,,,,,,,,,,,,,,,,,,,
,6175ef3720a77a161dbe7cdc,627c6f20d1967c145333bea1,2022-05-11_21h22.00.046,classification_task,2021.2.3,Win32,59.99880002,627c6715c52fd12f31907bcf,,,,,,,,,,,,,,,,,,,,,,,a,1,1.3945,"[""0.322"",""0.478"",""0.606"",""0.876""]","[1,1,0,1]",0,17,17,17,1,0,0,,,0,FALSE,,,,,,,,,,,,,,,,,,,,,,,,,,,,,,,
,6175ef3720a77a161dbe7cdc,627c6f20d1967c145333bea1,2022-05-11_21h22.00.046,classification_task,2021.2.3,Win32,59.99880002,627c6715c52fd12f31907bcf,,,,,,,,,,,,,,,,,,,,,,,a,1,1.2568,"[""0.322"",""0.478"",""0.687"",""0.600""]","[1,1,1,0]",0,18,18,18,1,0,0,,,0,FALSE,,,,,,,,,,,,,,,,,,,,,,,,,,,,,,,
,6175ef3720a77a161dbe7cdc,627c6f20d1967c145333bea1,2022-05-11_21h22.00.046,classification_task,2021.2.3,Win32,59.99880002,627c6715c52fd12f31907bcf,,,,,,,,,,,,,,,,,,,,,,,l,1,2.1145,"[""0.066"",""0.238"",""0.523"",""0.141""]","[1,1,1,0]",0,19,19,19,1,1,1,,,0,FALSE,,,,,,,,,,,,,,,,,,,,,,,,,,,,,,,
,6175ef3720a77a161dbe7cdc,627c6f20d1967c145333bea1,2022-05-11_21h22.00.046,classification_task,2021.2.3,Win32,59.99880002,627c6715c52fd12f31907bcf,,,,,,,,,,,,,,,,,,,,,,,a,1,2.0978,"[""0.179"",""0.404"",""0.911"",""0.804""]","[1,1,1,0]",0,20,20,20,1,0,1,,,0,FALSE,,,,,,,,,,,,,,,,,,,,,,,,,,,,,,,
,6175ef3720a77a161dbe7cdc,627c6f20d1967c145333bea1,2022-05-11_21h22.00.046,classification_task,2021.2.3,Win32,59.99880002,627c6715c52fd12f31907bcf,,,,,,,,,,,,,,,,,,,,,,,a,1,4.1072,"[""0.179"",""0.404"",""0.141"",""0.945""]","[1,1,0,1]",0,21,21,21,1,0,1,,,0,FALSE,,,,,,,,,,,,,,,,,,,,,,,,,,,,,,,
,6175ef3720a77a161dbe7cdc,627c6f20d1967c145333bea1,2022-05-11_21h22.00.046,classification_task,2021.2.3,Win32,59.99880002,627c6715c52fd12f31907bcf,,,,,,,,,,,,,,,,,,,,,,,l,1,3.4372,"[""0.612"",""0.238"",""0.523"",""0.721""]","[0,1,1,1]",0,22,22,22,1,1,1,,,0,FALSE,,,,,,,,,,,,,,,,,,,,,,,,,,,,,,,
,6175ef3720a77a161dbe7cdc,627c6f20d1967c145333bea1,2022-05-11_21h22.00.046,classification_task,2021.2.3,Win32,59.99880002,627c6715c52fd12f31907bcf,,,,,,,,,,,,,,,,,,,,,,,a,0,1.8483,"[""0.066"",""0.437"",""0.523"",""0.721""]","[1,0,1,1]",0,23,23,23,1,1,1,,,0,FALSE,,,,,,,,,,,,,,,,,,,,,,,,,,,,,,,
,6175ef3720a77a161dbe7cdc,627c6f20d1967c145333bea1,2022-05-11_21h22.00.046,classification_task,2021.2.3,Win32,59.99880002,627c6715c52fd12f31907bcf,,,,,,,,,,,,,,,,,,,,,,,l,0,3.3487,"[""0.804"",""0.478"",""0.687"",""0.876""]","[0,1,1,1]",0,24,24,24,1,0,0,,,0,FALSE,,,,,,,,,,,,,,,,,,,,,,,,,,,,,,,
,6175ef3720a77a161dbe7cdc,627c6f20d1967c145333bea1,2022-05-11_21h22.00.046,classification_task,2021.2.3,Win32,59.99880002,627c6715c52fd12f31907bcf,,,,,,,,,,,,,,,,,,,,,,,a,0,2.9295,"[""0.600"",""0.368"",""0.646"",""0.768""]","[0,1,1,1]",0,25,25,25,1,1,0,,,0,FALSE,,,,,,,,,,,,,,,,,,,,,,,,,,,,,,,
,6175ef3720a77a161dbe7cdc,627c6f20d1967c145333bea1,2022-05-11_21h22.00.046,classification_task,2021.2.3,Win32,59.99880002,627c6715c52fd12f31907bcf,,,,,,,,,,,,,,,,,,,,,,,a,1,0.404,"[""0.843"",""0.404"",""0.911"",""0.945""]","[0,1,1,1]",0,26,26,26,1,0,1,,,0,FALSE,,,,,,,,,,,,,,,,,,,,,,,,,,,,,,,
,6175ef3720a77a161dbe7cdc,627c6f20d1967c145333bea1,2022-05-11_21h22.00.046,classification_task,2021.2.3,Win32,59.99880002,627c6715c52fd12f31907bcf,,,,,,,,,,,,,,,,,,,,,,,l,1,0.6902,"[""0.066"",""0.238"",""0.437"",""0.721""]","[1,1,0,1]",0,27,27,27,1,1,1,,,0,FALSE,,,,,,,,,,,,,,,,,,,,,,,,,,,,,,,
,6175ef3720a77a161dbe7cdc,627c6f20d1967c145333bea1,2022-05-11_21h22.00.046,classification_task,2021.2.3,Win32,59.99880002,627c6715c52fd12f31907bcf,,,,,,,,,,,,,,,,,,,,,,,a,0,0.3211,"[""0.106"",""0.368"",""0.578"",""0.768""]","[1,1,0,1]",0,28,28,28,1,1,0,,,0,FALSE,,,,,,,,,,,,,,,,,,,,,,,,,,,,,,,
,6175ef3720a77a161dbe7cdc,627c6f20d1967c145333bea1,2022-05-11_21h22.00.046,classification_task,2021.2.3,Win32,59.99880002,627c6715c52fd12f31907bcf,,,,,,,,,,,,,,,,,,,,,,,a,1,0.2565,"[""0.322"",""0.443"",""0.687"",""0.876""]","[1,0,1,1]",0,29,29,29,1,0,0,,,0,FALSE,,,,,,,,,,,,,,,,,,,,,,,,,,,,,,,
,6175ef3720a77a161dbe7cdc,627c6f20d1967c145333bea1,2022-05-11_21h22.00.046,classification_task,2021.2.3,Win32,59.99880002,627c6715c52fd12f31907bcf,,,,,,,,,,,,,,,,,,,,,,,a,1,2.4311,"[""0.179"",""0.804"",""0.911"",""0.945""]","[1,0,1,1]",0,30,30,30,1,0,1,,,0,FALSE,,,,,,,,,,,,,,,,,,,,,,,,,,,,,,,
,6175ef3720a77a161dbe7cdc,627c6f20d1967c145333bea1,2022-05-11_21h22.00.046,classification_task,2021.2.3,Win32,59.99880002,627c6715c52fd12f31907bcf,,,,,,,,,,,,,,,,,,,,,,,l,1,1.7209,"[""0.106"",""0.141"",""0.646"",""0.768""]","[1,0,1,1]",0,31,31,31,1,1,0,,,0,FALSE,,,,,,,,,,,,,,,,,,,,,,,,,,,,,,,
,6175ef3720a77a161dbe7cdc,627c6f20d1967c145333bea1,2022-05-11_21h22.00.046,classification_task,2021.2.3,Win32,59.99880002,627c6715c52fd12f31907bcf,,,,,,,,,,,,,,,,,,,,,,,l,1,2.961,"[""0.066"",""0.238"",""0.812"",""0.721""]","[1,1,0,1]",0,32,32,32,1,1,1,,,0,FALSE,,,,,,,,,,,,,,,,,,,,,,,,,,,,,,,
,6175ef3720a77a161dbe7cdc,627c6f20d1967c145333bea1,2022-05-11_21h22.00.046,classification_task,2021.2.3,Win32,59.99880002,627c6715c52fd12f31907bcf,,,,,,,,,,,,,,,,,,,,,,,a,0,1.3211,"[""0.587"",""0.238"",""0.523"",""0.721""]","[0,1,1,1]",0,33,33,33,1,1,1,,,0,FALSE,,,,,,,,,,,,,,,,,,,,,,,,,,,,,,,
,6175ef3720a77a161dbe7cdc,627c6f20d1967c145333bea1,2022-05-11_21h22.00.046,classification_task,2021.2.3,Win32,59.99880002,627c6715c52fd12f31907bcf,,,,,,,,,,,,,,,,,,,,,,,a,1,0.894,"[""0.179"",""0.843"",""0.911"",""0.945""]","[1,0,1,1]",0,34,34,34,1,0,1,,,0,FALSE,,,,,,,,,,,,,,,,,,,,,,,,,,,,,,,
,6175ef3720a77a161dbe7cdc,627c6f20d1967c145333bea1,2022-05-11_21h22.00.046,classification_task,2021.2.3,Win32,59.99880002,627c6715c52fd12f31907bcf,,,,,,,,,,,,,,,,,,,,,,,l,1,0.7156,"[""0.066"",""0.144"",""0.523"",""0.721""]","[1,0,1,1]",0,35,35,35,1,1,1,,,0,FALSE,,,,,,,,,,,,,,,,,,,,,,,,,,,,,,,
,6175ef3720a77a161dbe7cdc,627c6f20d1967c145333bea1,2022-05-11_21h22.00.046,classification_task,2021.2.3,Win32,59.99880002,627c6715c52fd12f31907bcf,,,,,,,,,,,,,,,,,,,,,,,a,0,1.5848,"[""0.066"",""0.238"",""0.523"",""0.280""]","[1,1,1,0]",0,36,36,36,1,1,1,,,0,FALSE,,,,,,,,,,,,,,,,,,,,,,,,,,,,,,,
,6175ef3720a77a161dbe7cdc,627c6f20d1967c145333bea1,2022-05-11_21h22.00.046,classification_task,2021.2.3,Win32,59.99880002,627c6715c52fd12f31907bcf,,,,,,,,,,,,,,,,,,,,,,,a,1,1.2739,"[""0.322"",""0.478"",""0.687"",""0.600""]","[1,1,1,0]",0,37,37,37,1,0,0,,,0,FALSE,,,,,,,,,,,,,,,,,,,,,,,,,,,,,,,
,6175ef3720a77a161dbe7cdc,627c6f20d1967c145333bea1,2022-05-11_21h22.00.046,classification_task,2021.2.3,Win32,59.99880002,627c6715c52fd12f31907bcf,,,,,,,,,,,,,,,,,,,,,,,a,1,1.2186,"[""0.179"",""0.404"",""0.812"",""0.945""]","[1,1,0,1]",0,38,38,38,1,0,1,,,0,FALSE,,,,,,,,,,,,,,,,,,,,,,,,,,,,,,,
,6175ef3720a77a161dbe7cdc,627c6f20d1967c145333bea1,2022-05-11_21h22.00.046,classification_task,2021.2.3,Win32,59.99880002,627c6715c52fd12f31907bcf,,,,,,,,,,,,,,,,,,,,,,,l,1,1.2728,"[""0.106"",""0.368"",""0.646"",""0.443""]","[1,1,1,0]",0,39,39,39,1,1,0,,,0,FALSE,,,,,,,,,,,,,,,,,,,,,,,,,,,,,,,
,6175ef3720a77a161dbe7cdc,627c6f20d1967c145333bea1,2022-05-11_21h22.00.046,classification_task,2021.2.3,Win32,59.99880002,627c6715c52fd12f31907bcf,,,,,,,,,,,,,,,,,,,,,,,l,1,1.297,"[""0.106"",""0.587"",""0.646"",""0.768""]","[1,0,1,1]",0,40,40,40,1,1,0,,,0,FALSE,,,,,,,,,,,,,,,,,,,,,,,,,,,,,,,
,6175ef3720a77a161dbe7cdc,627c6f20d1967c145333bea1,2022-05-11_21h22.00.046,classification_task,2021.2.3,Win32,59.99880002,627c6715c52fd12f31907bcf,,,,,,,,,,,,,,,,,,,,,,,a,1,0.9661,"[""0.179"",""0.404"",""0.911"",""0.443""]","[1,1,1,0]",0,41,41,41,1,0,1,,,0,FALSE,,,,,,,,,,,,,,,,,,,,,,,,,,,,,,,
,6175ef3720a77a161dbe7cdc,627c6f20d1967c145333bea1,2022-05-11_21h22.00.046,classification_task,2021.2.3,Win32,59.99880002,627c6715c52fd12f31907bcf,,,,,,,,,,,,,,,,,,,,,,,a,1,1.3668,"[""0.578"",""0.478"",""0.687"",""0.876""]","[0,1,1,1]",0,42,42,42,1,0,0,,,0,FALSE,,,,,,,,,,,,,,,,,,,,,,,,,,,,,,,
,6175ef3720a77a161dbe7cdc,627c6f20d1967c145333bea1,2022-05-11_21h22.00.046,classification_task,2021.2.3,Win32,59.99880002,627c6715c52fd12f31907bcf,,,,,,,,,,,,,,,,,,,,,,,l,0,1.1409,"[""0.322"",""0.478"",""0.600"",""0.876""]","[1,1,0,1]",0,43,43,43,1,0,0,,,0,FALSE,,,,,,,,,,,,,,,,,,,,,,,,,,,,,,,
,6175ef3720a77a161dbe7cdc,627c6f20d1967c145333bea1,2022-05-11_21h22.00.046,classification_task,2021.2.3,Win32,59.99880002,627c6715c52fd12f31907bcf,,,,,,,,,,,,,,,,,,,,,,,l,1,1.0593,"[""0.106"",""0.368"",""0.812"",""0.768""]","[1,1,0,1]",0,44,44,44,1,1,0,,,0,FALSE,,,,,,,,,,,,,,,,,,,,,,,,,,,,,,,
,6175ef3720a77a161dbe7cdc,627c6f20d1967c145333bea1,2022-05-11_21h22.00.046,classification_task,2021.2.3,Win32,59.99880002,627c6715c52fd12f31907bcf,,,,,,,,,,,,,,,,,,,,,,,a,0,0.9574,"[""0.141"",""0.368"",""0.646"",""0.768""]","[0,1,1,1]",0,45,45,45,1,1,0,,,0,FALSE,,,,,,,,,,,,,,,,,,,,,,,,,,,,,,,
,6175ef3720a77a161dbe7cdc,627c6f20d1967c145333bea1,2022-05-11_21h22.00.046,classification_task,2021.2.3,Win32,59.99880002,627c6715c52fd12f31907bcf,,,,,,,,,,,,,,,,,,,,,,,a,1,0.8973,"[""0.322"",""0.804"",""0.687"",""0.876""]","[1,0,1,1]",0,46,46,46,1,0,0,,,0,FALSE,,,,,,,,,,,,,,,,,,,,,,,,,,,,,,,
,6175ef3720a77a161dbe7cdc,627c6f20d1967c145333bea1,2022-05-11_21h22.00.046,classification_task,2021.2.3,Win32,59.99880002,627c6715c52fd12f31907bcf,,,,,,,,,,,,,,,,,,,,,,,a,1,1.6926,"[""0.568"",""0.404"",""0.911"",""0.945""]","[0,1,1,1]",0,47,47,47,1,0,1,,,0,FALSE,,,,,,,,,,,,,,,,,,,,,,,,,,,,,,,
,6175ef3720a77a161dbe7cdc,627c6f20d1967c145333bea1,2022-05-11_21h22.00.046,classification_task,2021.2.3,Win32,59.99880002,627c6715c52fd12f31907bcf,,,,,,,,,,,,,,,,,,,,,,,l,0,1.4134,"[""0.179"",""0.404"",""0.911"",""0.578""]","[1,1,1,0]",0,48,48,48,1,0,1,,,0,FALSE,,,,,,,,,,,,,,,,,,,,,,,,,,,,,,,
,6175ef3720a77a161dbe7cdc,627c6f20d1967c145333bea1,2022-05-11_21h22.00.046,classification_task,2021.2.3,Win32,59.99880002,627c6715c52fd12f31907bcf,,,,,,,,,,,,,,,,,,,,,,,a,1,0.9581,"[""0.179"",""0.404"",""0.820"",""0.945""]","[1,1,0,1]",0,49,49,49,1,0,1,,,0,FALSE,,,,,,,,,,,,,,,,,,,,,,,,,,,,,,,
,6175ef3720a77a161dbe7cdc,627c6f20d1967c145333bea1,2022-05-11_21h22.00.046,classification_task,2021.2.3,Win32,59.99880002,627c6715c52fd12f31907bcf,,,,,,,,,,,,,,,,,,,,,,,a,1,1.001,"[""0.322"",""0.144"",""0.687"",""0.876""]","[1,0,1,1]",0,50,50,50,1,0,0,,,0,FALSE,,,,,,,,,,,,,,,,,,,,,,,,,,,,,,,
,6175ef3720a77a161dbe7cdc,627c6f20d1967c145333bea1,2022-05-11_21h22.00.046,classification_task,2021.2.3,Win32,59.99880002,627c6715c52fd12f31907bcf,,,,,,,,,,,,,,,,,,,,,,,l,1,0.9608,"[""0.066"",""0.238"",""0.568"",""0.721""]","[1,1,0,1]",0,51,51,51,1,1,1,,,0,FALSE,,,,,,,,,,,,,,,,,,,,,,,,,,,,,,,
,6175ef3720a77a161dbe7cdc,627c6f20d1967c145333bea1,2022-05-11_21h22.00.046,classification_task,2021.2.3,Win32,59.99880002,627c6715c52fd12f31907bcf,,,,,,,,,,,,,,,,,,,,,,,l,1,0.8443,"[""0.066"",""0.238"",""0.523"",""0.437""]","[1,1,1,0]",0,52,52,52,1,1,1,,,0,FALSE,,,,,,,,,,,,,,,,,,,,,,,,,,,,,,,
,6175ef3720a77a161dbe7cdc,627c6f20d1967c145333bea1,2022-05-11_21h22.00.046,classification_task,2021.2.3,Win32,59.99880002,627c6715c52fd12f31907bcf,,,,,,,,,,,,,,,,,,,,,,,a,1,1.0838,"[""0.141"",""0.478"",""0.687"",""0.876""]","[0,1,1,1]",0,53,53,53,1,0,0,,,0,FALSE,,,,,,,,,,,,,,,,,,,,,,,,,,,,,,,
,6175ef3720a77a161dbe7cdc,627c6f20d1967c145333bea1,2022-05-11_21h22.00.046,classification_task,2021.2.3,Win32,59.99880002,627c6715c52fd12f31907bcf,,,,,,,,,,,,,,,,,,,,,,,a,0,0.7816,"[""0.144"",""0.368"",""0.646"",""0.768""]","[0,1,1,1]",0,54,54,54,1,1,0,,,0,FALSE,,,,,,,,,,,,,,,,,,,,,,,,,,,,,,,
,6175ef3720a77a161dbe7cdc,627c6f20d1967c145333bea1,2022-05-11_21h22.00.046,classification_task,2021.2.3,Win32,59.99880002,627c6715c52fd12f31907bcf,,,,,,,,,,,,,,,,,,,,,,,l,1,1.5215,"[""0.106"",""0.831"",""0.646"",""0.768""]","[1,0,1,1]",0,55,55,55,1,1,0,,,0,FALSE,,,,,,,,,,,,,,,,,,,,,,,,,,,,,,,
,6175ef3720a77a161dbe7cdc,627c6f20d1967c145333bea1,2022-05-11_21h22.00.046,classification_task,2021.2.3,Win32,59.99880002,627c6715c52fd12f31907bcf,,,,,,,,,,,,,,,,,,,,,,,a,1,0.883,"[""0.179"",""0.437"",""0.911"",""0.945""]","[1,0,1,1]",0,56,56,56,1,0,1,,,0,FALSE,,,,,,,,,,,,,,,,,,,,,,,,,,,,,,,
,6175ef3720a77a161dbe7cdc,627c6f20d1967c145333bea1,2022-05-11_21h22.00.046,classification_task,2021.2.3,Win32,59.99880002,627c6715c52fd12f31907bcf,,,,,,,,,,,,,,,,,,,,,,,l,1,0.9874,"[""0.066"",""0.568"",""0.523"",""0.721""]","[1,0,1,1]",0,57,57,57,1,1,1,,,0,FALSE,,,,,,,,,,,,,,,,,,,,,,,,,,,,,,,
,6175ef3720a77a161dbe7cdc,627c6f20d1967c145333bea1,2022-05-11_21h22.00.046,classification_task,2021.2.3,Win32,59.99880002,627c6715c52fd12f31907bcf,,,,,,,,,,,,,,,,,,,,,,,a,1,0.9616,"[""0.322"",""0.478"",""0.820"",""0.876""]","[1,1,0,1]",0,58,58,58,1,0,0,,,0,FALSE,,,,,,,,,,,,,,,,,,,,,,,,,,,,,,,
,6175ef3720a77a161dbe7cdc,627c6f20d1967c145333bea1,2022-05-11_21h22.00.046,classification_task,2021.2.3,Win32,59.99880002,627c6715c52fd12f31907bcf,,,,,,,,,,,,,,,,,,,,,,,a,1,0.9933,"[""0.612"",""0.404"",""0.911"",""0.945""]","[0,1,1,1]",0,59,59,59,1,0,1,,,0,FALSE,,,,,,,,,,,,,,,,,,,,,,,,,,,,,,,
,6175ef3720a77a161dbe7cdc,627c6f20d1967c145333bea1,2022-05-11_21h22.00.046,classification_task,2021.2.3,Win32,59.99880002,627c6715c52fd12f31907bcf,,,,,,,,,,,,,,,,,,,,,,,l,0,1.0555,"[""0.322"",""0.478"",""0.687"",""0.843""]","[1,1,1,0]",0,60,60,60,1,0,0,,,0,FALSE,,,,,,,,,,,,,,,,,,,,,,,,,,,,,,,
,6175ef3720a77a161dbe7cdc,627c6f20d1967c145333bea1,2022-05-11_21h22.00.046,classification_task,2021.2.3,Win32,59.99880002,627c6715c52fd12f31907bcf,,,,,,,,,,,,,,,,,,,,,,,l,1,0.9846,"[""0.106"",""0.368"",""0.578"",""0.768""]","[1,1,0,1]",0,61,61,61,1,1,0,,,0,FALSE,,,,,,,,,,,,,,,,,,,,,,,,,,,,,,,
,6175ef3720a77a161dbe7cdc,627c6f20d1967c145333bea1,2022-05-11_21h22.00.046,classification_task,2021.2.3,Win32,59.99880002,627c6715c52fd12f31907bcf,,,,,,,,,,,,,,,,,,,,,,,a,0,1.1435,"[""0.437"",""0.238"",""0.523"",""0.721""]","[0,1,1,1]",0,62,62,62,1,1,1,,,0,FALSE,,,,,,,,,,,,,,,,,,,,,,,,,,,,,,,
,6175ef3720a77a161dbe7cdc,627c6f20d1967c145333bea1,2022-05-11_21h22.00.046,classification_task,2021.2.3,Win32,59.99880002,627c6715c52fd12f31907bcf,,,,,,,,,,,,,,,,,,,,,,,l,1,0.8996,"[""0.106"",""0.368"",""0.646"",""0.568""]","[1,1,1,0]",0,63,63,63,1,1,0,,,0,FALSE,,,,,,,,,,,,,,,,,,,,,,,,,,,,,,,
,6175ef3720a77a161dbe7cdc,627c6f20d1967c145333bea1,2022-05-11_21h22.00.046,classification_task,2021.2.3,Win32,59.99880002,627c6715c52fd12f31907bcf,,,,,,,,,,,,,,,,,,,,,,,,,,,,,,,,,,,,,,,0, ,,0,1.521653929,302.8742,0,0,0,0,1,2,1,,,,,,,,,,,,,,,,,,
,6175ef3720a77a161dbe7cdc,627c6f20d1967c145333bea1,2022-05-11_21h22.00.046,classification_task,2021.2.3,Win32,59.99880002,627c6715c52fd12f31907bcf,,,,,,,,,,,,,,,,,,,,,,,,,,,,,,,,,,,,,,,1,  ,,0,2.721928277,307.1736,0,0,0,0,1,2,1,,,,,,,,,,,,,,,,,,
,6175ef3720a77a161dbe7cdc,627c6f20d1967c145333bea1,2022-05-11_21h22.00.046,classification_task,2021.2.3,Win32,59.99880002,627c6715c52fd12f31907bcf,,,,,,,,,,,,,,,,,,,,,,,,,,,,,,,,,,,,,,,2,  ,,0,8.600823045,311.0388,0,0,0,0,1,2,1,,,,,,,,,,,,,,,,,,
,6175ef3720a77a161dbe7cdc,627c6f20d1967c145333bea1,2022-05-11_21h22.00.046,classification_task,2021.2.3,Win32,59.99880002,627c6715c52fd12f31907bcf,,,,,,,,,,,,,,,,,,,,,,,,,,,,,,,,,,,,,,,,,,,,,0,0,0,0,1,,1,,,,,,,,,,,,,,,,,,
,6175ef3720a77a161dbe7cdc,627c6f20d1967c145333bea1,2022-05-11_21h22.00.046,classification_task,2021.2.3,Win32,59.99880002,627c6715c52fd12f31907bcf,,,,,,,,,,,,,,,,,,,,,space,9.2007,a,1,1.9941,"[""0.443"",""0.404"",""0.911"",""0.945""]","[0,1,1,1]",0,0,0,0,1,0,1,,,0,FALSE,,,,,,,,,,,,,,,,,,,,,,,,,,,,,,,
,6175ef3720a77a161dbe7cdc,627c6f20d1967c145333bea1,2022-05-11_21h22.00.046,classification_task,2021.2.3,Win32,59.99880002,627c6715c52fd12f31907bcf,,,,,,,,,,,,,,,,,,,,,,,a,0,1.6583,"[""0.437"",""0.238"",""0.523"",""0.721""]","[0,1,1,1]",0,1,1,1,1,1,1,,,0,FALSE,,,,,,,,,,,,,,,,,,,,,,,,,,,,,,,
,6175ef3720a77a161dbe7cdc,627c6f20d1967c145333bea1,2022-05-11_21h22.00.046,classification_task,2021.2.3,Win32,59.99880002,627c6715c52fd12f31907bcf,,,,,,,,,,,,,,,,,,,,,,,a,1,2.0626,"[""0.144"",""0.478"",""0.687"",""0.876""]","[0,1,1,1]",0,2,2,2,1,0,0,,,0,FALSE,,,,,,,,,,,,,,,,,,,,,,,,,,,,,,,
,6175ef3720a77a161dbe7cdc,627c6f20d1967c145333bea1,2022-05-11_21h22.00.046,classification_task,2021.2.3,Win32,59.99880002,627c6715c52fd12f31907bcf,,,,,,,,,,,,,,,,,,,,,,,a,0,1.1731,"[""0.066"",""0.606"",""0.523"",""0.721""]","[1,0,1,1]",0,3,3,3,1,1,1,,,0,FALSE,,,,,,,,,,,,,,,,,,,,,,,,,,,,,,,
,6175ef3720a77a161dbe7cdc,627c6f20d1967c145333bea1,2022-05-11_21h22.00.046,classification_task,2021.2.3,Win32,59.99880002,627c6715c52fd12f31907bcf,,,,,,,,,,,,,,,,,,,,,,,l,1,1.7494,"[""0.106"",""0.368"",""0.646"",""0.280""]","[1,1,1,0]",0,4,4,4,1,1,0,,,0,FALSE,,,,,,,,,,,,,,,,,,,,,,,,,,,,,,,
,6175ef3720a77a161dbe7cdc,627c6f20d1967c145333bea1,2022-05-11_21h22.00.046,classification_task,2021.2.3,Win32,59.99880002,627c6715c52fd12f31907bcf,,,,,,,,,,,,,,,,,,,,,,,a,1,0.781,"[""0.179"",""0.437"",""0.911"",""0.945""]","[1,0,1,1]",0,5,5,5,1,0,1,,,0,FALSE,,,,,,,,,,,,,,,,,,,,,,,,,,,,,,,
,6175ef3720a77a161dbe7cdc,627c6f20d1967c145333bea1,2022-05-11_21h22.00.046,classification_task,2021.2.3,Win32,59.99880002,627c6715c52fd12f31907bcf,,,,,,,,,,,,,,,,,,,,,,,a,1,0.7643,"[""0.322"",""0.820"",""0.687"",""0.876""]","[1,0,1,1]",0,6,6,6,1,0,0,,,0,FALSE,,,,,,,,,,,,,,,,,,,,,,,,,,,,,,,
,6175ef3720a77a161dbe7cdc,627c6f20d1967c145333bea1,2022-05-11_21h22.00.046,classification_task,2021.2.3,Win32,59.99880002,627c6715c52fd12f31907bcf,,,,,,,,,,,,,,,,,,,,,,,l,1,0.5732,"[""0.106"",""0.568"",""0.646"",""0.768""]","[1,0,1,1]",0,7,7,7,1,1,0,,,0,FALSE,,,,,,,,,,,,,,,,,,,,,,,,,,,,,,,
,6175ef3720a77a161dbe7cdc,627c6f20d1967c145333bea1,2022-05-11_21h22.00.046,classification_task,2021.2.3,Win32,59.99880002,627c6715c52fd12f31907bcf,,,,,,,,,,,,,,,,,,,,,,,a,0,0.751,"[""0.066"",""0.238"",""0.141"",""0.721""]","[1,1,0,1]",0,8,8,8,1,1,1,,,0,FALSE,,,,,,,,,,,,,,,,,,,,,,,,,,,,,,,
,6175ef3720a77a161dbe7cdc,627c6f20d1967c145333bea1,2022-05-11_21h22.00.046,classification_task,2021.2.3,Win32,59.99880002,627c6715c52fd12f31907bcf,,,,,,,,,,,,,,,,,,,,,,,l,1,0.8194,"[""0.843"",""0.368"",""0.646"",""0.768""]","[0,1,1,1]",0,9,9,9,1,1,0,,,0,FALSE,,,,,,,,,,,,,,,,,,,,,,,,,,,,,,,
,6175ef3720a77a161dbe7cdc,627c6f20d1967c145333bea1,2022-05-11_21h22.00.046,classification_task,2021.2.3,Win32,59.99880002,627c6715c52fd12f31907bcf,,,,,,,,,,,,,,,,,,,,,,,a,0,0.8808,"[""0.066"",""0.238"",""0.523"",""0.812""]","[1,1,1,0]",0,10,10,10,1,1,1,,,0,FALSE,,,,,,,,,,,,,,,,,,,,,,,,,,,,,,,
,6175ef3720a77a161dbe7cdc,627c6f20d1967c145333bea1,2022-05-11_21h22.00.046,classification_task,2021.2.3,Win32,59.99880002,627c6715c52fd12f31907bcf,,,,,,,,,,,,,,,,,,,,,,,a,1,0.7806,"[""0.179"",""0.404"",""0.612"",""0.945""]","[1,1,0,1]",0,11,11,11,1,0,1,,,0,FALSE,,,,,,,,,,,,,,,,,,,,,,,,,,,,,,,
,6175ef3720a77a161dbe7cdc,627c6f20d1967c145333bea1,2022-05-11_21h22.00.046,classification_task,2021.2.3,Win32,59.99880002,627c6715c52fd12f31907bcf,,,,,,,,,,,,,,,,,,,,,,,l,1,1.6117,"[""0.106"",""0.368"",""0.843"",""0.768""]","[1,1,0,1]",0,12,12,12,1,1,0,,,0,FALSE,,,,,,,,,,,,,,,,,,,,,,,,,,,,,,,
,6175ef3720a77a161dbe7cdc,627c6f20d1967c145333bea1,2022-05-11_21h22.00.046,classification_task,2021.2.3,Win32,59.99880002,627c6715c52fd12f31907bcf,,,,,,,,,,,,,,,,,,,,,,,a,1,1.1695,"[""0.179"",""0.404"",""0.911"",""0.587""]","[1,1,1,0]",0,13,13,13,1,0,1,,,0,FALSE,,,,,,,,,,,,,,,,,,,,,,,,,,,,,,,
,6175ef3720a77a161dbe7cdc,627c6f20d1967c145333bea1,2022-05-11_21h22.00.046,classification_task,2021.2.3,Win32,59.99880002,627c6715c52fd12f31907bcf,,,,,,,,,,,,,,,,,,,,,,,a,1,0.781,"[""0.322"",""0.478"",""0.141"",""0.876""]","[1,1,0,1]",0,14,14,14,1,0,0,,,0,FALSE,,,,,,,,,,,,,,,,,,,,,,,,,,,,,,,
,6175ef3720a77a161dbe7cdc,627c6f20d1967c145333bea1,2022-05-11_21h22.00.046,classification_task,2021.2.3,Win32,59.99880002,627c6715c52fd12f31907bcf,,,,,,,,,,,,,,,,,,,,,,,a,1,0.7623,"[""0.322"",""0.478"",""0.687"",""0.437""]","[1,1,1,0]",0,15,15,15,1,0,0,,,0,FALSE,,,,,,,,,,,,,,,,,,,,,,,,,,,,,,,
,6175ef3720a77a161dbe7cdc,627c6f20d1967c145333bea1,2022-05-11_21h22.00.046,classification_task,2021.2.3,Win32,59.99880002,627c6715c52fd12f31907bcf,,,,,,,,,,,,,,,,,,,,,,,a,1,1.2294,"[""0.179"",""0.404"",""0.911"",""0.568""]","[1,1,1,0]",0,16,16,16,1,0,1,,,0,FALSE,,,,,,,,,,,,,,,,,,,,,,,,,,,,,,,
,6175ef3720a77a161dbe7cdc,627c6f20d1967c145333bea1,2022-05-11_21h22.00.046,classification_task,2021.2.3,Win32,59.99880002,627c6715c52fd12f31907bcf,,,,,,,,,,,,,,,,,,,,,,,a,1,0.7834,"[""0.179"",""0.804"",""0.911"",""0.945""]","[1,0,1,1]",0,17,17,17,1,0,1,,,0,FALSE,,,,,,,,,,,,,,,,,,,,,,,,,,,,,,,
,6175ef3720a77a161dbe7cdc,627c6f20d1967c145333bea1,2022-05-11_21h22.00.046,classification_task,2021.2.3,Win32,59.99880002,627c6715c52fd12f31907bcf,,,,,,,,,,,,,,,,,,,,,,,l,1,0.8458,"[""0.600"",""0.238"",""0.523"",""0.721""]","[0,1,1,1]",0,18,18,18,1,1,1,,,0,FALSE,,,,,,,,,,,,,,,,,,,,,,,,,,,,,,,
,6175ef3720a77a161dbe7cdc,627c6f20d1967c145333bea1,2022-05-11_21h22.00.046,classification_task,2021.2.3,Win32,59.99880002,627c6715c52fd12f31907bcf,,,,,,,,,,,,,,,,,,,,,,,l,1,1.0533,"[""0.066"",""0.238"",""0.820"",""0.721""]","[1,1,0,1]",0,19,19,19,1,1,1,,,0,FALSE,,,,,,,,,,,,,,,,,,,,,,,,,,,,,,,
,6175ef3720a77a161dbe7cdc,627c6f20d1967c145333bea1,2022-05-11_21h22.00.046,classification_task,2021.2.3,Win32,59.99880002,627c6715c52fd12f31907bcf,,,,,,,,,,,,,,,,,,,,,,,a,1,1.2459,"[""0.568"",""0.404"",""0.911"",""0.945""]","[0,1,1,1]",0,20,20,20,1,0,1,,,0,FALSE,,,,,,,,,,,,,,,,,,,,,,,,,,,,,,,
,6175ef3720a77a161dbe7cdc,627c6f20d1967c145333bea1,2022-05-11_21h22.00.046,classification_task,2021.2.3,Win32,59.99880002,627c6715c52fd12f31907bcf,,,,,,,,,,,,,,,,,,,,,,,l,1,0.9456,"[""0.106"",""0.368"",""0.144"",""0.768""]","[1,1,0,1]",0,21,21,21,1,1,0,,,0,FALSE,,,,,,,,,,,,,,,,,,,,,,,,,,,,,,,
,6175ef3720a77a161dbe7cdc,627c6f20d1967c145333bea1,2022-05-11_21h22.00.046,classification_task,2021.2.3,Win32,59.99880002,627c6715c52fd12f31907bcf,,,,,,,,,,,,,,,,,,,,,,,a,1,0.6051,"[""0.322"",""0.478"",""0.831"",""0.876""]","[1,1,0,1]",0,22,22,22,1,0,0,,,0,FALSE,,,,,,,,,,,,,,,,,,,,,,,,,,,,,,,
,6175ef3720a77a161dbe7cdc,627c6f20d1967c145333bea1,2022-05-11_21h22.00.046,classification_task,2021.2.3,Win32,59.99880002,627c6715c52fd12f31907bcf,,,,,,,,,,,,,,,,,,,,,,,l,1,0.6696,"[""0.106"",""0.437"",""0.646"",""0.768""]","[1,0,1,1]",0,23,23,23,1,1,0,,,0,FALSE,,,,,,,,,,,,,,,,,,,,,,,,,,,,,,,
,6175ef3720a77a161dbe7cdc,627c6f20d1967c145333bea1,2022-05-11_21h22.00.046,classification_task,2021.2.3,Win32,59.99880002,627c6715c52fd12f31907bcf,,,,,,,,,,,,,,,,,,,,,,,l,1,0.535,"[""0.443"",""0.368"",""0.646"",""0.768""]","[0,1,1,1]",0,24,24,24,1,1,0,,,0,FALSE,,,,,,,,,,,,,,,,,,,,,,,,,,,,,,,
,6175ef3720a77a161dbe7cdc,627c6f20d1967c145333bea1,2022-05-11_21h22.00.046,classification_task,2021.2.3,Win32,59.99880002,627c6715c52fd12f31907bcf,,,,,,,,,,,,,,,,,,,,,,,a,1,0.6042,"[""0.322"",""0.478"",""0.687"",""0.437""]","[1,1,1,0]",0,25,25,25,1,0,0,,,0,FALSE,,,,,,,,,,,,,,,,,,,,,,,,,,,,,,,
,6175ef3720a77a161dbe7cdc,627c6f20d1967c145333bea1,2022-05-11_21h22.00.046,classification_task,2021.2.3,Win32,59.99880002,627c6715c52fd12f31907bcf,,,,,,,,,,,,,,,,,,,,,,,l,1,1.6017,"[""0.066"",""0.804"",""0.523"",""0.721""]","[1,0,1,1]",0,26,26,26,1,1,1,,,0,FALSE,,,,,,,,,,,,,,,,,,,,,,,,,,,,,,,
,6175ef3720a77a161dbe7cdc,627c6f20d1967c145333bea1,2022-05-11_21h22.00.046,classification_task,2021.2.3,Win32,59.99880002,627c6715c52fd12f31907bcf,,,,,,,,,,,,,,,,,,,,,,,a,1,0.9531,"[""0.141"",""0.478"",""0.687"",""0.876""]","[0,1,1,1]",0,27,27,27,1,0,0,,,0,FALSE,,,,,,,,,,,,,,,,,,,,,,,,,,,,,,,
,6175ef3720a77a161dbe7cdc,627c6f20d1967c145333bea1,2022-05-11_21h22.00.046,classification_task,2021.2.3,Win32,59.99880002,627c6715c52fd12f31907bcf,,,,,,,,,,,,,,,,,,,,,,,a,1,1.0273,"[""0.179"",""0.404"",""0.600"",""0.945""]","[1,1,0,1]",0,28,28,28,1,0,1,,,0,FALSE,,,,,,,,,,,,,,,,,,,,,,,,,,,,,,,
,6175ef3720a77a161dbe7cdc,627c6f20d1967c145333bea1,2022-05-11_21h22.00.046,classification_task,2021.2.3,Win32,59.99880002,627c6715c52fd12f31907bcf,,,,,,,,,,,,,,,,,,,,,,,l,1,0.9431,"[""0.066"",""0.238"",""0.523"",""0.812""]","[1,1,1,0]",0,29,29,29,1,1,1,,,0,FALSE,,,,,,,,,,,,,,,,,,,,,,,,,,,,,,,
,6175ef3720a77a161dbe7cdc,627c6f20d1967c145333bea1,2022-05-11_21h22.00.046,classification_task,2021.2.3,Win32,59.99880002,627c6715c52fd12f31907bcf,,,,,,,,,,,,,,,,,,,,,,,a,1,0.656,"[""0.322"",""0.600"",""0.687"",""0.876""]","[1,0,1,1]",0,30,30,30,1,0,0,,,0,FALSE,,,,,,,,,,,,,,,,,,,,,,,,,,,,,,,
,6175ef3720a77a161dbe7cdc,627c6f20d1967c145333bea1,2022-05-11_21h22.00.046,classification_task,2021.2.3,Win32,59.99880002,627c6715c52fd12f31907bcf,,,,,,,,,,,,,,,,,,,,,,,l,1,0.4987,"[""0.106"",""0.368"",""0.646"",""0.578""]","[1,1,1,0]",0,31,31,31,1,1,0,,,0,FALSE,,,,,,,,,,,,,,,,,,,,,,,,,,,,,,,
,6175ef3720a77a161dbe7cdc,627c6f20d1967c145333bea1,2022-05-11_21h22.00.046,classification_task,2021.2.3,Win32,59.99880002,627c6715c52fd12f31907bcf,,,,,,,,,,,,,,,,,,,,,,,a,1,0.4177,"[""0.322"",""0.478"",""0.687"",""0.831""]","[1,1,1,0]",0,32,32,32,1,0,0,,,0,FALSE,,,,,,,,,,,,,,,,,,,,,,,,,,,,,,,
,6175ef3720a77a161dbe7cdc,627c6f20d1967c145333bea1,2022-05-11_21h22.00.046,classification_task,2021.2.3,Win32,59.99880002,627c6715c52fd12f31907bcf,,,,,,,,,,,,,,,,,,,,,,,l,1,0.5049,"[""0.106"",""0.368"",""0.646"",""0.568""]","[1,1,1,0]",0,33,33,33,1,1,0,,,0,FALSE,,,,,,,,,,,,,,,,,,,,,,,,,,,,,,,
,6175ef3720a77a161dbe7cdc,627c6f20d1967c145333bea1,2022-05-11_21h22.00.046,classification_task,2021.2.3,Win32,59.99880002,627c6715c52fd12f31907bcf,,,,,,,,,,,,,,,,,,,,,,,a,0,2.3884,"[""0.831"",""0.238"",""0.523"",""0.721""]","[0,1,1,1]",0,34,34,34,1,1,1,,,0,FALSE,,,,,,,,,,,,,,,,,,,,,,,,,,,,,,,
,6175ef3720a77a161dbe7cdc,627c6f20d1967c145333bea1,2022-05-11_21h22.00.046,classification_task,2021.2.3,Win32,59.99880002,627c6715c52fd12f31907bcf,,,,,,,,,,,,,,,,,,,,,,,l,1,0.9526,"[""0.106"",""0.368"",""0.600"",""0.768""]","[1,1,0,1]",0,35,35,35,1,1,0,,,0,FALSE,,,,,,,,,,,,,,,,,,,,,,,,,,,,,,,
,6175ef3720a77a161dbe7cdc,627c6f20d1967c145333bea1,2022-05-11_21h22.00.046,classification_task,2021.2.3,Win32,59.99880002,627c6715c52fd12f31907bcf,,,,,,,,,,,,,,,,,,,,,,,a,1,1.1994,"[""0.179"",""0.404"",""0.911"",""0.443""]","[1,1,1,0]",0,36,36,36,1,0,1,,,0,FALSE,,,,,,,,,,,,,,,,,,,,,,,,,,,,,,,
,6175ef3720a77a161dbe7cdc,627c6f20d1967c145333bea1,2022-05-11_21h22.00.046,classification_task,2021.2.3,Win32,59.99880002,627c6715c52fd12f31907bcf,,,,,,,,,,,,,,,,,,,,,,,a,1,0.7158,"[""0.322"",""0.578"",""0.687"",""0.876""]","[1,0,1,1]",0,37,37,37,1,0,0,,,0,FALSE,,,,,,,,,,,,,,,,,,,,,,,,,,,,,,,
,6175ef3720a77a161dbe7cdc,627c6f20d1967c145333bea1,2022-05-11_21h22.00.046,classification_task,2021.2.3,Win32,59.99880002,627c6715c52fd12f31907bcf,,,,,,,,,,,,,,,,,,,,,,,l,1,0.9616,"[""0.066"",""0.238"",""0.523"",""0.578""]","[1,1,1,0]",0,38,38,38,1,1,1,,,0,FALSE,,,,,,,,,,,,,,,,,,,,,,,,,,,,,,,
,6175ef3720a77a161dbe7cdc,627c6f20d1967c145333bea1,2022-05-11_21h22.00.046,classification_task,2021.2.3,Win32,59.99880002,627c6715c52fd12f31907bcf,,,,,,,,,,,,,,,,,,,,,,,l,1,0.669,"[""0.578"",""0.368"",""0.646"",""0.768""]","[0,1,1,1]",0,39,39,39,1,1,0,,,0,FALSE,,,,,,,,,,,,,,,,,,,,,,,,,,,,,,,
,6175ef3720a77a161dbe7cdc,627c6f20d1967c145333bea1,2022-05-11_21h22.00.046,classification_task,2021.2.3,Win32,59.99880002,627c6715c52fd12f31907bcf,,,,,,,,,,,,,,,,,,,,,,,a,1,0.5667,"[""0.437"",""0.478"",""0.687"",""0.876""]","[0,1,1,1]",0,40,40,40,1,0,0,,,0,FALSE,,,,,,,,,,,,,,,,,,,,,,,,,,,,,,,
,6175ef3720a77a161dbe7cdc,627c6f20d1967c145333bea1,2022-05-11_21h22.00.046,classification_task,2021.2.3,Win32,59.99880002,627c6715c52fd12f31907bcf,,,,,,,,,,,,,,,,,,,,,,,a,1,1.5105,"[""0.179"",""0.404"",""0.578"",""0.945""]","[1,1,0,1]",0,41,41,41,1,0,1,,,0,FALSE,,,,,,,,,,,,,,,,,,,,,,,,,,,,,,,
,6175ef3720a77a161dbe7cdc,627c6f20d1967c145333bea1,2022-05-11_21h22.00.046,classification_task,2021.2.3,Win32,59.99880002,627c6715c52fd12f31907bcf,,,,,,,,,,,,,,,,,,,,,,,l,0,0.8435,"[""0.804"",""0.404"",""0.911"",""0.945""]","[0,1,1,1]",0,42,42,42,1,0,1,,,0,FALSE,,,,,,,,,,,,,,,,,,,,,,,,,,,,,,,
,6175ef3720a77a161dbe7cdc,627c6f20d1967c145333bea1,2022-05-11_21h22.00.046,classification_task,2021.2.3,Win32,59.99880002,627c6715c52fd12f31907bcf,,,,,,,,,,,,,,,,,,,,,,,l,1,0.9905,"[""0.066"",""0.280"",""0.523"",""0.721""]","[1,0,1,1]",0,43,43,43,1,1,1,,,0,FALSE,,,,,,,,,,,,,,,,,,,,,,,,,,,,,,,
,6175ef3720a77a161dbe7cdc,627c6f20d1967c145333bea1,2022-05-11_21h22.00.046,classification_task,2021.2.3,Win32,59.99880002,627c6715c52fd12f31907bcf,,,,,,,,,,,,,,,,,,,,,,,l,1,0.6979,"[""0.066"",""0.238"",""0.612"",""0.721""]","[1,1,0,1]",0,44,44,44,1,1,1,,,0,FALSE,,,,,,,,,,,,,,,,,,,,,,,,,,,,,,,
,6175ef3720a77a161dbe7cdc,627c6f20d1967c145333bea1,2022-05-11_21h22.00.046,classification_task,2021.2.3,Win32,59.99880002,627c6715c52fd12f31907bcf,,,,,,,,,,,,,,,,,,,,,,,a,1,0.6856,"[""0.179"",""0.437"",""0.911"",""0.945""]","[1,0,1,1]",0,45,45,45,1,0,1,,,0,FALSE,,,,,,,,,,,,,,,,,,,,,,,,,,,,,,,
,6175ef3720a77a161dbe7cdc,627c6f20d1967c145333bea1,2022-05-11_21h22.00.046,classification_task,2021.2.3,Win32,59.99880002,627c6715c52fd12f31907bcf,,,,,,,,,,,,,,,,,,,,,,,a,1,0.7001,"[""0.322"",""0.478"",""0.141"",""0.876""]","[1,1,0,1]",0,46,46,46,1,0,0,,,0,FALSE,,,,,,,,,,,,,,,,,,,,,,,,,,,,,,,
,6175ef3720a77a161dbe7cdc,627c6f20d1967c145333bea1,2022-05-11_21h22.00.046,classification_task,2021.2.3,Win32,59.99880002,627c6715c52fd12f31907bcf,,,,,,,,,,,,,,,,,,,,,,,l,1,0.666,"[""0.106"",""0.144"",""0.646"",""0.768""]","[1,0,1,1]",0,47,47,47,1,1,0,,,0,FALSE,,,,,,,,,,,,,,,,,,,,,,,,,,,,,,,
,6175ef3720a77a161dbe7cdc,627c6f20d1967c145333bea1,2022-05-11_21h22.00.046,classification_task,2021.2.3,Win32,59.99880002,627c6715c52fd12f31907bcf,,,,,,,,,,,,,,,,,,,,,,,a,1,0.5295,"[""0.443"",""0.478"",""0.687"",""0.876""]","[0,1,1,1]",0,48,48,48,1,0,0,,,0,FALSE,,,,,,,,,,,,,,,,,,,,,,,,,,,,,,,
,6175ef3720a77a161dbe7cdc,627c6f20d1967c145333bea1,2022-05-11_21h22.00.046,classification_task,2021.2.3,Win32,59.99880002,627c6715c52fd12f31907bcf,,,,,,,,,,,,,,,,,,,,,,,a,1,0.9678,"[""0.179"",""0.578"",""0.911"",""0.945""]","[1,0,1,1]",0,49,49,49,1,0,1,,,0,FALSE,,,,,,,,,,,,,,,,,,,,,,,,,,,,,,,
,6175ef3720a77a161dbe7cdc,627c6f20d1967c145333bea1,2022-05-11_21h22.00.046,classification_task,2021.2.3,Win32,59.99880002,627c6715c52fd12f31907bcf,,,,,,,,,,,,,,,,,,,,,,,a,1,0.6024,"[""0.322"",""0.478"",""0.687"",""0.587""]","[1,1,1,0]",0,50,50,50,1,0,0,,,0,FALSE,,,,,,,,,,,,,,,,,,,,,,,,,,,,,,,
,6175ef3720a77a161dbe7cdc,627c6f20d1967c145333bea1,2022-05-11_21h22.00.046,classification_task,2021.2.3,Win32,59.99880002,627c6715c52fd12f31907bcf,,,,,,,,,,,,,,,,,,,,,,,l,1,0.5057,"[""0.106"",""0.144"",""0.646"",""0.768""]","[1,0,1,1]",0,51,51,51,1,1,0,,,0,FALSE,,,,,,,,,,,,,,,,,,,,,,,,,,,,,,,
,6175ef3720a77a161dbe7cdc,627c6f20d1967c145333bea1,2022-05-11_21h22.00.046,classification_task,2021.2.3,Win32,59.99880002,627c6715c52fd12f31907bcf,,,,,,,,,,,,,,,,,,,,,,,l,0,1.646,"[""0.437"",""0.404"",""0.911"",""0.945""]","[0,1,1,1]",0,52,52,52,1,0,1,,,0,FALSE,,,,,,,,,,,,,,,,,,,,,,,,,,,,,,,
,6175ef3720a77a161dbe7cdc,627c6f20d1967c145333bea1,2022-05-11_21h22.00.046,classification_task,2021.2.3,Win32,59.99880002,627c6715c52fd12f31907bcf,,,,,,,,,,,,,,,,,,,,,,,l,1,0.6787,"[""0.106"",""0.368"",""0.820"",""0.768""]","[1,1,0,1]",0,53,53,53,1,1,0,,,0,FALSE,,,,,,,,,,,,,,,,,,,,,,,,,,,,,,,
,6175ef3720a77a161dbe7cdc,627c6f20d1967c145333bea1,2022-05-11_21h22.00.046,classification_task,2021.2.3,Win32,59.99880002,627c6715c52fd12f31907bcf,,,,,,,,,,,,,,,,,,,,,,,l,1,1.1616,"[""0.066"",""0.587"",""0.523"",""0.721""]","[1,0,1,1]",0,54,54,54,1,1,1,,,0,FALSE,,,,,,,,,,,,,,,,,,,,,,,,,,,,,,,
,6175ef3720a77a161dbe7cdc,627c6f20d1967c145333bea1,2022-05-11_21h22.00.046,classification_task,2021.2.3,Win32,59.99880002,627c6715c52fd12f31907bcf,,,,,,,,,,,,,,,,,,,,,,,a,1,0.4512,"[""0.322"",""0.478"",""0.144"",""0.876""]","[1,1,0,1]",0,55,55,55,1,0,0,,,0,FALSE,,,,,,,,,,,,,,,,,,,,,,,,,,,,,,,
,6175ef3720a77a161dbe7cdc,627c6f20d1967c145333bea1,2022-05-11_21h22.00.046,classification_task,2021.2.3,Win32,59.99880002,627c6715c52fd12f31907bcf,,,,,,,,,,,,,,,,,,,,,,,l,1,1.1802,"[""0.804"",""0.238"",""0.523"",""0.721""]","[0,1,1,1]",0,56,56,56,1,1,1,,,0,FALSE,,,,,,,,,,,,,,,,,,,,,,,,,,,,,,,
,6175ef3720a77a161dbe7cdc,627c6f20d1967c145333bea1,2022-05-11_21h22.00.046,classification_task,2021.2.3,Win32,59.99880002,627c6715c52fd12f31907bcf,,,,,,,,,,,,,,,,,,,,,,,l,1,1.3717,"[""0.066"",""0.238"",""0.523"",""0.578""]","[1,1,1,0]",0,57,57,57,1,1,1,,,0,FALSE,,,,,,,,,,,,,,,,,,,,,,,,,,,,,,,
,6175ef3720a77a161dbe7cdc,627c6f20d1967c145333bea1,2022-05-11_21h22.00.046,classification_task,2021.2.3,Win32,59.99880002,627c6715c52fd12f31907bcf,,,,,,,,,,,,,,,,,,,,,,,a,1,0.8072,"[""0.179"",""0.404"",""0.911"",""0.144""]","[1,1,1,0]",0,58,58,58,1,0,1,,,0,FALSE,,,,,,,,,,,,,,,,,,,,,,,,,,,,,,,
,6175ef3720a77a161dbe7cdc,627c6f20d1967c145333bea1,2022-05-11_21h22.00.046,classification_task,2021.2.3,Win32,59.99880002,627c6715c52fd12f31907bcf,,,,,,,,,,,,,,,,,,,,,,,l,1,0.6381,"[""0.804"",""0.368"",""0.646"",""0.768""]","[0,1,1,1]",0,59,59,59,1,1,0,,,0,FALSE,,,,,,,,,,,,,,,,,,,,,,,,,,,,,,,
,6175ef3720a77a161dbe7cdc,627c6f20d1967c145333bea1,2022-05-11_21h22.00.046,classification_task,2021.2.3,Win32,59.99880002,627c6715c52fd12f31907bcf,,,,,,,,,,,,,,,,,,,,,,,a,1,0.8764,"[""0.179"",""0.404"",""0.443"",""0.945""]","[1,1,0,1]",0,60,60,60,1,0,1,,,0,FALSE,,,,,,,,,,,,,,,,,,,,,,,,,,,,,,,
,6175ef3720a77a161dbe7cdc,627c6f20d1967c145333bea1,2022-05-11_21h22.00.046,classification_task,2021.2.3,Win32,59.99880002,627c6715c52fd12f31907bcf,,,,,,,,,,,,,,,,,,,,,,,l,1,0.6016,"[""0.106"",""0.368"",""0.646"",""0.612""]","[1,1,1,0]",0,61,61,61,1,1,0,,,0,FALSE,,,,,,,,,,,,,,,,,,,,,,,,,,,,,,,
,6175ef3720a77a161dbe7cdc,627c6f20d1967c145333bea1,2022-05-11_21h22.00.046,classification_task,2021.2.3,Win32,59.99880002,627c6715c52fd12f31907bcf,,,,,,,,,,,,,,,,,,,,,,,l,1,0.8338,"[""0.066"",""0.238"",""0.600"",""0.721""]","[1,1,0,1]",0,62,62,62,1,1,1,,,0,FALSE,,,,,,,,,,,,,,,,,,,,,,,,,,,,,,,
,6175ef3720a77a161dbe7cdc,627c6f20d1967c145333bea1,2022-05-11_21h22.00.046,classification_task,2021.2.3,Win32,59.99880002,627c6715c52fd12f31907bcf,,,,,,,,,,,,,,,,,,,,,,,a,1,0.575,"[""0.322"",""0.612"",""0.687"",""0.876""]","[1,0,1,1]",0,63,63,63,1,0,0,,,0,FALSE,,,,,,,,,,,,,,,,,,,,,,,,,,,,,,,
,6175ef3720a77a161dbe7cdc,627c6f20d1967c145333bea1,2022-05-11_21h22.00.046,classification_task,2021.2.3,Win32,59.99880002,627c6715c52fd12f31907bcf,,,,,,,,,,,,,,,,,,,,,,,,,,,,,,,,,,,,,,,0, ,,0,0,143.0129,0,1,1,1,1,2,2,,,,,,,,,,,,,,,,,,
,6175ef3720a77a161dbe7cdc,627c6f20d1967c145333bea1,2022-05-11_21h22.00.046,classification_task,2021.2.3,Win32,59.99880002,627c6715c52fd12f31907bcf,,,,,,,,,,,,,,,,,,,,,,,,,,,,,,,,,,,,,,,1,  ,,0,0,145.5961,0,1,1,1,1,2,2,,,,,,,,,,,,,,,,,,
,6175ef3720a77a161dbe7cdc,627c6f20d1967c145333bea1,2022-05-11_21h22.00.046,classification_task,2021.2.3,Win32,59.99880002,627c6715c52fd12f31907bcf,,,,,,,,,,,,,,,,,,,,,,,,,,,,,,,,,,,,,,,2,  ,,0,5.759357241,150.3126,0,1,1,1,1,2,2,,,,,,,,,,,,,,,,,,
,6175ef3720a77a161dbe7cdc,627c6f20d1967c145333bea1,2022-05-11_21h22.00.046,classification_task,2021.2.3,Win32,59.99880002,627c6715c52fd12f31907bcf,,,,,,,,,,,,,,,,,,,,,,,,,,,,,,,,,,,,,,,,,,,,,0,1,1,1,1,,2,,,,,,,,,,,,,,,,,,
,6175ef3720a77a161dbe7cdc,627c6f20d1967c145333bea1,2022-05-11_21h22.00.046,classification_task,2021.2.3,Win32,59.99880002,627c6715c52fd12f31907bcf,,,,,,,,,,,,,,,,,,,,,space,9.7364,a,1,1.2485,"[""0.179"",""0.404"",""0.812"",""0.945""]","[1,1,0,1]",0,0,0,0,1,0,1,,,0,FALSE,,,,,,,,,,,,,,,,,,,,,,,,,,,,,,,
,6175ef3720a77a161dbe7cdc,627c6f20d1967c145333bea1,2022-05-11_21h22.00.046,classification_task,2021.2.3,Win32,59.99880002,627c6715c52fd12f31907bcf,,,,,,,,,,,,,,,,,,,,,,,l,0,2.0913,"[""0.437"",""0.478"",""0.687"",""0.876""]","[0,1,1,1]",0,1,1,1,1,0,0,,,0,FALSE,,,,,,,,,,,,,,,,,,,,,,,,,,,,,,,
,6175ef3720a77a161dbe7cdc,627c6f20d1967c145333bea1,2022-05-11_21h22.00.046,classification_task,2021.2.3,Win32,59.99880002,627c6715c52fd12f31907bcf,,,,,,,,,,,,,,,,,,,,,,,a,1,0.7368,"[""0.179"",""0.404"",""0.911"",""0.568""]","[1,1,1,0]",0,2,2,2,1,0,1,,,0,FALSE,,,,,,,,,,,,,,,,,,,,,,,,,,,,,,,
,6175ef3720a77a161dbe7cdc,627c6f20d1967c145333bea1,2022-05-11_21h22.00.046,classification_task,2021.2.3,Win32,59.99880002,627c6715c52fd12f31907bcf,,,,,,,,,,,,,,,,,,,,,,,a,1,0.7182,"[""0.141"",""0.404"",""0.911"",""0.945""]","[0,1,1,1]",0,3,3,3,1,0,1,,,0,FALSE,,,,,,,,,,,,,,,,,,,,,,,,,,,,,,,
,6175ef3720a77a161dbe7cdc,627c6f20d1967c145333bea1,2022-05-11_21h22.00.046,classification_task,2021.2.3,Win32,59.99880002,627c6715c52fd12f31907bcf,,,,,,,,,,,,,,,,,,,,,,,l,1,0.7085,"[""0.066"",""0.238"",""0.523"",""0.443""]","[1,1,1,0]",0,4,4,4,1,1,1,,,0,FALSE,,,,,,,,,,,,,,,,,,,,,,,,,,,,,,,
,6175ef3720a77a161dbe7cdc,627c6f20d1967c145333bea1,2022-05-11_21h22.00.046,classification_task,2021.2.3,Win32,59.99880002,627c6715c52fd12f31907bcf,,,,,,,,,,,,,,,,,,,,,,,a,1,0.6538,"[""0.179"",""0.606"",""0.911"",""0.945""]","[1,0,1,1]",0,5,5,5,1,0,1,,,0,FALSE,,,,,,,,,,,,,,,,,,,,,,,,,,,,,,,
,6175ef3720a77a161dbe7cdc,627c6f20d1967c145333bea1,2022-05-11_21h22.00.046,classification_task,2021.2.3,Win32,59.99880002,627c6715c52fd12f31907bcf,,,,,,,,,,,,,,,,,,,,,,,l,1,0.7872,"[""0.066"",""0.820"",""0.523"",""0.721""]","[1,0,1,1]",0,6,6,6,1,1,1,,,0,FALSE,,,,,,,,,,,,,,,,,,,,,,,,,,,,,,,
,6175ef3720a77a161dbe7cdc,627c6f20d1967c145333bea1,2022-05-11_21h22.00.046,classification_task,2021.2.3,Win32,59.99880002,627c6715c52fd12f31907bcf,,,,,,,,,,,,,,,,,,,,,,,l,1,1.0594,"[""0.106"",""0.843"",""0.646"",""0.768""]","[1,0,1,1]",0,7,7,7,1,1,0,,,0,FALSE,,,,,,,,,,,,,,,,,,,,,,,,,,,,,,,
,6175ef3720a77a161dbe7cdc,627c6f20d1967c145333bea1,2022-05-11_21h22.00.046,classification_task,2021.2.3,Win32,59.99880002,627c6715c52fd12f31907bcf,,,,,,,,,,,,,,,,,,,,,,,l,1,0.9723,"[""0.066"",""0.238"",""0.600"",""0.721""]","[1,1,0,1]",0,8,8,8,1,1,1,,,0,FALSE,,,,,,,,,,,,,,,,,,,,,,,,,,,,,,,
,6175ef3720a77a161dbe7cdc,627c6f20d1967c145333bea1,2022-05-11_21h22.00.046,classification_task,2021.2.3,Win32,59.99880002,627c6715c52fd12f31907bcf,,,,,,,,,,,,,,,,,,,,,,,a,0,0.703,"[""0.280"",""0.238"",""0.523"",""0.721""]","[0,1,1,1]",0,9,9,9,1,1,1,,,0,FALSE,,,,,,,,,,,,,,,,,,,,,,,,,,,,,,,
,6175ef3720a77a161dbe7cdc,627c6f20d1967c145333bea1,2022-05-11_21h22.00.046,classification_task,2021.2.3,Win32,59.99880002,627c6715c52fd12f31907bcf,,,,,,,,,,,,,,,,,,,,,,,a,0,1.2752,"[""0.612"",""0.368"",""0.646"",""0.768""]","[0,1,1,1]",0,10,10,10,1,1,0,,,0,FALSE,,,,,,,,,,,,,,,,,,,,,,,,,,,,,,,
,6175ef3720a77a161dbe7cdc,627c6f20d1967c145333bea1,2022-05-11_21h22.00.046,classification_task,2021.2.3,Win32,59.99880002,627c6715c52fd12f31907bcf,,,,,,,,,,,,,,,,,,,,,,,a,1,1.3636,"[""0.322"",""0.478"",""0.568"",""0.876""]","[1,1,0,1]",0,11,11,11,1,0,0,,,0,FALSE,,,,,,,,,,,,,,,,,,,,,,,,,,,,,,,
,6175ef3720a77a161dbe7cdc,627c6f20d1967c145333bea1,2022-05-11_21h22.00.046,classification_task,2021.2.3,Win32,59.99880002,627c6715c52fd12f31907bcf,,,,,,,,,,,,,,,,,,,,,,,l,1,0.9376,"[""0.106"",""0.368"",""0.646"",""0.443""]","[1,1,1,0]",0,12,12,12,1,1,0,,,0,FALSE,,,,,,,,,,,,,,,,,,,,,,,,,,,,,,,
,6175ef3720a77a161dbe7cdc,627c6f20d1967c145333bea1,2022-05-11_21h22.00.046,classification_task,2021.2.3,Win32,59.99880002,627c6715c52fd12f31907bcf,,,,,,,,,,,,,,,,,,,,,,,l,1,0.7191,"[""0.106"",""0.368"",""0.812"",""0.768""]","[1,1,0,1]",0,13,13,13,1,1,0,,,0,FALSE,,,,,,,,,,,,,,,,,,,,,,,,,,,,,,,
,6175ef3720a77a161dbe7cdc,627c6f20d1967c145333bea1,2022-05-11_21h22.00.046,classification_task,2021.2.3,Win32,59.99880002,627c6715c52fd12f31907bcf,,,,,,,,,,,,,,,,,,,,,,,a,1,0.988,"[""0.322"",""0.568"",""0.687"",""0.876""]","[1,0,1,1]",0,14,14,14,1,0,0,,,0,FALSE,,,,,,,,,,,,,,,,,,,,,,,,,,,,,,,
,6175ef3720a77a161dbe7cdc,627c6f20d1967c145333bea1,2022-05-11_21h22.00.046,classification_task,2021.2.3,Win32,59.99880002,627c6715c52fd12f31907bcf,,,,,,,,,,,,,,,,,,,,,,,a,1,0.6222,"[""0.322"",""0.478"",""0.687"",""0.804""]","[1,1,1,0]",0,15,15,15,1,0,0,,,0,FALSE,,,,,,,,,,,,,,,,,,,,,,,,,,,,,,,
,6175ef3720a77a161dbe7cdc,627c6f20d1967c145333bea1,2022-05-11_21h22.00.046,classification_task,2021.2.3,Win32,59.99880002,627c6715c52fd12f31907bcf,,,,,,,,,,,,,,,,,,,,,,,a,1,0.8372,"[""0.179"",""0.404"",""0.911"",""0.144""]","[1,1,1,0]",0,16,16,16,1,0,1,,,0,FALSE,,,,,,,,,,,,,,,,,,,,,,,,,,,,,,,
,6175ef3720a77a161dbe7cdc,627c6f20d1967c145333bea1,2022-05-11_21h22.00.046,classification_task,2021.2.3,Win32,59.99880002,627c6715c52fd12f31907bcf,,,,,,,,,,,,,,,,,,,,,,,l,1,0.558,"[""0.066"",""0.238"",""0.523"",""0.578""]","[1,1,1,0]",0,17,17,17,1,1,1,,,0,FALSE,,,,,,,,,,,,,,,,,,,,,,,,,,,,,,,
,6175ef3720a77a161dbe7cdc,627c6f20d1967c145333bea1,2022-05-11_21h22.00.046,classification_task,2021.2.3,Win32,59.99880002,627c6715c52fd12f31907bcf,,,,,,,,,,,,,,,,,,,,,,,a,1,0.5053,"[""0.179"",""0.587"",""0.911"",""0.945""]","[1,0,1,1]",0,18,18,18,1,0,1,,,0,FALSE,,,,,,,,,,,,,,,,,,,,,,,,,,,,,,,
,6175ef3720a77a161dbe7cdc,627c6f20d1967c145333bea1,2022-05-11_21h22.00.046,classification_task,2021.2.3,Win32,59.99880002,627c6715c52fd12f31907bcf,,,,,,,,,,,,,,,,,,,,,,,a,0,0.6386,"[""0.141"",""0.238"",""0.523"",""0.721""]","[0,1,1,1]",0,19,19,19,1,1,1,,,0,FALSE,,,,,,,,,,,,,,,,,,,,,,,,,,,,,,,
,6175ef3720a77a161dbe7cdc,627c6f20d1967c145333bea1,2022-05-11_21h22.00.046,classification_task,2021.2.3,Win32,59.99880002,627c6715c52fd12f31907bcf,,,,,,,,,,,,,,,,,,,,,,,l,1,1.1583,"[""0.106"",""0.368"",""0.646"",""0.843""]","[1,1,1,0]",0,20,20,20,1,1,0,,,0,FALSE,,,,,,,,,,,,,,,,,,,,,,,,,,,,,,,
,6175ef3720a77a161dbe7cdc,627c6f20d1967c145333bea1,2022-05-11_21h22.00.046,classification_task,2021.2.3,Win32,59.99880002,627c6715c52fd12f31907bcf,,,,,,,,,,,,,,,,,,,,,,,a,1,0.8469,"[""0.322"",""0.478"",""0.437"",""0.876""]","[1,1,0,1]",0,21,21,21,1,0,0,,,0,FALSE,,,,,,,,,,,,,,,,,,,,,,,,,,,,,,,
,6175ef3720a77a161dbe7cdc,627c6f20d1967c145333bea1,2022-05-11_21h22.00.046,classification_task,2021.2.3,Win32,59.99880002,627c6715c52fd12f31907bcf,,,,,,,,,,,,,,,,,,,,,,,l,1,0.9592,"[""0.106"",""0.368"",""0.280"",""0.768""]","[1,1,0,1]",0,22,22,22,1,1,0,,,0,FALSE,,,,,,,,,,,,,,,,,,,,,,,,,,,,,,,
,6175ef3720a77a161dbe7cdc,627c6f20d1967c145333bea1,2022-05-11_21h22.00.046,classification_task,2021.2.3,Win32,59.99880002,627c6715c52fd12f31907bcf,,,,,,,,,,,,,,,,,,,,,,,a,1,1.5313,"[""0.812"",""0.404"",""0.911"",""0.945""]","[0,1,1,1]",0,23,23,23,1,0,1,,,0,FALSE,,,,,,,,,,,,,,,,,,,,,,,,,,,,,,,
,6175ef3720a77a161dbe7cdc,627c6f20d1967c145333bea1,2022-05-11_21h22.00.046,classification_task,2021.2.3,Win32,59.99880002,627c6715c52fd12f31907bcf,,,,,,,,,,,,,,,,,,,,,,,l,1,0.7364,"[""0.820"",""0.368"",""0.646"",""0.768""]","[0,1,1,1]",0,24,24,24,1,1,0,,,0,FALSE,,,,,,,,,,,,,,,,,,,,,,,,,,,,,,,
,6175ef3720a77a161dbe7cdc,627c6f20d1967c145333bea1,2022-05-11_21h22.00.046,classification_task,2021.2.3,Win32,59.99880002,627c6715c52fd12f31907bcf,,,,,,,,,,,,,,,,,,,,,,,a,1,0.7519,"[""0.179"",""0.404"",""0.587"",""0.945""]","[1,1,0,1]",0,25,25,25,1,0,1,,,0,FALSE,,,,,,,,,,,,,,,,,,,,,,,,,,,,,,,
,6175ef3720a77a161dbe7cdc,627c6f20d1967c145333bea1,2022-05-11_21h22.00.046,classification_task,2021.2.3,Win32,59.99880002,627c6715c52fd12f31907bcf,,,,,,,,,,,,,,,,,,,,,,,a,1,0.6864,"[""0.322"",""0.478"",""0.687"",""0.144""]","[1,1,1,0]",0,26,26,26,1,0,0,,,0,FALSE,,,,,,,,,,,,,,,,,,,,,,,,,,,,,,,
,6175ef3720a77a161dbe7cdc,627c6f20d1967c145333bea1,2022-05-11_21h22.00.046,classification_task,2021.2.3,Win32,59.99880002,627c6715c52fd12f31907bcf,,,,,,,,,,,,,,,,,,,,,,,l,1,0.7169,"[""0.066"",""0.238"",""0.587"",""0.721""]","[1,1,0,1]",0,27,27,27,1,1,1,,,0,FALSE,,,,,,,,,,,,,,,,,,,,,,,,,,,,,,,
,6175ef3720a77a161dbe7cdc,627c6f20d1967c145333bea1,2022-05-11_21h22.00.046,classification_task,2021.2.3,Win32,59.99880002,627c6715c52fd12f31907bcf,,,,,,,,,,,,,,,,,,,,,,,l,1,0.6505,"[""0.066"",""0.843"",""0.523"",""0.721""]","[1,0,1,1]",0,28,28,28,1,1,1,,,0,FALSE,,,,,,,,,,,,,,,,,,,,,,,,,,,,,,,
,6175ef3720a77a161dbe7cdc,627c6f20d1967c145333bea1,2022-05-11_21h22.00.046,classification_task,2021.2.3,Win32,59.99880002,627c6715c52fd12f31907bcf,,,,,,,,,,,,,,,,,,,,,,,a,1,1.7202,"[""0.322"",""0.437"",""0.687"",""0.876""]","[1,0,1,1]",0,29,29,29,1,0,0,,,0,FALSE,,,,,,,,,,,,,,,,,,,,,,,,,,,,,,,
,6175ef3720a77a161dbe7cdc,627c6f20d1967c145333bea1,2022-05-11_21h22.00.046,classification_task,2021.2.3,Win32,59.99880002,627c6715c52fd12f31907bcf,,,,,,,,,,,,,,,,,,,,,,,l,0,0.8353,"[""0.843"",""0.478"",""0.687"",""0.876""]","[0,1,1,1]",0,30,30,30,1,0,0,,,0,FALSE,,,,,,,,,,,,,,,,,,,,,,,,,,,,,,,
,6175ef3720a77a161dbe7cdc,627c6f20d1967c145333bea1,2022-05-11_21h22.00.046,classification_task,2021.2.3,Win32,59.99880002,627c6715c52fd12f31907bcf,,,,,,,,,,,,,,,,,,,,,,,l,1,2.0527,"[""0.106"",""0.280"",""0.646"",""0.768""]","[1,0,1,1]",0,31,31,31,1,1,0,,,0,FALSE,,,,,,,,,,,,,,,,,,,,,,,,,,,,,,,
,6175ef3720a77a161dbe7cdc,627c6f20d1967c145333bea1,2022-05-11_21h22.00.046,classification_task,2021.2.3,Win32,59.99880002,627c6715c52fd12f31907bcf,,,,,,,,,,,,,,,,,,,,,,,l,1,1.0219,"[""0.600"",""0.238"",""0.523"",""0.721""]","[0,1,1,1]",0,32,32,32,1,1,1,,,0,FALSE,,,,,,,,,,,,,,,,,,,,,,,,,,,,,,,
,6175ef3720a77a161dbe7cdc,627c6f20d1967c145333bea1,2022-05-11_21h22.00.046,classification_task,2021.2.3,Win32,59.99880002,627c6715c52fd12f31907bcf,,,,,,,,,,,,,,,,,,,,,,,l,1,0.7739,"[""0.066"",""0.443"",""0.523"",""0.721""]","[1,0,1,1]",0,33,33,33,1,1,1,,,0,FALSE,,,,,,,,,,,,,,,,,,,,,,,,,,,,,,,
,6175ef3720a77a161dbe7cdc,627c6f20d1967c145333bea1,2022-05-11_21h22.00.046,classification_task,2021.2.3,Win32,59.99880002,627c6715c52fd12f31907bcf,,,,,,,,,,,,,,,,,,,,,,,a,1,0.9044,"[""0.831"",""0.404"",""0.911"",""0.945""]","[0,1,1,1]",0,34,34,34,1,0,1,,,0,FALSE,,,,,,,,,,,,,,,,,,,,,,,,,,,,,,,
,6175ef3720a77a161dbe7cdc,627c6f20d1967c145333bea1,2022-05-11_21h22.00.046,classification_task,2021.2.3,Win32,59.99880002,627c6715c52fd12f31907bcf,,,,,,,,,,,,,,,,,,,,,,,l,1,0.9401,"[""0.106"",""0.368"",""0.646"",""0.820""]","[1,1,1,0]",0,35,35,35,1,1,0,,,0,FALSE,,,,,,,,,,,,,,,,,,,,,,,,,,,,,,,
,6175ef3720a77a161dbe7cdc,627c6f20d1967c145333bea1,2022-05-11_21h22.00.046,classification_task,2021.2.3,Win32,59.99880002,627c6715c52fd12f31907bcf,,,,,,,,,,,,,,,,,,,,,,,l,1,1.109,"[""0.066"",""0.238"",""0.523"",""0.804""]","[1,1,1,0]",0,36,36,36,1,1,1,,,0,FALSE,,,,,,,,,,,,,,,,,,,,,,,,,,,,,,,
,6175ef3720a77a161dbe7cdc,627c6f20d1967c145333bea1,2022-05-11_21h22.00.046,classification_task,2021.2.3,Win32,59.99880002,627c6715c52fd12f31907bcf,,,,,,,,,,,,,,,,,,,,,,,a,1,0.7133,"[""0.179"",""0.404"",""0.612"",""0.945""]","[1,1,0,1]",0,37,37,37,1,0,1,,,0,FALSE,,,,,,,,,,,,,,,,,,,,,,,,,,,,,,,
,6175ef3720a77a161dbe7cdc,627c6f20d1967c145333bea1,2022-05-11_21h22.00.046,classification_task,2021.2.3,Win32,59.99880002,627c6715c52fd12f31907bcf,,,,,,,,,,,,,,,,,,,,,,,a,1,0.7763,"[""0.322"",""0.478"",""0.687"",""0.843""]","[1,1,1,0]",0,38,38,38,1,0,0,,,0,FALSE,,,,,,,,,,,,,,,,,,,,,,,,,,,,,,,
,6175ef3720a77a161dbe7cdc,627c6f20d1967c145333bea1,2022-05-11_21h22.00.046,classification_task,2021.2.3,Win32,59.99880002,627c6715c52fd12f31907bcf,,,,,,,,,,,,,,,,,,,,,,,l,1,0.7743,"[""0.106"",""0.437"",""0.646"",""0.768""]","[1,0,1,1]",0,39,39,39,1,1,0,,,0,FALSE,,,,,,,,,,,,,,,,,,,,,,,,,,,,,,,
,6175ef3720a77a161dbe7cdc,627c6f20d1967c145333bea1,2022-05-11_21h22.00.046,classification_task,2021.2.3,Win32,59.99880002,627c6715c52fd12f31907bcf,,,,,,,,,,,,,,,,,,,,,,,l,1,0.8014,"[""0.106"",""0.368"",""0.144"",""0.768""]","[1,1,0,1]",0,40,40,40,1,1,0,,,0,FALSE,,,,,,,,,,,,,,,,,,,,,,,,,,,,,,,
,6175ef3720a77a161dbe7cdc,627c6f20d1967c145333bea1,2022-05-11_21h22.00.046,classification_task,2021.2.3,Win32,59.99880002,627c6715c52fd12f31907bcf,,,,,,,,,,,,,,,,,,,,,,,l,1,0.6978,"[""0.066"",""0.238"",""0.606"",""0.721""]","[1,1,0,1]",0,41,41,41,1,1,1,,,0,FALSE,,,,,,,,,,,,,,,,,,,,,,,,,,,,,,,
,6175ef3720a77a161dbe7cdc,627c6f20d1967c145333bea1,2022-05-11_21h22.00.046,classification_task,2021.2.3,Win32,59.99880002,627c6715c52fd12f31907bcf,,,,,,,,,,,,,,,,,,,,,,,a,0,0.8687,"[""0.843"",""0.368"",""0.646"",""0.768""]","[0,1,1,1]",0,42,42,42,1,1,0,,,0,FALSE,,,,,,,,,,,,,,,,,,,,,,,,,,,,,,,
,6175ef3720a77a161dbe7cdc,627c6f20d1967c145333bea1,2022-05-11_21h22.00.046,classification_task,2021.2.3,Win32,59.99880002,627c6715c52fd12f31907bcf,,,,,,,,,,,,,,,,,,,,,,,a,1,0.6767,"[""0.179"",""0.606"",""0.911"",""0.945""]","[1,0,1,1]",0,43,43,43,1,0,1,,,0,FALSE,,,,,,,,,,,,,,,,,,,,,,,,,,,,,,,
,6175ef3720a77a161dbe7cdc,627c6f20d1967c145333bea1,2022-05-11_21h22.00.046,classification_task,2021.2.3,Win32,59.99880002,627c6715c52fd12f31907bcf,,,,,,,,,,,,,,,,,,,,,,,a,1,0.5594,"[""0.179"",""0.404"",""0.911"",""0.612""]","[1,1,1,0]",0,44,44,44,1,0,1,,,0,FALSE,,,,,,,,,,,,,,,,,,,,,,,,,,,,,,,
,6175ef3720a77a161dbe7cdc,627c6f20d1967c145333bea1,2022-05-11_21h22.00.046,classification_task,2021.2.3,Win32,59.99880002,627c6715c52fd12f31907bcf,,,,,,,,,,,,,,,,,,,,,,,a,1,0.9433,"[""0.322"",""0.843"",""0.687"",""0.876""]","[1,0,1,1]",0,45,45,45,1,0,0,,,0,FALSE,,,,,,,,,,,,,,,,,,,,,,,,,,,,,,,
,6175ef3720a77a161dbe7cdc,627c6f20d1967c145333bea1,2022-05-11_21h22.00.046,classification_task,2021.2.3,Win32,59.99880002,627c6715c52fd12f31907bcf,,,,,,,,,,,,,,,,,,,,,,,a,1,0.6109,"[""0.322"",""0.478"",""0.820"",""0.876""]","[1,1,0,1]",0,46,46,46,1,0,0,,,0,FALSE,,,,,,,,,,,,,,,,,,,,,,,,,,,,,,,
,6175ef3720a77a161dbe7cdc,627c6f20d1967c145333bea1,2022-05-11_21h22.00.046,classification_task,2021.2.3,Win32,59.99880002,627c6715c52fd12f31907bcf,,,,,,,,,,,,,,,,,,,,,,,a,1,1.1344,"[""0.280"",""0.478"",""0.687"",""0.876""]","[0,1,1,1]",0,47,47,47,1,0,0,,,0,FALSE,,,,,,,,,,,,,,,,,,,,,,,,,,,,,,,
,6175ef3720a77a161dbe7cdc,627c6f20d1967c145333bea1,2022-05-11_21h22.00.046,classification_task,2021.2.3,Win32,59.99880002,627c6715c52fd12f31907bcf,,,,,,,,,,,,,,,,,,,,,,,l,1,1.2026,"[""0.612"",""0.238"",""0.523"",""0.721""]","[0,1,1,1]",0,48,48,48,1,1,1,,,0,FALSE,,,,,,,,,,,,,,,,,,,,,,,,,,,,,,,
,6175ef3720a77a161dbe7cdc,627c6f20d1967c145333bea1,2022-05-11_21h22.00.046,classification_task,2021.2.3,Win32,59.99880002,627c6715c52fd12f31907bcf,,,,,,,,,,,,,,,,,,,,,,,a,0,0.7769,"[""0.280"",""0.368"",""0.646"",""0.768""]","[0,1,1,1]",0,49,49,49,1,1,0,,,0,FALSE,,,,,,,,,,,,,,,,,,,,,,,,,,,,,,,
,6175ef3720a77a161dbe7cdc,627c6f20d1967c145333bea1,2022-05-11_21h22.00.046,classification_task,2021.2.3,Win32,59.99880002,627c6715c52fd12f31907bcf,,,,,,,,,,,,,,,,,,,,,,,l,1,0.849,"[""0.106"",""0.831"",""0.646"",""0.768""]","[1,0,1,1]",0,50,50,50,1,1,0,,,0,FALSE,,,,,,,,,,,,,,,,,,,,,,,,,,,,,,,
,6175ef3720a77a161dbe7cdc,627c6f20d1967c145333bea1,2022-05-11_21h22.00.046,classification_task,2021.2.3,Win32,59.99880002,627c6715c52fd12f31907bcf,,,,,,,,,,,,,,,,,,,,,,,l,0,1.9469,"[""0.831"",""0.478"",""0.687"",""0.876""]","[0,1,1,1]",0,51,51,51,1,0,0,,,0,FALSE,,,,,,,,,,,,,,,,,,,,,,,,,,,,,,,
,6175ef3720a77a161dbe7cdc,627c6f20d1967c145333bea1,2022-05-11_21h22.00.046,classification_task,2021.2.3,Win32,59.99880002,627c6715c52fd12f31907bcf,,,,,,,,,,,,,,,,,,,,,,,l,1,0.8029,"[""0.066"",""0.238"",""0.523"",""0.812""]","[1,1,1,0]",0,52,52,52,1,1,1,,,0,FALSE,,,,,,,,,,,,,,,,,,,,,,,,,,,,,,,
,6175ef3720a77a161dbe7cdc,627c6f20d1967c145333bea1,2022-05-11_21h22.00.046,classification_task,2021.2.3,Win32,59.99880002,627c6715c52fd12f31907bcf,,,,,,,,,,,,,,,,,,,,,,,a,1,0.8639,"[""0.322"",""0.478"",""0.687"",""0.587""]","[1,1,1,0]",0,53,53,53,1,0,0,,,0,FALSE,,,,,,,,,,,,,,,,,,,,,,,,,,,,,,,
,6175ef3720a77a161dbe7cdc,627c6f20d1967c145333bea1,2022-05-11_21h22.00.046,classification_task,2021.2.3,Win32,59.99880002,627c6715c52fd12f31907bcf,,,,,,,,,,,,,,,,,,,,,,,a,1,0.889,"[""0.568"",""0.404"",""0.911"",""0.945""]","[0,1,1,1]",0,54,54,54,1,0,1,,,0,FALSE,,,,,,,,,,,,,,,,,,,,,,,,,,,,,,,
,6175ef3720a77a161dbe7cdc,627c6f20d1967c145333bea1,2022-05-11_21h22.00.046,classification_task,2021.2.3,Win32,59.99880002,627c6715c52fd12f31907bcf,,,,,,,,,,,,,,,,,,,,,,,a,1,0.9868,"[""0.322"",""0.443"",""0.687"",""0.876""]","[1,0,1,1]",0,55,55,55,1,0,0,,,0,FALSE,,,,,,,,,,,,,,,,,,,,,,,,,,,,,,,
,6175ef3720a77a161dbe7cdc,627c6f20d1967c145333bea1,2022-05-11_21h22.00.046,classification_task,2021.2.3,Win32,59.99880002,627c6715c52fd12f31907bcf,,,,,,,,,,,,,,,,,,,,,,,l,1,0.6539,"[""0.066"",""0.238"",""0.612"",""0.721""]","[1,1,0,1]",0,56,56,56,1,1,1,,,0,FALSE,,,,,,,,,,,,,,,,,,,,,,,,,,,,,,,
,6175ef3720a77a161dbe7cdc,627c6f20d1967c145333bea1,2022-05-11_21h22.00.046,classification_task,2021.2.3,Win32,59.99880002,627c6715c52fd12f31907bcf,,,,,,,,,,,,,,,,,,,,,,,a,1,0.7429,"[""0.179"",""0.404"",""0.141"",""0.945""]","[1,1,0,1]",0,57,57,57,1,0,1,,,0,FALSE,,,,,,,,,,,,,,,,,,,,,,,,,,,,,,,
,6175ef3720a77a161dbe7cdc,627c6f20d1967c145333bea1,2022-05-11_21h22.00.046,classification_task,2021.2.3,Win32,59.99880002,627c6715c52fd12f31907bcf,,,,,,,,,,,,,,,,,,,,,,,a,1,1.1932,"[""0.322"",""0.478"",""0.280"",""0.876""]","[1,1,0,1]",0,58,58,58,1,0,0,,,0,FALSE,,,,,,,,,,,,,,,,,,,,,,,,,,,,,,,
,6175ef3720a77a161dbe7cdc,627c6f20d1967c145333bea1,2022-05-11_21h22.00.046,classification_task,2021.2.3,Win32,59.99880002,627c6715c52fd12f31907bcf,,,,,,,,,,,,,,,,,,,,,,,a,1,0.7501,"[""0.179"",""0.404"",""0.911"",""0.437""]","[1,1,1,0]",0,59,59,59,1,0,1,,,0,FALSE,,,,,,,,,,,,,,,,,,,,,,,,,,,,,,,
,6175ef3720a77a161dbe7cdc,627c6f20d1967c145333bea1,2022-05-11_21h22.00.046,classification_task,2021.2.3,Win32,59.99880002,627c6715c52fd12f31907bcf,,,,,,,,,,,,,,,,,,,,,,,a,1,0.6628,"[""0.179"",""0.141"",""0.911"",""0.945""]","[1,0,1,1]",0,60,60,60,1,0,1,,,0,FALSE,,,,,,,,,,,,,,,,,,,,,,,,,,,,,,,
,6175ef3720a77a161dbe7cdc,627c6f20d1967c145333bea1,2022-05-11_21h22.00.046,classification_task,2021.2.3,Win32,59.99880002,627c6715c52fd12f31907bcf,,,,,,,,,,,,,,,,,,,,,,,l,1,0.9855,"[""0.106"",""0.368"",""0.831"",""0.768""]","[1,1,0,1]",0,61,61,61,1,1,0,,,0,FALSE,,,,,,,,,,,,,,,,,,,,,,,,,,,,,,,
,6175ef3720a77a161dbe7cdc,627c6f20d1967c145333bea1,2022-05-11_21h22.00.046,classification_task,2021.2.3,Win32,59.99880002,627c6715c52fd12f31907bcf,,,,,,,,,,,,,,,,,,,,,,,l,1,0.8989,"[""0.106"",""0.368"",""0.646"",""0.612""]","[1,1,1,0]",0,62,62,62,1,1,0,,,0,FALSE,,,,,,,,,,,,,,,,,,,,,,,,,,,,,,,
,6175ef3720a77a161dbe7cdc,627c6f20d1967c145333bea1,2022-05-11_21h22.00.046,classification_task,2021.2.3,Win32,59.99880002,627c6715c52fd12f31907bcf,,,,,,,,,,,,,,,,,,,,,,,l,1,1.1186,"[""0.066"",""0.144"",""0.523"",""0.721""]","[1,0,1,1]",0,63,63,63,1,1,1,,,0,FALSE,,,,,,,,,,,,,,,,,,,,,,,,,,,,,,,
,6175ef3720a77a161dbe7cdc,627c6f20d1967c145333bea1,2022-05-11_21h22.00.046,classification_task,2021.2.3,Win32,59.99880002,627c6715c52fd12f31907bcf,,,,,,,,,,,,,,,,,,,,,,,,,,,,,,,,,,,,,,,0, ,,0,1.791103273,140.2441,0,2,2,2,1,2,3,,,,,,,,,,,,,,,,,,
,6175ef3720a77a161dbe7cdc,627c6f20d1967c145333bea1,2022-05-11_21h22.00.046,classification_task,2021.2.3,Win32,59.99880002,627c6715c52fd12f31907bcf,,,,,,,,,,,,,,,,,,,,,,,,,,,,,,,,,,,,,,,1,  ,,0,3.260826965,144.2119,0,2,2,2,1,2,3,,,,,,,,,,,,,,,,,,
,6175ef3720a77a161dbe7cdc,627c6f20d1967c145333bea1,2022-05-11_21h22.00.046,classification_task,2021.2.3,Win32,59.99880002,627c6715c52fd12f31907bcf,,,,,,,,,,,,,,,,,,,,,,,,,,,,,,,,,,,,,,,2,  ,,0,10,146.1146,0,2,2,2,1,2,3,,,,,,,,,,,,,,,,,,
,6175ef3720a77a161dbe7cdc,627c6f20d1967c145333bea1,2022-05-11_21h22.00.046,classification_task,2021.2.3,Win32,59.99880002,627c6715c52fd12f31907bcf,,,,,,,,,,,,,,,,,,,,,,,,,,,,,,,,,,,,,,,,,,,,,0,2,2,2,1,,3,,,,,,,,,,,,,,,,,,
,6175ef3720a77a161dbe7cdc,627c6f20d1967c145333bea1,2022-05-11_21h22.00.046,classification_task,2021.2.3,Win32,59.99880002,627c6715c52fd12f31907bcf,,,,,,,,,,,,,,,,,,,,,,,,,,,,,,,,,,,,,,,,,,,,,,,,,,,,,I believe the aid is a competent performer,,0.7,0,5,614.4287,0,0,0,0,1,0,,,,,
,6175ef3720a77a161dbe7cdc,627c6f20d1967c145333bea1,2022-05-11_21h22.00.046,classification_task,2021.2.3,Win32,59.99880002,627c6715c52fd12f31907bcf,,,,,,,,,,,,,,,,,,,,,,,,,,,,,,,,,,,,,,,,,,,,,,,,,,,,,I trust the aid,,0.7,0,5,616.285,0,0,0,0,1,0,,,,,
,6175ef3720a77a161dbe7cdc,627c6f20d1967c145333bea1,2022-05-11_21h22.00.046,classification_task,2021.2.3,Win32,59.99880002,627c6715c52fd12f31907bcf,,,,,,,,,,,,,,,,,,,,,,,,,,,,,,,,,,,,,,,,,,,,,,,,,,,,,I have confidence in the advice given by the aid,,0.7,0,5,618.8435,0,0,0,0,1,0,,,,,
,6175ef3720a77a161dbe7cdc,627c6f20d1967c145333bea1,2022-05-11_21h22.00.046,classification_task,2021.2.3,Win32,59.99880002,627c6715c52fd12f31907bcf,,,,,,,,,,,,,,,,,,,,,,,,,,,,,,,,,,,,,,,,,,,,,,,,,,,,,I can depend on the aid,,0.7,0,5,620.4527,0,0,0,0,1,0,,,,,
,6175ef3720a77a161dbe7cdc,627c6f20d1967c145333bea1,2022-05-11_21h22.00.046,classification_task,2021.2.3,Win32,59.99880002,627c6715c52fd12f31907bcf,,,,,,,,,,,,,,,,,,,,,,,,,,,,,,,,,,,,,,,,,,,,,,,,,,,,,I can rely on the aid to behave in consistent ways,,0.7,0,5,623.6441,0,0,0,0,1,0,,,,,
,6175ef3720a77a161dbe7cdc,627c6f20d1967c145333bea1,2022-05-11_21h22.00.046,classification_task,2021.2.3,Win32,59.99880002,627c6715c52fd12f31907bcf,,,,,,,,,,,,,,,,,,,,,,,,,,,,,,,,,,,,,,,,,,,,,,,,,,,,,I can rely on the aid to do its best every time I take its advice,,0.7,0,5,625.7291,0,0,0,0,1,0,,,,,
,6175ef3720a77a161dbe7cdc,627c6f20d1967c145333bea1,2022-05-11_21h22.00.046,classification_task,2021.2.3,Win32,59.99880002,627c6715c52fd12f31907bcf,,,,,,,,,,,,,,,,,,,,,,,,,,,,,,,,,,,,,,,,,,,,,,,,,,,,,"On trials you completed with assistance from the aid, how frequently did you think the aid was correct?",,0.7,0,100,,0,0,0,0,1,0,,,,,
,6175ef3720a77a161dbe7cdc,627c6f20d1967c145333bea1,2022-05-11_21h22.00.046,classification_task,2021.2.3,Win32,59.99880002,627c6715c52fd12f31907bcf,,,,,,,,,,,,,,,,,,,,,,,,,,,,,,,,,,,,,,,,,,,,,,,,,,,,,"On trials you completed without the aid, how frequently did you think you were correct?",,0.7,0,50,,0,0,0,0,1,0,,,,,
,6175ef3720a77a161dbe7cdc,627c6f20d1967c145333bea1,2022-05-11_21h22.00.046,classification_task,2021.2.3,Win32,59.99880002,627c6715c52fd12f31907bcf,,,,,,,,,,,,,,,,,,,,,,,,,,,,,,,,,,,,,,,,,,,,,,,,,,,,,,,,,,,0,0,0,0,1,,,,,,
,6175ef3720a77a161dbe7cdc,627c6f20d1967c145333bea1,2022-05-11_21h22.00.046,classification_task,2021.2.3,Win32,59.99880002,627c6715c52fd12f31907bcf,,,,,,,,,,,,,,,,,,,,,,,,,,,,,,,,,,,,,,,,,,,,,,,,,,,,,,,,,,,,,,,,,space,16.8222,655.7874,,
,6175ef3720a77a161dbe7cdc,627c6f20d1967c145333bea1,2022-05-11_21h22.00.046,classification_task,2021.2.3,Win32,59.99880002,627c6715c52fd12f31907bcf,,,,,,,,,,,,,,,,,,,,,,,,,,,,,,,,,,,,,,,,,,,,,,,,,,,,,,,,,,,,,,,,,,,,"Mozilla/5.0 (Windows NT 10.0; Win64; x64) AppleWebKit/537.36 (KHTML, like Gecko) Chrome/101.0.4951.54 Safari/537.36",
,6175ef3720a77a161dbe7cdc,627c6f20d1967c145333bea1,2022-05-11_21h22.00.046,classification_task,2021.2.3,Win32,59.99880002,627c6715c52fd12f31907bcf,,,,,,,,,,,,,,,,,,,,,,,,,,,,,,,,,,,,,,,,,,,,,,,,,,,,,,,,,,,,,,,,,,,,,HIGHLIGHT
