usingWebGL,participant,session,date,expName,psychopyVersion,OS,frameRate,PROLIFIC_PID,STUDY_ID,SESSION_ID,signatures_friend,signatures_foe,band_ranges_top,band_ranges_bottom,formitemText,formtype,formundefined,formitemWidth,formindex,formresponse,formrt,key_resp_2.keys,key_resp_2.rt,tute_resp.keys,tute_resp.rt,tutorial.thisRepN,tutorial.thisTrialN,tutorial.thisN,tutorial.thisIndex,tutorial.ran,key_resp_4.keys,key_resp_4.rt,key_resp.keys,key_resp.corr,key_resp.rt,lines_presented,is_signal_presented,trials.thisRepN,trials.thisTrialN,trials.thisN,trials.thisIndex,trials.ran,vessel,active_band,lines,is_signal,supported_pos,catch_trial,debrief_formindex,debrief_formitemText,debrief_formtype,debrief_formitemWidth,debrief_formresponse,debrief_formrt,phases.thisRepN,phases.thisTrialN,phases.thisN,phases.thisIndex,phases.ran,phases.order,phase,key_resp_3.keys,trustitemText,trusttype,trustitemWidth,trustindex,trustresponse,trustrt,support_status.thisRepN,support_status.thisTrialN,support_status.thisN,support_status.thisIndex,support_status.ran,support_status.order,key_resp_5.keys,key_resp_5.rt,globalClockTime,userAgent
TRUE,6176846e673909995a32dce3,001,2022-04-29_02h10.43.143,classification_task,2021.2.3,Win32,60.0528465,6176846e673909995a32dce3,626b377229c10585ec392f8a,626b3ab6be0ebced469cce3c,,,,,,,,,,,,,,,,,,,,,,,,,,,,,,,,,,,,,,,,,,,,,,,,,,,,,,,,,,,,,,,,,,,,
,6176846e673909995a32dce3,001,2022-04-29_02h10.43.143,classification_task,2021.2.3,Win32,60.0528465,6176846e673909995a32dce3,626b377229c10585ec392f8a,626b3ab6be0ebced469cce3c,"[[""0.274"",""0.342"",""0.896"",""0.941""],[""0.228"",""0.539"",""0.854"",""0.975""]]","[[""0.070"",""0.193"",""0.640"",""0.681""],[""0.130"",""0.381"",""0.459"",""0.763""]]","[1,10]","[100,1000]",Video game experience,,,0.7,0,,,,,,,,,,,,,,,,,,,,,,,,,,,,,,,,,,,,,,,,,,,,,,,,,,,,,,,,,,,
,6176846e673909995a32dce3,001,2022-04-29_02h10.43.143,classification_task,2021.2.3,Win32,60.0528465,6176846e673909995a32dce3,626b377229c10585ec392f8a,626b3ab6be0ebced469cce3c,,,,,Approximately how many hours did you spend playing video games in the last week?,,,0.7,0,35,,,,,,,,,,,,,,,,,,,,,,,,,,,,,,,,,,,,,,,,,,,,,,,,,,,,,,,,,,
,6176846e673909995a32dce3,001,2022-04-29_02h10.43.143,classification_task,2021.2.3,Win32,60.0528465,6176846e673909995a32dce3,626b377229c10585ec392f8a,626b3ab6be0ebced469cce3c,,,,,"Which game did you play the most this year? (Enter ""None"" if you didn't play any)",,,0.7,0,Genshin Impact,,,,,,,,,,,,,,,,,,,,,,,,,,,,,,,,,,,,,,,,,,,,,,,,,,,,,,,,,,
,6176846e673909995a32dce3,001,2022-04-29_02h10.43.143,classification_task,2021.2.3,Win32,60.0528465,6176846e673909995a32dce3,626b377229c10585ec392f8a,626b3ab6be0ebced469cce3c,,,,,Visual perception,,,0.7,0,,,,,,,,,,,,,,,,,,,,,,,,,,,,,,,,,,,,,,,,,,,,,,,,,,,,,,,,,,,
,6176846e673909995a32dce3,001,2022-04-29_02h10.43.143,classification_task,2021.2.3,Win32,60.0528465,6176846e673909995a32dce3,626b377229c10585ec392f8a,626b3ab6be0ebced469cce3c,,,,,Do you have any form of color blindness?,,,0.7,0,No,110.0147,,,,,,,,,,,,,,,,,,,,,,,,,,,,,,,,,,,,,,,,,,,,,,,,,,,,,,,,,
,6176846e673909995a32dce3,001,2022-04-29_02h10.43.143,classification_task,2021.2.3,Win32,60.0528465,6176846e673909995a32dce3,626b377229c10585ec392f8a,626b3ab6be0ebced469cce3c,,,,,Do you use software to change the colour temperature of your screen (e.g. f.lux)?,,,0.7,0,No,112.399,,,,,,,,,,,,,,,,,,,,,,,,,,,,,,,,,,,,,,,,,,,,,,,,,,,,,,,,,
,6176846e673909995a32dce3,001,2022-04-29_02h10.43.143,classification_task,2021.2.3,Win32,60.0528465,6176846e673909995a32dce3,626b377229c10585ec392f8a,626b3ab6be0ebced469cce3c,,,,,,,,,,,,space,48.8562,space,24.9761,0,0,0,0,1,,,,,,,,,,,,,,,,,,,,,,,,,,,,,,,,,,,,,,,,,,,,,,,,
,6176846e673909995a32dce3,001,2022-04-29_02h10.43.143,classification_task,2021.2.3,Win32,60.0528465,6176846e673909995a32dce3,626b377229c10585ec392f8a,626b3ab6be0ebced469cce3c,,,,,,,,,,,,,,space,5.2503,1,0,1,0,1,,,,,,,,,,,,,,,,,,,,,,,,,,,,,,,,,,,,,,,,,,,,,,,,
,6176846e673909995a32dce3,001,2022-04-29_02h10.43.143,classification_task,2021.2.3,Win32,60.0528465,6176846e673909995a32dce3,626b377229c10585ec392f8a,626b3ab6be0ebced469cce3c,,,,,,,,,,,,,,space,13.969,2,0,2,0,1,,,,,,,,,,,,,,,,,,,,,,,,,,,,,,,,,,,,,,,,,,,,,,,,
,6176846e673909995a32dce3,001,2022-04-29_02h10.43.143,classification_task,2021.2.3,Win32,60.0528465,6176846e673909995a32dce3,626b377229c10585ec392f8a,626b3ab6be0ebced469cce3c,,,,,,,,,,,,,,space,14.6127,3,0,3,0,1,,,,,,,,,,,,,,,,,,,,,,,,,,,,,,,,,,,,,,,,,,,,,,,,
,6176846e673909995a32dce3,001,2022-04-29_02h10.43.143,classification_task,2021.2.3,Win32,60.0528465,6176846e673909995a32dce3,626b377229c10585ec392f8a,626b3ab6be0ebced469cce3c,,,,,,,,,,,,,,space,604.0804,4,0,4,0,1,,,,,,,,,,,,,,,,,,,,,,,,,,,,,,,,,,,,,,,,,,,,,,,,
,6176846e673909995a32dce3,001,2022-04-29_02h10.43.143,classification_task,2021.2.3,Win32,60.0528465,6176846e673909995a32dce3,626b377229c10585ec392f8a,626b3ab6be0ebced469cce3c,,,,,,,,,,,,,,,,,,,,,space,3.4506,a,0,3.5647,"[""0.070"",""0.193"",""0.640"",""0.717""]","[1,1,1,0]",0,0,0,0,1,1,0,,,0,FALSE,,,,,,,,,,,,,,,,,,,,,,,,,,,,,,
,6176846e673909995a32dce3,001,2022-04-29_02h10.43.143,classification_task,2021.2.3,Win32,60.0528465,6176846e673909995a32dce3,626b377229c10585ec392f8a,626b3ab6be0ebced469cce3c,,,,,,,,,,,,,,,,,,,,,,,a,0,2.2528,"[""0.070"",""0.029"",""0.640"",""0.681""]","[1,0,1,1]",0,1,1,1,1,1,0,,,0,FALSE,,,,,,,,,,,,,,,,,,,,,,,,,,,,,,
,6176846e673909995a32dce3,001,2022-04-29_02h10.43.143,classification_task,2021.2.3,Win32,60.0528465,6176846e673909995a32dce3,626b377229c10585ec392f8a,626b3ab6be0ebced469cce3c,,,,,,,,,,,,,,,,,,,,,,,a,0,3.5719,"[""0.070"",""0.193"",""0.029"",""0.681""]","[1,1,0,1]",0,2,2,2,1,1,0,,,0,FALSE,,,,,,,,,,,,,,,,,,,,,,,,,,,,,,
,6176846e673909995a32dce3,001,2022-04-29_02h10.43.143,classification_task,2021.2.3,Win32,60.0528465,6176846e673909995a32dce3,626b377229c10585ec392f8a,626b3ab6be0ebced469cce3c,,,,,,,,,,,,,,,,,,,,,,,l,0,0.5946,"[""0.228"",""0.539"",""0.854"",""0.715""]","[1,1,1,0]",0,3,3,3,1,0,1,,,0,FALSE,,,,,,,,,,,,,,,,,,,,,,,,,,,,,,
,6176846e673909995a32dce3,001,2022-04-29_02h10.43.143,classification_task,2021.2.3,Win32,60.0528465,6176846e673909995a32dce3,626b377229c10585ec392f8a,626b3ab6be0ebced469cce3c,,,,,,,,,,,,,,,,,,,,,,,l,0,2.1513,"[""0.274"",""0.717"",""0.896"",""0.941""]","[1,0,1,1]",0,4,4,4,1,0,0,,,0,FALSE,,,,,,,,,,,,,,,,,,,,,,,,,,,,,,
,6176846e673909995a32dce3,001,2022-04-29_02h10.43.143,classification_task,2021.2.3,Win32,60.0528465,6176846e673909995a32dce3,626b377229c10585ec392f8a,626b3ab6be0ebced469cce3c,,,,,,,,,,,,,,,,,,,,,,,a,0,1.0736,"[""0.422"",""0.193"",""0.640"",""0.681""]","[0,1,1,1]",0,5,5,5,1,1,0,,,0,FALSE,,,,,,,,,,,,,,,,,,,,,,,,,,,,,,
,6176846e673909995a32dce3,001,2022-04-29_02h10.43.143,classification_task,2021.2.3,Win32,60.0528465,6176846e673909995a32dce3,626b377229c10585ec392f8a,626b3ab6be0ebced469cce3c,,,,,,,,,,,,,,,,,,,,,,,l,0,1.0342,"[""0.422"",""0.342"",""0.896"",""0.941""]","[0,1,1,1]",0,6,6,6,1,0,0,,,0,FALSE,,,,,,,,,,,,,,,,,,,,,,,,,,,,,,
,6176846e673909995a32dce3,001,2022-04-29_02h10.43.143,classification_task,2021.2.3,Win32,60.0528465,6176846e673909995a32dce3,626b377229c10585ec392f8a,626b3ab6be0ebced469cce3c,,,,,,,,,,,,,,,,,,,,,,,a,0,3.6504,"[""0.130"",""0.494"",""0.459"",""0.763""]","[1,0,1,1]",0,7,7,7,1,1,1,,,0,FALSE,,,,,,,,,,,,,,,,,,,,,,,,,,,,,,
,6176846e673909995a32dce3,001,2022-04-29_02h10.43.143,classification_task,2021.2.3,Win32,60.0528465,6176846e673909995a32dce3,626b377229c10585ec392f8a,626b3ab6be0ebced469cce3c,,,,,,,,,,,,,,,,,,,,,,,l,0,1.0623,"[""0.274"",""0.342"",""0.812"",""0.941""]","[1,1,0,1]",0,8,8,8,1,0,0,,,0,FALSE,,,,,,,,,,,,,,,,,,,,,,,,,,,,,,
,6176846e673909995a32dce3,001,2022-04-29_02h10.43.143,classification_task,2021.2.3,Win32,60.0528465,6176846e673909995a32dce3,626b377229c10585ec392f8a,626b3ab6be0ebced469cce3c,,,,,,,,,,,,,,,,,,,,,,,a,1,0.7849,"[""0.274"",""0.342"",""0.896"",""0.576""]","[1,1,1,0]",0,9,9,9,1,0,0,,,0,FALSE,,,,,,,,,,,,,,,,,,,,,,,,,,,,,,
,6176846e673909995a32dce3,001,2022-04-29_02h10.43.143,classification_task,2021.2.3,Win32,60.0528465,6176846e673909995a32dce3,626b377229c10585ec392f8a,626b3ab6be0ebced469cce3c,,,,,,,,,,,,,,,,,,,,,,,l,0,1.2622,"[""0.228"",""0.539"",""0.422"",""0.975""]","[1,1,0,1]",0,10,10,10,1,0,1,,,0,FALSE,,,,,,,,,,,,,,,,,,,,,,,,,,,,,,
,6176846e673909995a32dce3,001,2022-04-29_02h10.43.143,classification_task,2021.2.3,Win32,60.0528465,6176846e673909995a32dce3,626b377229c10585ec392f8a,626b3ab6be0ebced469cce3c,,,,,,,,,,,,,,,,,,,,,,,a,0,0.5877,"[""0.130"",""0.381"",""0.029"",""0.763""]","[1,1,0,1]",0,11,11,11,1,1,1,,,0,FALSE,,,,,,,,,,,,,,,,,,,,,,,,,,,,,,
,6176846e673909995a32dce3,001,2022-04-29_02h10.43.143,classification_task,2021.2.3,Win32,60.0528465,6176846e673909995a32dce3,626b377229c10585ec392f8a,626b3ab6be0ebced469cce3c,,,,,,,,,,,,,,,,,,,,,,,l,1,2.8352,"[""0.722"",""0.381"",""0.459"",""0.763""]","[0,1,1,1]",0,12,12,12,1,1,1,,,0,FALSE,,,,,,,,,,,,,,,,,,,,,,,,,,,,,,
,6176846e673909995a32dce3,001,2022-04-29_02h10.43.143,classification_task,2021.2.3,Win32,60.0528465,6176846e673909995a32dce3,626b377229c10585ec392f8a,626b3ab6be0ebced469cce3c,,,,,,,,,,,,,,,,,,,,,,,l,0,0.9503,"[""0.812"",""0.539"",""0.854"",""0.975""]","[0,1,1,1]",0,13,13,13,1,0,1,,,0,FALSE,,,,,,,,,,,,,,,,,,,,,,,,,,,,,,
,6176846e673909995a32dce3,001,2022-04-29_02h10.43.143,classification_task,2021.2.3,Win32,60.0528465,6176846e673909995a32dce3,626b377229c10585ec392f8a,626b3ab6be0ebced469cce3c,,,,,,,,,,,,,,,,,,,,,,,a,0,0.8182,"[""0.130"",""0.381"",""0.459"",""0.595""]","[1,1,1,0]",0,14,14,14,1,1,1,,,0,FALSE,,,,,,,,,,,,,,,,,,,,,,,,,,,,,,
,6176846e673909995a32dce3,001,2022-04-29_02h10.43.143,classification_task,2021.2.3,Win32,60.0528465,6176846e673909995a32dce3,626b377229c10585ec392f8a,626b3ab6be0ebced469cce3c,,,,,,,,,,,,,,,,,,,,,,,l,0,1.488,"[""0.228"",""0.806"",""0.854"",""0.975""]","[1,0,1,1]",0,15,15,15,1,0,1,,,0,FALSE,,,,,,,,,,,,,,,,,,,,,,,,,,,,,,
,6176846e673909995a32dce3,001,2022-04-29_02h10.43.143,classification_task,2021.2.3,Win32,60.0528465,6176846e673909995a32dce3,626b377229c10585ec392f8a,626b3ab6be0ebced469cce3c,,,,,,,,,,,,,,,,,,,,,,,a,0,1.1447,"[""0.070"",""0.193"",""0.640"",""0.573""]","[1,1,1,0]",0,16,16,16,1,1,0,,,0,FALSE,,,,,,,,,,,,,,,,,,,,,,,,,,,,,,
,6176846e673909995a32dce3,001,2022-04-29_02h10.43.143,classification_task,2021.2.3,Win32,60.0528465,6176846e673909995a32dce3,626b377229c10585ec392f8a,626b3ab6be0ebced469cce3c,,,,,,,,,,,,,,,,,,,,,,,l,1,1.1007,"[""0.070"",""0.494"",""0.640"",""0.681""]","[1,0,1,1]",0,17,17,17,1,1,0,,,0,FALSE,,,,,,,,,,,,,,,,,,,,,,,,,,,,,,
,6176846e673909995a32dce3,001,2022-04-29_02h10.43.143,classification_task,2021.2.3,Win32,60.0528465,6176846e673909995a32dce3,626b377229c10585ec392f8a,626b3ab6be0ebced469cce3c,,,,,,,,,,,,,,,,,,,,,,,l,0,0.6446,"[""0.228"",""0.539"",""0.722"",""0.975""]","[1,1,0,1]",0,18,18,18,1,0,1,,,0,FALSE,,,,,,,,,,,,,,,,,,,,,,,,,,,,,,
,6176846e673909995a32dce3,001,2022-04-29_02h10.43.143,classification_task,2021.2.3,Win32,60.0528465,6176846e673909995a32dce3,626b377229c10585ec392f8a,626b3ab6be0ebced469cce3c,,,,,,,,,,,,,,,,,,,,,,,a,1,0.6873,"[""0.228"",""0.573"",""0.854"",""0.975""]","[1,0,1,1]",0,19,19,19,1,0,1,,,0,FALSE,,,,,,,,,,,,,,,,,,,,,,,,,,,,,,
,6176846e673909995a32dce3,001,2022-04-29_02h10.43.143,classification_task,2021.2.3,Win32,60.0528465,6176846e673909995a32dce3,626b377229c10585ec392f8a,626b3ab6be0ebced469cce3c,,,,,,,,,,,,,,,,,,,,,,,l,1,1.4183,"[""0.130"",""0.381"",""0.422"",""0.763""]","[1,1,0,1]",0,20,20,20,1,1,1,,,0,FALSE,,,,,,,,,,,,,,,,,,,,,,,,,,,,,,
,6176846e673909995a32dce3,001,2022-04-29_02h10.43.143,classification_task,2021.2.3,Win32,60.0528465,6176846e673909995a32dce3,626b377229c10585ec392f8a,626b3ab6be0ebced469cce3c,,,,,,,,,,,,,,,,,,,,,,,a,1,0.8114,"[""0.595"",""0.342"",""0.896"",""0.941""]","[0,1,1,1]",0,21,21,21,1,0,0,,,0,FALSE,,,,,,,,,,,,,,,,,,,,,,,,,,,,,,
,6176846e673909995a32dce3,001,2022-04-29_02h10.43.143,classification_task,2021.2.3,Win32,60.0528465,6176846e673909995a32dce3,626b377229c10585ec392f8a,626b3ab6be0ebced469cce3c,,,,,,,,,,,,,,,,,,,,,,,a,1,0.9631,"[""0.228"",""0.539"",""0.854"",""0.727""]","[1,1,1,0]",0,22,22,22,1,0,1,,,0,FALSE,,,,,,,,,,,,,,,,,,,,,,,,,,,,,,
,6176846e673909995a32dce3,001,2022-04-29_02h10.43.143,classification_task,2021.2.3,Win32,60.0528465,6176846e673909995a32dce3,626b377229c10585ec392f8a,626b3ab6be0ebced469cce3c,,,,,,,,,,,,,,,,,,,,,,,a,0,0.8845,"[""0.812"",""0.381"",""0.459"",""0.763""]","[0,1,1,1]",0,23,23,23,1,1,1,,,0,FALSE,,,,,,,,,,,,,,,,,,,,,,,,,,,,,,
,6176846e673909995a32dce3,001,2022-04-29_02h10.43.143,classification_task,2021.2.3,Win32,60.0528465,6176846e673909995a32dce3,626b377229c10585ec392f8a,626b3ab6be0ebced469cce3c,,,,,,,,,,,,,,,,,,,,,,,l,1,0.8549,"[""0.130"",""0.576"",""0.459"",""0.763""]","[1,0,1,1]",0,24,24,24,1,1,1,,,0,FALSE,,,,,,,,,,,,,,,,,,,,,,,,,,,,,,
,6176846e673909995a32dce3,001,2022-04-29_02h10.43.143,classification_task,2021.2.3,Win32,60.0528465,6176846e673909995a32dce3,626b377229c10585ec392f8a,626b3ab6be0ebced469cce3c,,,,,,,,,,,,,,,,,,,,,,,a,1,0.7953,"[""0.274"",""0.573"",""0.896"",""0.941""]","[1,0,1,1]",0,25,25,25,1,0,0,,,0,FALSE,,,,,,,,,,,,,,,,,,,,,,,,,,,,,,
,6176846e673909995a32dce3,001,2022-04-29_02h10.43.143,classification_task,2021.2.3,Win32,60.0528465,6176846e673909995a32dce3,626b377229c10585ec392f8a,626b3ab6be0ebced469cce3c,,,,,,,,,,,,,,,,,,,,,,,a,0,0.9335,"[""0.727"",""0.193"",""0.640"",""0.681""]","[0,1,1,1]",0,26,26,26,1,1,0,,,0,FALSE,,,,,,,,,,,,,,,,,,,,,,,,,,,,,,
,6176846e673909995a32dce3,001,2022-04-29_02h10.43.143,classification_task,2021.2.3,Win32,60.0528465,6176846e673909995a32dce3,626b377229c10585ec392f8a,626b3ab6be0ebced469cce3c,,,,,,,,,,,,,,,,,,,,,,,l,1,1.534,"[""0.070"",""0.193"",""0.819"",""0.681""]","[1,1,0,1]",0,27,27,27,1,1,0,,,0,FALSE,,,,,,,,,,,,,,,,,,,,,,,,,,,,,,
,6176846e673909995a32dce3,001,2022-04-29_02h10.43.143,classification_task,2021.2.3,Win32,60.0528465,6176846e673909995a32dce3,626b377229c10585ec392f8a,626b3ab6be0ebced469cce3c,,,,,,,,,,,,,,,,,,,,,,,l,1,0.8101,"[""0.130"",""0.381"",""0.459"",""0.034""]","[1,1,1,0]",0,28,28,28,1,1,1,,,0,FALSE,,,,,,,,,,,,,,,,,,,,,,,,,,,,,,
,6176846e673909995a32dce3,001,2022-04-29_02h10.43.143,classification_task,2021.2.3,Win32,60.0528465,6176846e673909995a32dce3,626b377229c10585ec392f8a,626b3ab6be0ebced469cce3c,,,,,,,,,,,,,,,,,,,,,,,a,1,0.6679,"[""0.494"",""0.539"",""0.854"",""0.975""]","[0,1,1,1]",0,29,29,29,1,0,1,,,0,FALSE,,,,,,,,,,,,,,,,,,,,,,,,,,,,,,
,6176846e673909995a32dce3,001,2022-04-29_02h10.43.143,classification_task,2021.2.3,Win32,60.0528465,6176846e673909995a32dce3,626b377229c10585ec392f8a,626b3ab6be0ebced469cce3c,,,,,,,,,,,,,,,,,,,,,,,l,0,1.3623,"[""0.274"",""0.342"",""0.896"",""0.501""]","[1,1,1,0]",0,30,30,30,1,0,0,,,0,FALSE,,,,,,,,,,,,,,,,,,,,,,,,,,,,,,
,6176846e673909995a32dce3,001,2022-04-29_02h10.43.143,classification_task,2021.2.3,Win32,60.0528465,6176846e673909995a32dce3,626b377229c10585ec392f8a,626b3ab6be0ebced469cce3c,,,,,,,,,,,,,,,,,,,,,,,a,1,0.6347,"[""0.274"",""0.342"",""0.819"",""0.941""]","[1,1,0,1]",0,31,31,31,1,0,0,,,0,FALSE,,,,,,,,,,,,,,,,,,,,,,,,,,,,,,
,6176846e673909995a32dce3,001,2022-04-29_02h10.43.143,classification_task,2021.2.3,Win32,60.0528465,6176846e673909995a32dce3,626b377229c10585ec392f8a,626b3ab6be0ebced469cce3c,,,,,,,,,,,,,,,,,,,,,,,l,1,0.7841,"[""0.029"",""0.193"",""0.640"",""0.681""]","[0,1,1,1]",0,32,32,32,1,1,0,,,0,FALSE,,,,,,,,,,,,,,,,,,,,,,,,,,,,,,
,6176846e673909995a32dce3,001,2022-04-29_02h10.43.143,classification_task,2021.2.3,Win32,60.0528465,6176846e673909995a32dce3,626b377229c10585ec392f8a,626b3ab6be0ebced469cce3c,,,,,,,,,,,,,,,,,,,,,,,a,1,0.6857,"[""0.715"",""0.539"",""0.854"",""0.975""]","[0,1,1,1]",0,33,33,33,1,0,1,,,0,FALSE,,,,,,,,,,,,,,,,,,,,,,,,,,,,,,
,6176846e673909995a32dce3,001,2022-04-29_02h10.43.143,classification_task,2021.2.3,Win32,60.0528465,6176846e673909995a32dce3,626b377229c10585ec392f8a,626b3ab6be0ebced469cce3c,,,,,,,,,,,,,,,,,,,,,,,a,1,0.7175,"[""0.274"",""0.342"",""0.722"",""0.941""]","[1,1,0,1]",0,34,34,34,1,0,0,,,0,FALSE,,,,,,,,,,,,,,,,,,,,,,,,,,,,,,
,6176846e673909995a32dce3,001,2022-04-29_02h10.43.143,classification_task,2021.2.3,Win32,60.0528465,6176846e673909995a32dce3,626b377229c10585ec392f8a,626b3ab6be0ebced469cce3c,,,,,,,,,,,,,,,,,,,,,,,a,1,1.0333,"[""0.274"",""0.715"",""0.896"",""0.941""]","[1,0,1,1]",0,35,35,35,1,0,0,,,0,FALSE,,,,,,,,,,,,,,,,,,,,,,,,,,,,,,
,6176846e673909995a32dce3,001,2022-04-29_02h10.43.143,classification_task,2021.2.3,Win32,60.0528465,6176846e673909995a32dce3,626b377229c10585ec392f8a,626b3ab6be0ebced469cce3c,,,,,,,,,,,,,,,,,,,,,,,a,1,0.6506,"[""0.422"",""0.342"",""0.896"",""0.941""]","[0,1,1,1]",0,36,36,36,1,0,0,,,0,FALSE,,,,,,,,,,,,,,,,,,,,,,,,,,,,,,
,6176846e673909995a32dce3,001,2022-04-29_02h10.43.143,classification_task,2021.2.3,Win32,60.0528465,6176846e673909995a32dce3,626b377229c10585ec392f8a,626b3ab6be0ebced469cce3c,,,,,,,,,,,,,,,,,,,,,,,l,1,0.7509,"[""0.070"",""0.193"",""0.640"",""0.576""]","[1,1,1,0]",0,37,37,37,1,1,0,,,0,FALSE,,,,,,,,,,,,,,,,,,,,,,,,,,,,,,
,6176846e673909995a32dce3,001,2022-04-29_02h10.43.143,classification_task,2021.2.3,Win32,60.0528465,6176846e673909995a32dce3,626b377229c10585ec392f8a,626b3ab6be0ebced469cce3c,,,,,,,,,,,,,,,,,,,,,,,a,1,0.6003,"[""0.228"",""0.722"",""0.854"",""0.975""]","[1,0,1,1]",0,38,38,38,1,0,1,,,0,FALSE,,,,,,,,,,,,,,,,,,,,,,,,,,,,,,
,6176846e673909995a32dce3,001,2022-04-29_02h10.43.143,classification_task,2021.2.3,Win32,60.0528465,6176846e673909995a32dce3,626b377229c10585ec392f8a,626b3ab6be0ebced469cce3c,,,,,,,,,,,,,,,,,,,,,,,a,1,0.6854,"[""0.274"",""0.342"",""0.896"",""0.717""]","[1,1,1,0]",0,39,39,39,1,0,0,,,0,FALSE,,,,,,,,,,,,,,,,,,,,,,,,,,,,,,
,6176846e673909995a32dce3,001,2022-04-29_02h10.43.143,classification_task,2021.2.3,Win32,60.0528465,6176846e673909995a32dce3,626b377229c10585ec392f8a,626b3ab6be0ebced469cce3c,,,,,,,,,,,,,,,,,,,,,,,l,0,1.0002,"[""0.228"",""0.539"",""0.854"",""0.034""]","[1,1,1,0]",0,40,40,40,1,0,1,,,0,FALSE,,,,,,,,,,,,,,,,,,,,,,,,,,,,,,
,6176846e673909995a32dce3,001,2022-04-29_02h10.43.143,classification_task,2021.2.3,Win32,60.0528465,6176846e673909995a32dce3,626b377229c10585ec392f8a,626b3ab6be0ebced469cce3c,,,,,,,,,,,,,,,,,,,,,,,a,0,0.4835,"[""0.812"",""0.381"",""0.459"",""0.763""]","[0,1,1,1]",0,41,41,41,1,1,1,,,0,FALSE,,,,,,,,,,,,,,,,,,,,,,,,,,,,,,
,6176846e673909995a32dce3,001,2022-04-29_02h10.43.143,classification_task,2021.2.3,Win32,60.0528465,6176846e673909995a32dce3,626b377229c10585ec392f8a,626b3ab6be0ebced469cce3c,,,,,,,,,,,,,,,,,,,,,,,l,1,0.7013,"[""0.130"",""0.381"",""0.459"",""0.727""]","[1,1,1,0]",0,42,42,42,1,1,1,,,0,FALSE,,,,,,,,,,,,,,,,,,,,,,,,,,,,,,
,6176846e673909995a32dce3,001,2022-04-29_02h10.43.143,classification_task,2021.2.3,Win32,60.0528465,6176846e673909995a32dce3,626b377229c10585ec392f8a,626b3ab6be0ebced469cce3c,,,,,,,,,,,,,,,,,,,,,,,l,1,0.7214,"[""0.070"",""0.193"",""0.422"",""0.681""]","[1,1,0,1]",0,43,43,43,1,1,0,,,0,FALSE,,,,,,,,,,,,,,,,,,,,,,,,,,,,,,
,6176846e673909995a32dce3,001,2022-04-29_02h10.43.143,classification_task,2021.2.3,Win32,60.0528465,6176846e673909995a32dce3,626b377229c10585ec392f8a,626b3ab6be0ebced469cce3c,,,,,,,,,,,,,,,,,,,,,,,a,0,0.6146,"[""0.130"",""0.381"",""0.715"",""0.763""]","[1,1,0,1]",0,44,44,44,1,1,1,,,0,FALSE,,,,,,,,,,,,,,,,,,,,,,,,,,,,,,
,6176846e673909995a32dce3,001,2022-04-29_02h10.43.143,classification_task,2021.2.3,Win32,60.0528465,6176846e673909995a32dce3,626b377229c10585ec392f8a,626b3ab6be0ebced469cce3c,,,,,,,,,,,,,,,,,,,,,,,a,0,0.7713,"[""0.070"",""0.715"",""0.640"",""0.681""]","[1,0,1,1]",0,45,45,45,1,1,0,,,0,FALSE,,,,,,,,,,,,,,,,,,,,,,,,,,,,,,
,6176846e673909995a32dce3,001,2022-04-29_02h10.43.143,classification_task,2021.2.3,Win32,60.0528465,6176846e673909995a32dce3,626b377229c10585ec392f8a,626b3ab6be0ebced469cce3c,,,,,,,,,,,,,,,,,,,,,,,a,1,0.6218,"[""0.228"",""0.539"",""0.722"",""0.975""]","[1,1,0,1]",0,46,46,46,1,0,1,,,0,FALSE,,,,,,,,,,,,,,,,,,,,,,,,,,,,,,
,6176846e673909995a32dce3,001,2022-04-29_02h10.43.143,classification_task,2021.2.3,Win32,60.0528465,6176846e673909995a32dce3,626b377229c10585ec392f8a,626b3ab6be0ebced469cce3c,,,,,,,,,,,,,,,,,,,,,,,a,0,0.8512,"[""0.130"",""0.722"",""0.459"",""0.763""]","[1,0,1,1]",0,47,47,47,1,1,1,,,0,FALSE,,,,,,,,,,,,,,,,,,,,,,,,,,,,,,
,6176846e673909995a32dce3,001,2022-04-29_02h10.43.143,classification_task,2021.2.3,Win32,60.0528465,6176846e673909995a32dce3,626b377229c10585ec392f8a,626b3ab6be0ebced469cce3c,,,,,,,,,,,,,,,,,,,,,,,l,1,0.667,"[""0.070"",""0.193"",""0.573"",""0.681""]","[1,1,0,1]",0,48,48,48,1,1,0,,,0,FALSE,,,,,,,,,,,,,,,,,,,,,,,,,,,,,,
,6176846e673909995a32dce3,001,2022-04-29_02h10.43.143,classification_task,2021.2.3,Win32,60.0528465,6176846e673909995a32dce3,626b377229c10585ec392f8a,626b3ab6be0ebced469cce3c,,,,,,,,,,,,,,,,,,,,,,,a,1,0.6171,"[""0.274"",""0.342"",""0.717"",""0.941""]","[1,1,0,1]",0,49,49,49,1,0,0,,,0,FALSE,,,,,,,,,,,,,,,,,,,,,,,,,,,,,,
,6176846e673909995a32dce3,001,2022-04-29_02h10.43.143,classification_task,2021.2.3,Win32,60.0528465,6176846e673909995a32dce3,626b377229c10585ec392f8a,626b3ab6be0ebced469cce3c,,,,,,,,,,,,,,,,,,,,,,,a,0,0.8015,"[""0.494"",""0.193"",""0.640"",""0.681""]","[0,1,1,1]",0,50,50,50,1,1,0,,,0,FALSE,,,,,,,,,,,,,,,,,,,,,,,,,,,,,,
,6176846e673909995a32dce3,001,2022-04-29_02h10.43.143,classification_task,2021.2.3,Win32,60.0528465,6176846e673909995a32dce3,626b377229c10585ec392f8a,626b3ab6be0ebced469cce3c,,,,,,,,,,,,,,,,,,,,,,,l,1,0.6336,"[""0.070"",""0.193"",""0.640"",""0.494""]","[1,1,1,0]",0,51,51,51,1,1,0,,,0,FALSE,,,,,,,,,,,,,,,,,,,,,,,,,,,,,,
,6176846e673909995a32dce3,001,2022-04-29_02h10.43.143,classification_task,2021.2.3,Win32,60.0528465,6176846e673909995a32dce3,626b377229c10585ec392f8a,626b3ab6be0ebced469cce3c,,,,,,,,,,,,,,,,,,,,,,,a,1,0.601,"[""0.228"",""0.539"",""0.854"",""0.812""]","[1,1,1,0]",0,52,52,52,1,0,1,,,0,FALSE,,,,,,,,,,,,,,,,,,,,,,,,,,,,,,
,6176846e673909995a32dce3,001,2022-04-29_02h10.43.143,classification_task,2021.2.3,Win32,60.0528465,6176846e673909995a32dce3,626b377229c10585ec392f8a,626b3ab6be0ebced469cce3c,,,,,,,,,,,,,,,,,,,,,,,l,1,0.7675,"[""0.130"",""0.381"",""0.459"",""0.595""]","[1,1,1,0]",0,53,53,53,1,1,1,,,0,FALSE,,,,,,,,,,,,,,,,,,,,,,,,,,,,,,
,6176846e673909995a32dce3,001,2022-04-29_02h10.43.143,classification_task,2021.2.3,Win32,60.0528465,6176846e673909995a32dce3,626b377229c10585ec392f8a,626b3ab6be0ebced469cce3c,,,,,,,,,,,,,,,,,,,,,,,a,1,0.6334,"[""0.228"",""0.539"",""0.812"",""0.975""]","[1,1,0,1]",0,54,54,54,1,0,1,,,0,FALSE,,,,,,,,,,,,,,,,,,,,,,,,,,,,,,
,6176846e673909995a32dce3,001,2022-04-29_02h10.43.143,classification_task,2021.2.3,Win32,60.0528465,6176846e673909995a32dce3,626b377229c10585ec392f8a,626b3ab6be0ebced469cce3c,,,,,,,,,,,,,,,,,,,,,,,a,1,0.6043,"[""0.274"",""0.342"",""0.896"",""0.727""]","[1,1,1,0]",0,55,55,55,1,0,0,,,0,FALSE,,,,,,,,,,,,,,,,,,,,,,,,,,,,,,
,6176846e673909995a32dce3,001,2022-04-29_02h10.43.143,classification_task,2021.2.3,Win32,60.0528465,6176846e673909995a32dce3,626b377229c10585ec392f8a,626b3ab6be0ebced469cce3c,,,,,,,,,,,,,,,,,,,,,,,a,0,0.5512,"[""0.130"",""0.381"",""0.715"",""0.763""]","[1,1,0,1]",0,56,56,56,1,1,1,,,0,FALSE,,,,,,,,,,,,,,,,,,,,,,,,,,,,,,
,6176846e673909995a32dce3,001,2022-04-29_02h10.43.143,classification_task,2021.2.3,Win32,60.0528465,6176846e673909995a32dce3,626b377229c10585ec392f8a,626b3ab6be0ebced469cce3c,,,,,,,,,,,,,,,,,,,,,,,a,1,0.5341,"[""0.228"",""0.715"",""0.854"",""0.975""]","[1,0,1,1]",0,57,57,57,1,0,1,,,0,FALSE,,,,,,,,,,,,,,,,,,,,,,,,,,,,,,
,6176846e673909995a32dce3,001,2022-04-29_02h10.43.143,classification_task,2021.2.3,Win32,60.0528465,6176846e673909995a32dce3,626b377229c10585ec392f8a,626b3ab6be0ebced469cce3c,,,,,,,,,,,,,,,,,,,,,,,l,1,1.1002,"[""0.034"",""0.381"",""0.459"",""0.763""]","[0,1,1,1]",0,58,58,58,1,1,1,,,0,FALSE,,,,,,,,,,,,,,,,,,,,,,,,,,,,,,
,6176846e673909995a32dce3,001,2022-04-29_02h10.43.143,classification_task,2021.2.3,Win32,60.0528465,6176846e673909995a32dce3,626b377229c10585ec392f8a,626b3ab6be0ebced469cce3c,,,,,,,,,,,,,,,,,,,,,,,l,1,0.6672,"[""0.070"",""0.034"",""0.640"",""0.681""]","[1,0,1,1]",0,59,59,59,1,1,0,,,0,FALSE,,,,,,,,,,,,,,,,,,,,,,,,,,,,,,
,6176846e673909995a32dce3,001,2022-04-29_02h10.43.143,classification_task,2021.2.3,Win32,60.0528465,6176846e673909995a32dce3,626b377229c10585ec392f8a,626b3ab6be0ebced469cce3c,,,,,,,,,,,,,,,,,,,,,,,a,1,0.6176,"[""0.274"",""0.501"",""0.896"",""0.941""]","[1,0,1,1]",0,60,60,60,1,0,0,,,0,FALSE,,,,,,,,,,,,,,,,,,,,,,,,,,,,,,
,6176846e673909995a32dce3,001,2022-04-29_02h10.43.143,classification_task,2021.2.3,Win32,60.0528465,6176846e673909995a32dce3,626b377229c10585ec392f8a,626b3ab6be0ebced469cce3c,,,,,,,,,,,,,,,,,,,,,,,a,1,0.5683,"[""0.722"",""0.539"",""0.854"",""0.975""]","[0,1,1,1]",0,61,61,61,1,0,1,,,0,FALSE,,,,,,,,,,,,,,,,,,,,,,,,,,,,,,
,6176846e673909995a32dce3,001,2022-04-29_02h10.43.143,classification_task,2021.2.3,Win32,60.0528465,6176846e673909995a32dce3,626b377229c10585ec392f8a,626b3ab6be0ebced469cce3c,,,,,,,,,,,,,,,,,,,,,,,a,1,0.5849,"[""0.812"",""0.342"",""0.896"",""0.941""]","[0,1,1,1]",0,62,62,62,1,0,0,,,0,FALSE,,,,,,,,,,,,,,,,,,,,,,,,,,,,,,
,6176846e673909995a32dce3,001,2022-04-29_02h10.43.143,classification_task,2021.2.3,Win32,60.0528465,6176846e673909995a32dce3,626b377229c10585ec392f8a,626b3ab6be0ebced469cce3c,,,,,,,,,,,,,,,,,,,,,,,a,0,0.5674,"[""0.130"",""0.494"",""0.459"",""0.763""]","[1,0,1,1]",0,63,63,63,1,1,1,,,0,FALSE,,,,,,,,,,,,,,,,,,,,,,,,,,,,,,
,6176846e673909995a32dce3,001,2022-04-29_02h10.43.143,classification_task,2021.2.3,Win32,60.0528465,6176846e673909995a32dce3,626b377229c10585ec392f8a,626b3ab6be0ebced469cce3c,,,,,,,,,,,,,,,,,,,,,,,,,,,,,,,,,,,,,,,0, ,,0,,,0,0,0,0,1,2,1,,,,,,,,,,,,,,,,,
,6176846e673909995a32dce3,001,2022-04-29_02h10.43.143,classification_task,2021.2.3,Win32,60.0528465,6176846e673909995a32dce3,626b377229c10585ec392f8a,626b3ab6be0ebced469cce3c,,,,,,,,,,,,,,,,,,,,,,,,,,,,,,,,,,,,,,,1,  ,,0,,,0,0,0,0,1,2,1,,,,,,,,,,,,,,,,,
,6176846e673909995a32dce3,001,2022-04-29_02h10.43.143,classification_task,2021.2.3,Win32,60.0528465,6176846e673909995a32dce3,626b377229c10585ec392f8a,626b3ab6be0ebced469cce3c,,,,,,,,,,,,,,,,,,,,,,,,,,,,,,,,,,,,,,,2,  ,,0,,,0,0,0,0,1,2,1,,,,,,,,,,,,,,,,,
,6176846e673909995a32dce3,001,2022-04-29_02h10.43.143,classification_task,2021.2.3,Win32,60.0528465,6176846e673909995a32dce3,626b377229c10585ec392f8a,626b3ab6be0ebced469cce3c,,,,,,,,,,,,,,,,,,,,,,,,,,,,,,,,,,,,,,,,,,,,,0,0,0,0,1,,1,,,,,,,,,,,,,,,,,
,6176846e673909995a32dce3,001,2022-04-29_02h10.43.143,classification_task,2021.2.3,Win32,60.0528465,6176846e673909995a32dce3,626b377229c10585ec392f8a,626b3ab6be0ebced469cce3c,,,,,,,,,,,,,,,,,,,,,space,19.8249,a,0,1.2455,"[""0.130"",""0.381"",""0.806"",""0.763""]","[1,1,0,1]",0,0,0,0,1,1,1,,,0,FALSE,,,,,,,,,,,,,,,,,,,,,,,,,,,,,,
,6176846e673909995a32dce3,001,2022-04-29_02h10.43.143,classification_task,2021.2.3,Win32,60.0528465,6176846e673909995a32dce3,626b377229c10585ec392f8a,626b3ab6be0ebced469cce3c,,,,,,,,,,,,,,,,,,,,,,,l,1,0.7054,"[""0.130"",""0.381"",""0.459"",""0.722""]","[1,1,1,0]",0,1,1,1,1,1,1,,,0,FALSE,,,,,,,,,,,,,,,,,,,,,,,,,,,,,,
,6176846e673909995a32dce3,001,2022-04-29_02h10.43.143,classification_task,2021.2.3,Win32,60.0528465,6176846e673909995a32dce3,626b377229c10585ec392f8a,626b3ab6be0ebced469cce3c,,,,,,,,,,,,,,,,,,,,,,,a,1,1.0662,"[""0.274"",""0.342"",""0.715"",""0.941""]","[1,1,0,1]",0,2,2,2,1,0,0,,,0,FALSE,,,,,,,,,,,,,,,,,,,,,,,,,,,,,,
,6176846e673909995a32dce3,001,2022-04-29_02h10.43.143,classification_task,2021.2.3,Win32,60.0528465,6176846e673909995a32dce3,626b377229c10585ec392f8a,626b3ab6be0ebced469cce3c,,,,,,,,,,,,,,,,,,,,,,,l,0,0.9018,"[""0.228"",""0.539"",""0.034"",""0.975""]","[1,1,0,1]",0,3,3,3,1,0,1,,,0,FALSE,,,,,,,,,,,,,,,,,,,,,,,,,,,,,,
,6176846e673909995a32dce3,001,2022-04-29_02h10.43.143,classification_task,2021.2.3,Win32,60.0528465,6176846e673909995a32dce3,626b377229c10585ec392f8a,626b3ab6be0ebced469cce3c,,,,,,,,,,,,,,,,,,,,,,,l,1,0.5993,"[""0.130"",""0.034"",""0.459"",""0.763""]","[1,0,1,1]",0,4,4,4,1,1,1,,,0,FALSE,,,,,,,,,,,,,,,,,,,,,,,,,,,,,,
,6176846e673909995a32dce3,001,2022-04-29_02h10.43.143,classification_task,2021.2.3,Win32,60.0528465,6176846e673909995a32dce3,626b377229c10585ec392f8a,626b3ab6be0ebced469cce3c,,,,,,,,,,,,,,,,,,,,,,,a,1,0.8052,"[""0.727"",""0.342"",""0.896"",""0.941""]","[0,1,1,1]",0,5,5,5,1,0,0,,,0,FALSE,,,,,,,,,,,,,,,,,,,,,,,,,,,,,,
,6176846e673909995a32dce3,001,2022-04-29_02h10.43.143,classification_task,2021.2.3,Win32,60.0528465,6176846e673909995a32dce3,626b377229c10585ec392f8a,626b3ab6be0ebced469cce3c,,,,,,,,,,,,,,,,,,,,,,,a,0,0.6174,"[""0.819"",""0.381"",""0.459"",""0.763""]","[0,1,1,1]",0,6,6,6,1,1,1,,,0,FALSE,,,,,,,,,,,,,,,,,,,,,,,,,,,,,,
,6176846e673909995a32dce3,001,2022-04-29_02h10.43.143,classification_task,2021.2.3,Win32,60.0528465,6176846e673909995a32dce3,626b377229c10585ec392f8a,626b3ab6be0ebced469cce3c,,,,,,,,,,,,,,,,,,,,,,,l,1,0.6038,"[""0.070"",""0.193"",""0.033"",""0.681""]","[1,1,0,1]",0,7,7,7,1,1,0,,,0,FALSE,,,,,,,,,,,,,,,,,,,,,,,,,,,,,,
,6176846e673909995a32dce3,001,2022-04-29_02h10.43.143,classification_task,2021.2.3,Win32,60.0528465,6176846e673909995a32dce3,626b377229c10585ec392f8a,626b3ab6be0ebced469cce3c,,,,,,,,,,,,,,,,,,,,,,,l,1,1.1897,"[""0.576"",""0.193"",""0.640"",""0.681""]","[0,1,1,1]",0,8,8,8,1,1,0,,,0,FALSE,,,,,,,,,,,,,,,,,,,,,,,,,,,,,,
,6176846e673909995a32dce3,001,2022-04-29_02h10.43.143,classification_task,2021.2.3,Win32,60.0528465,6176846e673909995a32dce3,626b377229c10585ec392f8a,626b3ab6be0ebced469cce3c,,,,,,,,,,,,,,,,,,,,,,,a,1,0.5506,"[""0.501"",""0.539"",""0.854"",""0.975""]","[0,1,1,1]",0,9,9,9,1,0,1,,,0,FALSE,,,,,,,,,,,,,,,,,,,,,,,,,,,,,,
,6176846e673909995a32dce3,001,2022-04-29_02h10.43.143,classification_task,2021.2.3,Win32,60.0528465,6176846e673909995a32dce3,626b377229c10585ec392f8a,626b3ab6be0ebced469cce3c,,,,,,,,,,,,,,,,,,,,,,,l,1,0.6321,"[""0.070"",""0.193"",""0.640"",""0.595""]","[1,1,1,0]",0,10,10,10,1,1,0,,,0,FALSE,,,,,,,,,,,,,,,,,,,,,,,,,,,,,,
,6176846e673909995a32dce3,001,2022-04-29_02h10.43.143,classification_task,2021.2.3,Win32,60.0528465,6176846e673909995a32dce3,626b377229c10585ec392f8a,626b3ab6be0ebced469cce3c,,,,,,,,,,,,,,,,,,,,,,,a,1,0.5838,"[""0.228"",""0.573"",""0.854"",""0.975""]","[1,0,1,1]",0,11,11,11,1,0,1,,,0,FALSE,,,,,,,,,,,,,,,,,,,,,,,,,,,,,,
,6176846e673909995a32dce3,001,2022-04-29_02h10.43.143,classification_task,2021.2.3,Win32,60.0528465,6176846e673909995a32dce3,626b377229c10585ec392f8a,626b3ab6be0ebced469cce3c,,,,,,,,,,,,,,,,,,,,,,,a,1,0.6505,"[""0.274"",""0.342"",""0.896"",""0.595""]","[1,1,1,0]",0,12,12,12,1,0,0,,,0,FALSE,,,,,,,,,,,,,,,,,,,,,,,,,,,,,,
,6176846e673909995a32dce3,001,2022-04-29_02h10.43.143,classification_task,2021.2.3,Win32,60.0528465,6176846e673909995a32dce3,626b377229c10585ec392f8a,626b3ab6be0ebced469cce3c,,,,,,,,,,,,,,,,,,,,,,,a,1,0.5351,"[""0.274"",""0.722"",""0.896"",""0.941""]","[1,0,1,1]",0,13,13,13,1,0,0,,,0,FALSE,,,,,,,,,,,,,,,,,,,,,,,,,,,,,,
,6176846e673909995a32dce3,001,2022-04-29_02h10.43.143,classification_task,2021.2.3,Win32,60.0528465,6176846e673909995a32dce3,626b377229c10585ec392f8a,626b3ab6be0ebced469cce3c,,,,,,,,,,,,,,,,,,,,,,,l,1,0.7801,"[""0.070"",""0.595"",""0.640"",""0.681""]","[1,0,1,1]",0,14,14,14,1,1,0,,,0,FALSE,,,,,,,,,,,,,,,,,,,,,,,,,,,,,,
,6176846e673909995a32dce3,001,2022-04-29_02h10.43.143,classification_task,2021.2.3,Win32,60.0528465,6176846e673909995a32dce3,626b377229c10585ec392f8a,626b3ab6be0ebced469cce3c,,,,,,,,,,,,,,,,,,,,,,,a,1,0.5847,"[""0.228"",""0.539"",""0.854"",""0.812""]","[1,1,1,0]",0,15,15,15,1,0,1,,,0,FALSE,,,,,,,,,,,,,,,,,,,,,,,,,,,,,,
,6176846e673909995a32dce3,001,2022-04-29_02h10.43.143,classification_task,2021.2.3,Win32,60.0528465,6176846e673909995a32dce3,626b377229c10585ec392f8a,626b3ab6be0ebced469cce3c,,,,,,,,,,,,,,,,,,,,,,,l,0,0.9392,"[""0.274"",""0.342"",""0.034"",""0.941""]","[1,1,0,1]",0,16,16,16,1,0,0,,,0,FALSE,,,,,,,,,,,,,,,,,,,,,,,,,,,,,,
,6176846e673909995a32dce3,001,2022-04-29_02h10.43.143,classification_task,2021.2.3,Win32,60.0528465,6176846e673909995a32dce3,626b377229c10585ec392f8a,626b3ab6be0ebced469cce3c,,,,,,,,,,,,,,,,,,,,,,,l,1,0.6719,"[""0.130"",""0.381"",""0.459"",""0.806""]","[1,1,1,0]",0,17,17,17,1,1,1,,,0,FALSE,,,,,,,,,,,,,,,,,,,,,,,,,,,,,,
,6176846e673909995a32dce3,001,2022-04-29_02h10.43.143,classification_task,2021.2.3,Win32,60.0528465,6176846e673909995a32dce3,626b377229c10585ec392f8a,626b3ab6be0ebced469cce3c,,,,,,,,,,,,,,,,,,,,,,,l,1,0.7339,"[""0.070"",""0.193"",""0.029"",""0.681""]","[1,1,0,1]",0,18,18,18,1,1,0,,,0,FALSE,,,,,,,,,,,,,,,,,,,,,,,,,,,,,,
,6176846e673909995a32dce3,001,2022-04-29_02h10.43.143,classification_task,2021.2.3,Win32,60.0528465,6176846e673909995a32dce3,626b377229c10585ec392f8a,626b3ab6be0ebced469cce3c,,,,,,,,,,,,,,,,,,,,,,,a,1,0.5672,"[""0.228"",""0.722"",""0.854"",""0.975""]","[1,0,1,1]",0,19,19,19,1,0,1,,,0,FALSE,,,,,,,,,,,,,,,,,,,,,,,,,,,,,,
,6176846e673909995a32dce3,001,2022-04-29_02h10.43.143,classification_task,2021.2.3,Win32,60.0528465,6176846e673909995a32dce3,626b377229c10585ec392f8a,626b3ab6be0ebced469cce3c,,,,,,,,,,,,,,,,,,,,,,,a,0,0.5892,"[""0.595"",""0.381"",""0.459"",""0.763""]","[0,1,1,1]",0,20,20,20,1,1,1,,,0,FALSE,,,,,,,,,,,,,,,,,,,,,,,,,,,,,,
,6176846e673909995a32dce3,001,2022-04-29_02h10.43.143,classification_task,2021.2.3,Win32,60.0528465,6176846e673909995a32dce3,626b377229c10585ec392f8a,626b3ab6be0ebced469cce3c,,,,,,,,,,,,,,,,,,,,,,,l,1,0.6831,"[""0.070"",""0.494"",""0.640"",""0.681""]","[1,0,1,1]",0,21,21,21,1,1,0,,,0,FALSE,,,,,,,,,,,,,,,,,,,,,,,,,,,,,,
,6176846e673909995a32dce3,001,2022-04-29_02h10.43.143,classification_task,2021.2.3,Win32,60.0528465,6176846e673909995a32dce3,626b377229c10585ec392f8a,626b3ab6be0ebced469cce3c,,,,,,,,,,,,,,,,,,,,,,,a,1,0.7012,"[""0.228"",""0.539"",""0.494"",""0.975""]","[1,1,0,1]",0,22,22,22,1,0,1,,,0,FALSE,,,,,,,,,,,,,,,,,,,,,,,,,,,,,,
,6176846e673909995a32dce3,001,2022-04-29_02h10.43.143,classification_task,2021.2.3,Win32,60.0528465,6176846e673909995a32dce3,626b377229c10585ec392f8a,626b3ab6be0ebced469cce3c,,,,,,,,,,,,,,,,,,,,,,,l,1,0.6122,"[""0.070"",""0.193"",""0.640"",""0.034""]","[1,1,1,0]",0,23,23,23,1,1,0,,,0,FALSE,,,,,,,,,,,,,,,,,,,,,,,,,,,,,,
,6176846e673909995a32dce3,001,2022-04-29_02h10.43.143,classification_task,2021.2.3,Win32,60.0528465,6176846e673909995a32dce3,626b377229c10585ec392f8a,626b3ab6be0ebced469cce3c,,,,,,,,,,,,,,,,,,,,,,,a,1,0.6345,"[""0.595"",""0.539"",""0.854"",""0.975""]","[0,1,1,1]",0,24,24,24,1,0,1,,,0,FALSE,,,,,,,,,,,,,,,,,,,,,,,,,,,,,,
,6176846e673909995a32dce3,001,2022-04-29_02h10.43.143,classification_task,2021.2.3,Win32,60.0528465,6176846e673909995a32dce3,626b377229c10585ec392f8a,626b3ab6be0ebced469cce3c,,,,,,,,,,,,,,,,,,,,,,,a,1,0.637,"[""0.274"",""0.342"",""0.896"",""0.501""]","[1,1,1,0]",0,25,25,25,1,0,0,,,0,FALSE,,,,,,,,,,,,,,,,,,,,,,,,,,,,,,
,6176846e673909995a32dce3,001,2022-04-29_02h10.43.143,classification_task,2021.2.3,Win32,60.0528465,6176846e673909995a32dce3,626b377229c10585ec392f8a,626b3ab6be0ebced469cce3c,,,,,,,,,,,,,,,,,,,,,,,l,1,0.5828,"[""0.130"",""0.381"",""0.595"",""0.763""]","[1,1,0,1]",0,26,26,26,1,1,1,,,0,FALSE,,,,,,,,,,,,,,,,,,,,,,,,,,,,,,
,6176846e673909995a32dce3,001,2022-04-29_02h10.43.143,classification_task,2021.2.3,Win32,60.0528465,6176846e673909995a32dce3,626b377229c10585ec392f8a,626b3ab6be0ebced469cce3c,,,,,,,,,,,,,,,,,,,,,,,a,0,0.7684,"[""0.727"",""0.193"",""0.640"",""0.681""]","[0,1,1,1]",0,27,27,27,1,1,0,,,0,FALSE,,,,,,,,,,,,,,,,,,,,,,,,,,,,,,
,6176846e673909995a32dce3,001,2022-04-29_02h10.43.143,classification_task,2021.2.3,Win32,60.0528465,6176846e673909995a32dce3,626b377229c10585ec392f8a,626b3ab6be0ebced469cce3c,,,,,,,,,,,,,,,,,,,,,,,a,1,0.7986,"[""0.806"",""0.342"",""0.896"",""0.941""]","[0,1,1,1]",0,28,28,28,1,0,0,,,0,FALSE,,,,,,,,,,,,,,,,,,,,,,,,,,,,,,
,6176846e673909995a32dce3,001,2022-04-29_02h10.43.143,classification_task,2021.2.3,Win32,60.0528465,6176846e673909995a32dce3,626b377229c10585ec392f8a,626b3ab6be0ebced469cce3c,,,,,,,,,,,,,,,,,,,,,,,a,1,0.7159,"[""0.228"",""0.539"",""0.854"",""0.806""]","[1,1,1,0]",0,29,29,29,1,0,1,,,0,FALSE,,,,,,,,,,,,,,,,,,,,,,,,,,,,,,
,6176846e673909995a32dce3,001,2022-04-29_02h10.43.143,classification_task,2021.2.3,Win32,60.0528465,6176846e673909995a32dce3,626b377229c10585ec392f8a,626b3ab6be0ebced469cce3c,,,,,,,,,,,,,,,,,,,,,,,l,1,0.8512,"[""0.130"",""0.029"",""0.459"",""0.763""]","[1,0,1,1]",0,30,30,30,1,1,1,,,0,FALSE,,,,,,,,,,,,,,,,,,,,,,,,,,,,,,
,6176846e673909995a32dce3,001,2022-04-29_02h10.43.143,classification_task,2021.2.3,Win32,60.0528465,6176846e673909995a32dce3,626b377229c10585ec392f8a,626b3ab6be0ebced469cce3c,,,,,,,,,,,,,,,,,,,,,,,l,0,1.3007,"[""0.274"",""0.029"",""0.896"",""0.941""]","[1,0,1,1]",0,31,31,31,1,0,0,,,0,FALSE,,,,,,,,,,,,,,,,,,,,,,,,,,,,,,
,6176846e673909995a32dce3,001,2022-04-29_02h10.43.143,classification_task,2021.2.3,Win32,60.0528465,6176846e673909995a32dce3,626b377229c10585ec392f8a,626b3ab6be0ebced469cce3c,,,,,,,,,,,,,,,,,,,,,,,a,1,0.7303,"[""0.274"",""0.342"",""0.806"",""0.941""]","[1,1,0,1]",0,32,32,32,1,0,0,,,0,FALSE,,,,,,,,,,,,,,,,,,,,,,,,,,,,,,
,6176846e673909995a32dce3,001,2022-04-29_02h10.43.143,classification_task,2021.2.3,Win32,60.0528465,6176846e673909995a32dce3,626b377229c10585ec392f8a,626b3ab6be0ebced469cce3c,,,,,,,,,,,,,,,,,,,,,,,l,1,0.7725,"[""0.130"",""0.422"",""0.459"",""0.763""]","[1,0,1,1]",0,33,33,33,1,1,1,,,0,FALSE,,,,,,,,,,,,,,,,,,,,,,,,,,,,,,
,6176846e673909995a32dce3,001,2022-04-29_02h10.43.143,classification_task,2021.2.3,Win32,60.0528465,6176846e673909995a32dce3,626b377229c10585ec392f8a,626b3ab6be0ebced469cce3c,,,,,,,,,,,,,,,,,,,,,,,a,1,2.2418,"[""0.228"",""0.029"",""0.854"",""0.975""]","[1,0,1,1]",0,34,34,34,1,0,1,,,0,FALSE,,,,,,,,,,,,,,,,,,,,,,,,,,,,,,
,6176846e673909995a32dce3,001,2022-04-29_02h10.43.143,classification_task,2021.2.3,Win32,60.0528465,6176846e673909995a32dce3,626b377229c10585ec392f8a,626b3ab6be0ebced469cce3c,,,,,,,,,,,,,,,,,,,,,,,a,1,0.7509,"[""0.576"",""0.342"",""0.896"",""0.941""]","[0,1,1,1]",0,35,35,35,1,0,0,,,0,FALSE,,,,,,,,,,,,,,,,,,,,,,,,,,,,,,
,6176846e673909995a32dce3,001,2022-04-29_02h10.43.143,classification_task,2021.2.3,Win32,60.0528465,6176846e673909995a32dce3,626b377229c10585ec392f8a,626b3ab6be0ebced469cce3c,,,,,,,,,,,,,,,,,,,,,,,l,1,0.7842,"[""0.070"",""0.819"",""0.640"",""0.681""]","[1,0,1,1]",0,36,36,36,1,1,0,,,0,FALSE,,,,,,,,,,,,,,,,,,,,,,,,,,,,,,
,6176846e673909995a32dce3,001,2022-04-29_02h10.43.143,classification_task,2021.2.3,Win32,60.0528465,6176846e673909995a32dce3,626b377229c10585ec392f8a,626b3ab6be0ebced469cce3c,,,,,,,,,,,,,,,,,,,,,,,l,1,0.6353,"[""0.070"",""0.193"",""0.715"",""0.681""]","[1,1,0,1]",0,37,37,37,1,1,0,,,0,FALSE,,,,,,,,,,,,,,,,,,,,,,,,,,,,,,
,6176846e673909995a32dce3,001,2022-04-29_02h10.43.143,classification_task,2021.2.3,Win32,60.0528465,6176846e673909995a32dce3,626b377229c10585ec392f8a,626b3ab6be0ebced469cce3c,,,,,,,,,,,,,,,,,,,,,,,a,1,0.6169,"[""0.806"",""0.539"",""0.854"",""0.975""]","[0,1,1,1]",0,38,38,38,1,0,1,,,0,FALSE,,,,,,,,,,,,,,,,,,,,,,,,,,,,,,
,6176846e673909995a32dce3,001,2022-04-29_02h10.43.143,classification_task,2021.2.3,Win32,60.0528465,6176846e673909995a32dce3,626b377229c10585ec392f8a,626b3ab6be0ebced469cce3c,,,,,,,,,,,,,,,,,,,,,,,l,1,0.5549,"[""0.130"",""0.381"",""0.459"",""0.034""]","[1,1,1,0]",0,39,39,39,1,1,1,,,0,FALSE,,,,,,,,,,,,,,,,,,,,,,,,,,,,,,
,6176846e673909995a32dce3,001,2022-04-29_02h10.43.143,classification_task,2021.2.3,Win32,60.0528465,6176846e673909995a32dce3,626b377229c10585ec392f8a,626b3ab6be0ebced469cce3c,,,,,,,,,,,,,,,,,,,,,,,a,1,0.5321,"[""0.274"",""0.342"",""0.896"",""0.819""]","[1,1,1,0]",0,40,40,40,1,0,0,,,0,FALSE,,,,,,,,,,,,,,,,,,,,,,,,,,,,,,
,6176846e673909995a32dce3,001,2022-04-29_02h10.43.143,classification_task,2021.2.3,Win32,60.0528465,6176846e673909995a32dce3,626b377229c10585ec392f8a,626b3ab6be0ebced469cce3c,,,,,,,,,,,,,,,,,,,,,,,a,1,0.6502,"[""0.228"",""0.539"",""0.854"",""0.494""]","[1,1,1,0]",0,41,41,41,1,0,1,,,0,FALSE,,,,,,,,,,,,,,,,,,,,,,,,,,,,,,
,6176846e673909995a32dce3,001,2022-04-29_02h10.43.143,classification_task,2021.2.3,Win32,60.0528465,6176846e673909995a32dce3,626b377229c10585ec392f8a,626b3ab6be0ebced469cce3c,,,,,,,,,,,,,,,,,,,,,,,l,1,0.5984,"[""0.033"",""0.381"",""0.459"",""0.763""]","[0,1,1,1]",0,42,42,42,1,1,1,,,0,FALSE,,,,,,,,,,,,,,,,,,,,,,,,,,,,,,
,6176846e673909995a32dce3,001,2022-04-29_02h10.43.143,classification_task,2021.2.3,Win32,60.0528465,6176846e673909995a32dce3,626b377229c10585ec392f8a,626b3ab6be0ebced469cce3c,,,,,,,,,,,,,,,,,,,,,,,a,1,0.5723,"[""0.228"",""0.539"",""0.819"",""0.975""]","[1,1,0,1]",0,43,43,43,1,0,1,,,0,FALSE,,,,,,,,,,,,,,,,,,,,,,,,,,,,,,
,6176846e673909995a32dce3,001,2022-04-29_02h10.43.143,classification_task,2021.2.3,Win32,60.0528465,6176846e673909995a32dce3,626b377229c10585ec392f8a,626b3ab6be0ebced469cce3c,,,,,,,,,,,,,,,,,,,,,,,a,0,0.7839,"[""0.812"",""0.193"",""0.640"",""0.681""]","[0,1,1,1]",0,44,44,44,1,1,0,,,0,FALSE,,,,,,,,,,,,,,,,,,,,,,,,,,,,,,
,6176846e673909995a32dce3,001,2022-04-29_02h10.43.143,classification_task,2021.2.3,Win32,60.0528465,6176846e673909995a32dce3,626b377229c10585ec392f8a,626b3ab6be0ebced469cce3c,,,,,,,,,,,,,,,,,,,,,,,l,1,0.5558,"[""0.130"",""0.381"",""0.806"",""0.763""]","[1,1,0,1]",0,45,45,45,1,1,1,,,0,FALSE,,,,,,,,,,,,,,,,,,,,,,,,,,,,,,
,6176846e673909995a32dce3,001,2022-04-29_02h10.43.143,classification_task,2021.2.3,Win32,60.0528465,6176846e673909995a32dce3,626b377229c10585ec392f8a,626b3ab6be0ebced469cce3c,,,,,,,,,,,,,,,,,,,,,,,l,1,0.7218,"[""0.070"",""0.193"",""0.640"",""0.717""]","[1,1,1,0]",0,46,46,46,1,1,0,,,0,FALSE,,,,,,,,,,,,,,,,,,,,,,,,,,,,,,
,6176846e673909995a32dce3,001,2022-04-29_02h10.43.143,classification_task,2021.2.3,Win32,60.0528465,6176846e673909995a32dce3,626b377229c10585ec392f8a,626b3ab6be0ebced469cce3c,,,,,,,,,,,,,,,,,,,,,,,a,1,0.5833,"[""0.274"",""0.722"",""0.896"",""0.941""]","[1,0,1,1]",0,47,47,47,1,0,0,,,0,FALSE,,,,,,,,,,,,,,,,,,,,,,,,,,,,,,
,6176846e673909995a32dce3,001,2022-04-29_02h10.43.143,classification_task,2021.2.3,Win32,60.0528465,6176846e673909995a32dce3,626b377229c10585ec392f8a,626b3ab6be0ebced469cce3c,,,,,,,,,,,,,,,,,,,,,,,a,1,0.5844,"[""0.274"",""0.342"",""0.722"",""0.941""]","[1,1,0,1]",0,48,48,48,1,0,0,,,0,FALSE,,,,,,,,,,,,,,,,,,,,,,,,,,,,,,
,6176846e673909995a32dce3,001,2022-04-29_02h10.43.143,classification_task,2021.2.3,Win32,60.0528465,6176846e673909995a32dce3,626b377229c10585ec392f8a,626b3ab6be0ebced469cce3c,,,,,,,,,,,,,,,,,,,,,,,l,0,0.5836,"[""0.228"",""0.539"",""0.854"",""0.033""]","[1,1,1,0]",0,49,49,49,1,0,1,,,0,FALSE,,,,,,,,,,,,,,,,,,,,,,,,,,,,,,
,6176846e673909995a32dce3,001,2022-04-29_02h10.43.143,classification_task,2021.2.3,Win32,60.0528465,6176846e673909995a32dce3,626b377229c10585ec392f8a,626b3ab6be0ebced469cce3c,,,,,,,,,,,,,,,,,,,,,,,l,1,0.5991,"[""0.070"",""0.029"",""0.640"",""0.681""]","[1,0,1,1]",0,50,50,50,1,1,0,,,0,FALSE,,,,,,,,,,,,,,,,,,,,,,,,,,,,,,
,6176846e673909995a32dce3,001,2022-04-29_02h10.43.143,classification_task,2021.2.3,Win32,60.0528465,6176846e673909995a32dce3,626b377229c10585ec392f8a,626b3ab6be0ebced469cce3c,,,,,,,,,,,,,,,,,,,,,,,a,1,0.5334,"[""0.228"",""0.812"",""0.854"",""0.975""]","[1,0,1,1]",0,51,51,51,1,0,1,,,0,FALSE,,,,,,,,,,,,,,,,,,,,,,,,,,,,,,
,6176846e673909995a32dce3,001,2022-04-29_02h10.43.143,classification_task,2021.2.3,Win32,60.0528465,6176846e673909995a32dce3,626b377229c10585ec392f8a,626b3ab6be0ebced469cce3c,,,,,,,,,,,,,,,,,,,,,,,a,1,0.5502,"[""0.274"",""0.595"",""0.896"",""0.941""]","[1,0,1,1]",0,52,52,52,1,0,0,,,0,FALSE,,,,,,,,,,,,,,,,,,,,,,,,,,,,,,
,6176846e673909995a32dce3,001,2022-04-29_02h10.43.143,classification_task,2021.2.3,Win32,60.0528465,6176846e673909995a32dce3,626b377229c10585ec392f8a,626b3ab6be0ebced469cce3c,,,,,,,,,,,,,,,,,,,,,,,a,0,0.496,"[""0.715"",""0.381"",""0.459"",""0.763""]","[0,1,1,1]",0,53,53,53,1,1,1,,,0,FALSE,,,,,,,,,,,,,,,,,,,,,,,,,,,,,,
,6176846e673909995a32dce3,001,2022-04-29_02h10.43.143,classification_task,2021.2.3,Win32,60.0528465,6176846e673909995a32dce3,626b377229c10585ec392f8a,626b3ab6be0ebced469cce3c,,,,,,,,,,,,,,,,,,,,,,,l,0,0.7151,"[""0.228"",""0.539"",""0.029"",""0.975""]","[1,1,0,1]",0,54,54,54,1,0,1,,,0,FALSE,,,,,,,,,,,,,,,,,,,,,,,,,,,,,,
,6176846e673909995a32dce3,001,2022-04-29_02h10.43.143,classification_task,2021.2.3,Win32,60.0528465,6176846e673909995a32dce3,626b377229c10585ec392f8a,626b3ab6be0ebced469cce3c,,,,,,,,,,,,,,,,,,,,,,,l,1,0.6306,"[""0.130"",""0.381"",""0.459"",""0.501""]","[1,1,1,0]",0,55,55,55,1,1,1,,,0,FALSE,,,,,,,,,,,,,,,,,,,,,,,,,,,,,,
,6176846e673909995a32dce3,001,2022-04-29_02h10.43.143,classification_task,2021.2.3,Win32,60.0528465,6176846e673909995a32dce3,626b377229c10585ec392f8a,626b3ab6be0ebced469cce3c,,,,,,,,,,,,,,,,,,,,,,,a,1,0.6663,"[""0.274"",""0.342"",""0.896"",""0.806""]","[1,1,1,0]",0,56,56,56,1,0,0,,,0,FALSE,,,,,,,,,,,,,,,,,,,,,,,,,,,,,,
,6176846e673909995a32dce3,001,2022-04-29_02h10.43.143,classification_task,2021.2.3,Win32,60.0528465,6176846e673909995a32dce3,626b377229c10585ec392f8a,626b3ab6be0ebced469cce3c,,,,,,,,,,,,,,,,,,,,,,,l,1,0.6185,"[""0.130"",""0.381"",""0.727"",""0.763""]","[1,1,0,1]",0,57,57,57,1,1,1,,,0,FALSE,,,,,,,,,,,,,,,,,,,,,,,,,,,,,,
,6176846e673909995a32dce3,001,2022-04-29_02h10.43.143,classification_task,2021.2.3,Win32,60.0528465,6176846e673909995a32dce3,626b377229c10585ec392f8a,626b3ab6be0ebced469cce3c,,,,,,,,,,,,,,,,,,,,,,,a,1,0.5689,"[""0.812"",""0.539"",""0.854"",""0.975""]","[0,1,1,1]",0,58,58,58,1,0,1,,,0,FALSE,,,,,,,,,,,,,,,,,,,,,,,,,,,,,,
,6176846e673909995a32dce3,001,2022-04-29_02h10.43.143,classification_task,2021.2.3,Win32,60.0528465,6176846e673909995a32dce3,626b377229c10585ec392f8a,626b3ab6be0ebced469cce3c,,,,,,,,,,,,,,,,,,,,,,,l,1,0.6129,"[""0.070"",""0.193"",""0.640"",""0.595""]","[1,1,1,0]",0,59,59,59,1,1,0,,,0,FALSE,,,,,,,,,,,,,,,,,,,,,,,,,,,,,,
,6176846e673909995a32dce3,001,2022-04-29_02h10.43.143,classification_task,2021.2.3,Win32,60.0528465,6176846e673909995a32dce3,626b377229c10585ec392f8a,626b3ab6be0ebced469cce3c,,,,,,,,,,,,,,,,,,,,,,,l,1,0.85,"[""0.130"",""0.573"",""0.459"",""0.763""]","[1,0,1,1]",0,60,60,60,1,1,1,,,0,FALSE,,,,,,,,,,,,,,,,,,,,,,,,,,,,,,
,6176846e673909995a32dce3,001,2022-04-29_02h10.43.143,classification_task,2021.2.3,Win32,60.0528465,6176846e673909995a32dce3,626b377229c10585ec392f8a,626b3ab6be0ebced469cce3c,,,,,,,,,,,,,,,,,,,,,,,a,1,1.3328,"[""0.034"",""0.342"",""0.896"",""0.941""]","[0,1,1,1]",0,61,61,61,1,0,0,,,0,FALSE,,,,,,,,,,,,,,,,,,,,,,,,,,,,,,
,6176846e673909995a32dce3,001,2022-04-29_02h10.43.143,classification_task,2021.2.3,Win32,60.0528465,6176846e673909995a32dce3,626b377229c10585ec392f8a,626b3ab6be0ebced469cce3c,,,,,,,,,,,,,,,,,,,,,,,a,0,0.7006,"[""0.806"",""0.193"",""0.640"",""0.681""]","[0,1,1,1]",0,62,62,62,1,1,0,,,0,FALSE,,,,,,,,,,,,,,,,,,,,,,,,,,,,,,
,6176846e673909995a32dce3,001,2022-04-29_02h10.43.143,classification_task,2021.2.3,Win32,60.0528465,6176846e673909995a32dce3,626b377229c10585ec392f8a,626b3ab6be0ebced469cce3c,,,,,,,,,,,,,,,,,,,,,,,l,1,0.7511,"[""0.070"",""0.193"",""0.806"",""0.681""]","[1,1,0,1]",0,63,63,63,1,1,0,,,0,FALSE,,,,,,,,,,,,,,,,,,,,,,,,,,,,,,
,6176846e673909995a32dce3,001,2022-04-29_02h10.43.143,classification_task,2021.2.3,Win32,60.0528465,6176846e673909995a32dce3,626b377229c10585ec392f8a,626b3ab6be0ebced469cce3c,,,,,,,,,,,,,,,,,,,,,,,,,,,,,,,,,,,,,,,0, ,,0,,,0,1,1,1,1,2,2,,,,,,,,,,,,,,,,,
,6176846e673909995a32dce3,001,2022-04-29_02h10.43.143,classification_task,2021.2.3,Win32,60.0528465,6176846e673909995a32dce3,626b377229c10585ec392f8a,626b3ab6be0ebced469cce3c,,,,,,,,,,,,,,,,,,,,,,,,,,,,,,,,,,,,,,,1,  ,,0,,,0,1,1,1,1,2,2,,,,,,,,,,,,,,,,,
,6176846e673909995a32dce3,001,2022-04-29_02h10.43.143,classification_task,2021.2.3,Win32,60.0528465,6176846e673909995a32dce3,626b377229c10585ec392f8a,626b3ab6be0ebced469cce3c,,,,,,,,,,,,,,,,,,,,,,,,,,,,,,,,,,,,,,,2,  ,,0,,,0,1,1,1,1,2,2,,,,,,,,,,,,,,,,,
,6176846e673909995a32dce3,001,2022-04-29_02h10.43.143,classification_task,2021.2.3,Win32,60.0528465,6176846e673909995a32dce3,626b377229c10585ec392f8a,626b3ab6be0ebced469cce3c,,,,,,,,,,,,,,,,,,,,,,,,,,,,,,,,,,,,,,,,,,,,,0,1,1,1,1,,2,,,,,,,,,,,,,,,,,
,6176846e673909995a32dce3,001,2022-04-29_02h10.43.143,classification_task,2021.2.3,Win32,60.0528465,6176846e673909995a32dce3,626b377229c10585ec392f8a,626b3ab6be0ebced469cce3c,,,,,,,,,,,,,,,,,,,,,space,7.9485,a,1,1.0385,"[""0.033"",""0.342"",""0.896"",""0.941""]","[0,1,1,1]",0,0,0,0,1,0,0,,,0,FALSE,,,,,,,,,,,,,,,,,,,,,,,,,,,,,,
,6176846e673909995a32dce3,001,2022-04-29_02h10.43.143,classification_task,2021.2.3,Win32,60.0528465,6176846e673909995a32dce3,626b377229c10585ec392f8a,626b3ab6be0ebced469cce3c,,,,,,,,,,,,,,,,,,,,,,,l,1,1.3353,"[""0.595"",""0.193"",""0.640"",""0.681""]","[0,1,1,1]",0,1,1,1,1,1,0,,,0,FALSE,,,,,,,,,,,,,,,,,,,,,,,,,,,,,,
,6176846e673909995a32dce3,001,2022-04-29_02h10.43.143,classification_task,2021.2.3,Win32,60.0528465,6176846e673909995a32dce3,626b377229c10585ec392f8a,626b3ab6be0ebced469cce3c,,,,,,,,,,,,,,,,,,,,,,,l,1,0.9897,"[""0.130"",""0.381"",""0.501"",""0.763""]","[1,1,0,1]",0,2,2,2,1,1,1,,,0,FALSE,,,,,,,,,,,,,,,,,,,,,,,,,,,,,,
,6176846e673909995a32dce3,001,2022-04-29_02h10.43.143,classification_task,2021.2.3,Win32,60.0528465,6176846e673909995a32dce3,626b377229c10585ec392f8a,626b3ab6be0ebced469cce3c,,,,,,,,,,,,,,,,,,,,,,,a,1,0.7668,"[""0.274"",""0.342"",""0.896"",""0.501""]","[1,1,1,0]",0,3,3,3,1,0,0,,,0,FALSE,,,,,,,,,,,,,,,,,,,,,,,,,,,,,,
,6176846e673909995a32dce3,001,2022-04-29_02h10.43.143,classification_task,2021.2.3,Win32,60.0528465,6176846e673909995a32dce3,626b377229c10585ec392f8a,626b3ab6be0ebced469cce3c,,,,,,,,,,,,,,,,,,,,,,,a,1,0.8046,"[""0.274"",""0.342"",""0.494"",""0.941""]","[1,1,0,1]",0,4,4,4,1,0,0,,,0,FALSE,,,,,,,,,,,,,,,,,,,,,,,,,,,,,,
,6176846e673909995a32dce3,001,2022-04-29_02h10.43.143,classification_task,2021.2.3,Win32,60.0528465,6176846e673909995a32dce3,626b377229c10585ec392f8a,626b3ab6be0ebced469cce3c,,,,,,,,,,,,,,,,,,,,,,,a,1,0.7681,"[""0.228"",""0.715"",""0.854"",""0.975""]","[1,0,1,1]",0,5,5,5,1,0,1,,,0,FALSE,,,,,,,,,,,,,,,,,,,,,,,,,,,,,,
,6176846e673909995a32dce3,001,2022-04-29_02h10.43.143,classification_task,2021.2.3,Win32,60.0528465,6176846e673909995a32dce3,626b377229c10585ec392f8a,626b3ab6be0ebced469cce3c,,,,,,,,,,,,,,,,,,,,,,,a,1,0.8045,"[""0.228"",""0.539"",""0.722"",""0.975""]","[1,1,0,1]",0,6,6,6,1,0,1,,,0,FALSE,,,,,,,,,,,,,,,,,,,,,,,,,,,,,,
,6176846e673909995a32dce3,001,2022-04-29_02h10.43.143,classification_task,2021.2.3,Win32,60.0528465,6176846e673909995a32dce3,626b377229c10585ec392f8a,626b3ab6be0ebced469cce3c,,,,,,,,,,,,,,,,,,,,,,,a,0,0.7834,"[""0.501"",""0.381"",""0.459"",""0.763""]","[0,1,1,1]",0,7,7,7,1,1,1,,,0,FALSE,,,,,,,,,,,,,,,,,,,,,,,,,,,,,,
,6176846e673909995a32dce3,001,2022-04-29_02h10.43.143,classification_task,2021.2.3,Win32,60.0528465,6176846e673909995a32dce3,626b377229c10585ec392f8a,626b3ab6be0ebced469cce3c,,,,,,,,,,,,,,,,,,,,,,,l,1,0.8346,"[""0.070"",""0.573"",""0.640"",""0.681""]","[1,0,1,1]",0,8,8,8,1,1,0,,,0,FALSE,,,,,,,,,,,,,,,,,,,,,,,,,,,,,,
,6176846e673909995a32dce3,001,2022-04-29_02h10.43.143,classification_task,2021.2.3,Win32,60.0528465,6176846e673909995a32dce3,626b377229c10585ec392f8a,626b3ab6be0ebced469cce3c,,,,,,,,,,,,,,,,,,,,,,,a,1,1.2867,"[""0.033"",""0.539"",""0.854"",""0.975""]","[0,1,1,1]",0,9,9,9,1,0,1,,,0,FALSE,,,,,,,,,,,,,,,,,,,,,,,,,,,,,,
,6176846e673909995a32dce3,001,2022-04-29_02h10.43.143,classification_task,2021.2.3,Win32,60.0528465,6176846e673909995a32dce3,626b377229c10585ec392f8a,626b3ab6be0ebced469cce3c,,,,,,,,,,,,,,,,,,,,,,,l,1,0.8372,"[""0.130"",""0.381"",""0.459"",""0.501""]","[1,1,1,0]",0,10,10,10,1,1,1,,,0,FALSE,,,,,,,,,,,,,,,,,,,,,,,,,,,,,,
,6176846e673909995a32dce3,001,2022-04-29_02h10.43.143,classification_task,2021.2.3,Win32,60.0528465,6176846e673909995a32dce3,626b377229c10585ec392f8a,626b3ab6be0ebced469cce3c,,,,,,,,,,,,,,,,,,,,,,,l,1,1.3147,"[""0.130"",""0.576"",""0.459"",""0.763""]","[1,0,1,1]",0,11,11,11,1,1,1,,,0,FALSE,,,,,,,,,,,,,,,,,,,,,,,,,,,,,,
,6176846e673909995a32dce3,001,2022-04-29_02h10.43.143,classification_task,2021.2.3,Win32,60.0528465,6176846e673909995a32dce3,626b377229c10585ec392f8a,626b3ab6be0ebced469cce3c,,,,,,,,,,,,,,,,,,,,,,,l,1,0.7338,"[""0.070"",""0.193"",""0.033"",""0.681""]","[1,1,0,1]",0,12,12,12,1,1,0,,,0,FALSE,,,,,,,,,,,,,,,,,,,,,,,,,,,,,,
,6176846e673909995a32dce3,001,2022-04-29_02h10.43.143,classification_task,2021.2.3,Win32,60.0528465,6176846e673909995a32dce3,626b377229c10585ec392f8a,626b3ab6be0ebced469cce3c,,,,,,,,,,,,,,,,,,,,,,,l,1,1.1057,"[""0.070"",""0.193"",""0.640"",""0.806""]","[1,1,1,0]",0,13,13,13,1,1,0,,,0,FALSE,,,,,,,,,,,,,,,,,,,,,,,,,,,,,,
,6176846e673909995a32dce3,001,2022-04-29_02h10.43.143,classification_task,2021.2.3,Win32,60.0528465,6176846e673909995a32dce3,626b377229c10585ec392f8a,626b3ab6be0ebced469cce3c,,,,,,,,,,,,,,,,,,,,,,,a,1,0.8011,"[""0.274"",""0.722"",""0.896"",""0.941""]","[1,0,1,1]",0,14,14,14,1,0,0,,,0,FALSE,,,,,,,,,,,,,,,,,,,,,,,,,,,,,,
,6176846e673909995a32dce3,001,2022-04-29_02h10.43.143,classification_task,2021.2.3,Win32,60.0528465,6176846e673909995a32dce3,626b377229c10585ec392f8a,626b3ab6be0ebced469cce3c,,,,,,,,,,,,,,,,,,,,,,,a,1,0.7534,"[""0.228"",""0.539"",""0.854"",""0.812""]","[1,1,1,0]",0,15,15,15,1,0,1,,,0,FALSE,,,,,,,,,,,,,,,,,,,,,,,,,,,,,,
,6176846e673909995a32dce3,001,2022-04-29_02h10.43.143,classification_task,2021.2.3,Win32,60.0528465,6176846e673909995a32dce3,626b377229c10585ec392f8a,626b3ab6be0ebced469cce3c,,,,,,,,,,,,,,,,,,,,,,,a,1,0.7706,"[""0.274"",""0.722"",""0.896"",""0.941""]","[1,0,1,1]",0,16,16,16,1,0,0,,,0,FALSE,,,,,,,,,,,,,,,,,,,,,,,,,,,,,,
,6176846e673909995a32dce3,001,2022-04-29_02h10.43.143,classification_task,2021.2.3,Win32,60.0528465,6176846e673909995a32dce3,626b377229c10585ec392f8a,626b3ab6be0ebced469cce3c,,,,,,,,,,,,,,,,,,,,,,,a,1,0.6005,"[""0.274"",""0.342"",""0.896"",""0.727""]","[1,1,1,0]",0,17,17,17,1,0,0,,,0,FALSE,,,,,,,,,,,,,,,,,,,,,,,,,,,,,,
,6176846e673909995a32dce3,001,2022-04-29_02h10.43.143,classification_task,2021.2.3,Win32,60.0528465,6176846e673909995a32dce3,626b377229c10585ec392f8a,626b3ab6be0ebced469cce3c,,,,,,,,,,,,,,,,,,,,,,,a,0,1.6204,"[""0.130"",""0.381"",""0.722"",""0.763""]","[1,1,0,1]",0,18,18,18,1,1,1,,,0,FALSE,,,,,,,,,,,,,,,,,,,,,,,,,,,,,,
,6176846e673909995a32dce3,001,2022-04-29_02h10.43.143,classification_task,2021.2.3,Win32,60.0528465,6176846e673909995a32dce3,626b377229c10585ec392f8a,626b3ab6be0ebced469cce3c,,,,,,,,,,,,,,,,,,,,,,,a,1,0.7794,"[""0.228"",""0.595"",""0.854"",""0.975""]","[1,0,1,1]",0,19,19,19,1,0,1,,,0,FALSE,,,,,,,,,,,,,,,,,,,,,,,,,,,,,,
,6176846e673909995a32dce3,001,2022-04-29_02h10.43.143,classification_task,2021.2.3,Win32,60.0528465,6176846e673909995a32dce3,626b377229c10585ec392f8a,626b3ab6be0ebced469cce3c,,,,,,,,,,,,,,,,,,,,,,,l,0,1.7009,"[""0.274"",""0.342"",""0.029"",""0.941""]","[1,1,0,1]",0,20,20,20,1,0,0,,,0,FALSE,,,,,,,,,,,,,,,,,,,,,,,,,,,,,,
,6176846e673909995a32dce3,001,2022-04-29_02h10.43.143,classification_task,2021.2.3,Win32,60.0528465,6176846e673909995a32dce3,626b377229c10585ec392f8a,626b3ab6be0ebced469cce3c,,,,,,,,,,,,,,,,,,,,,,,l,1,1.4883,"[""0.070"",""0.193"",""0.722"",""0.681""]","[1,1,0,1]",0,21,21,21,1,1,0,,,0,FALSE,,,,,,,,,,,,,,,,,,,,,,,,,,,,,,
,6176846e673909995a32dce3,001,2022-04-29_02h10.43.143,classification_task,2021.2.3,Win32,60.0528465,6176846e673909995a32dce3,626b377229c10585ec392f8a,626b3ab6be0ebced469cce3c,,,,,,,,,,,,,,,,,,,,,,,l,1,0.8503,"[""0.070"",""0.193"",""0.640"",""0.595""]","[1,1,1,0]",0,22,22,22,1,1,0,,,0,FALSE,,,,,,,,,,,,,,,,,,,,,,,,,,,,,,
,6176846e673909995a32dce3,001,2022-04-29_02h10.43.143,classification_task,2021.2.3,Win32,60.0528465,6176846e673909995a32dce3,626b377229c10585ec392f8a,626b3ab6be0ebced469cce3c,,,,,,,,,,,,,,,,,,,,,,,a,1,0.9389,"[""0.228"",""0.539"",""0.819"",""0.975""]","[1,1,0,1]",0,23,23,23,1,0,1,,,0,FALSE,,,,,,,,,,,,,,,,,,,,,,,,,,,,,,
,6176846e673909995a32dce3,001,2022-04-29_02h10.43.143,classification_task,2021.2.3,Win32,60.0528465,6176846e673909995a32dce3,626b377229c10585ec392f8a,626b3ab6be0ebced469cce3c,,,,,,,,,,,,,,,,,,,,,,,a,1,1.5875,"[""0.228"",""0.539"",""0.854"",""0.722""]","[1,1,1,0]",0,24,24,24,1,0,1,,,0,FALSE,,,,,,,,,,,,,,,,,,,,,,,,,,,,,,
,6176846e673909995a32dce3,001,2022-04-29_02h10.43.143,classification_task,2021.2.3,Win32,60.0528465,6176846e673909995a32dce3,626b377229c10585ec392f8a,626b3ab6be0ebced469cce3c,,,,,,,,,,,,,,,,,,,,,,,l,1,1.7711,"[""0.130"",""0.501"",""0.459"",""0.763""]","[1,0,1,1]",0,25,25,25,1,1,1,,,0,FALSE,,,,,,,,,,,,,,,,,,,,,,,,,,,,,,
,6176846e673909995a32dce3,001,2022-04-29_02h10.43.143,classification_task,2021.2.3,Win32,60.0528465,6176846e673909995a32dce3,626b377229c10585ec392f8a,626b3ab6be0ebced469cce3c,,,,,,,,,,,,,,,,,,,,,,,l,1,1.1,"[""0.029"",""0.193"",""0.640"",""0.681""]","[0,1,1,1]",0,26,26,26,1,1,0,,,0,FALSE,,,,,,,,,,,,,,,,,,,,,,,,,,,,,,
,6176846e673909995a32dce3,001,2022-04-29_02h10.43.143,classification_task,2021.2.3,Win32,60.0528465,6176846e673909995a32dce3,626b377229c10585ec392f8a,626b3ab6be0ebced469cce3c,,,,,,,,,,,,,,,,,,,,,,,a,1,0.6839,"[""0.806"",""0.342"",""0.896"",""0.941""]","[0,1,1,1]",0,27,27,27,1,0,0,,,0,FALSE,,,,,,,,,,,,,,,,,,,,,,,,,,,,,,
,6176846e673909995a32dce3,001,2022-04-29_02h10.43.143,classification_task,2021.2.3,Win32,60.0528465,6176846e673909995a32dce3,626b377229c10585ec392f8a,626b3ab6be0ebced469cce3c,,,,,,,,,,,,,,,,,,,,,,,l,1,1.0026,"[""0.130"",""0.381"",""0.459"",""0.722""]","[1,1,1,0]",0,28,28,28,1,1,1,,,0,FALSE,,,,,,,,,,,,,,,,,,,,,,,,,,,,,,
,6176846e673909995a32dce3,001,2022-04-29_02h10.43.143,classification_task,2021.2.3,Win32,60.0528465,6176846e673909995a32dce3,626b377229c10585ec392f8a,626b3ab6be0ebced469cce3c,,,,,,,,,,,,,,,,,,,,,,,l,1,0.7342,"[""0.070"",""0.422"",""0.640"",""0.681""]","[1,0,1,1]",0,29,29,29,1,1,0,,,0,FALSE,,,,,,,,,,,,,,,,,,,,,,,,,,,,,,
,6176846e673909995a32dce3,001,2022-04-29_02h10.43.143,classification_task,2021.2.3,Win32,60.0528465,6176846e673909995a32dce3,626b377229c10585ec392f8a,626b3ab6be0ebced469cce3c,,,,,,,,,,,,,,,,,,,,,,,a,0,0.849,"[""0.501"",""0.381"",""0.459"",""0.763""]","[0,1,1,1]",0,30,30,30,1,1,1,,,0,FALSE,,,,,,,,,,,,,,,,,,,,,,,,,,,,,,
,6176846e673909995a32dce3,001,2022-04-29_02h10.43.143,classification_task,2021.2.3,Win32,60.0528465,6176846e673909995a32dce3,626b377229c10585ec392f8a,626b3ab6be0ebced469cce3c,,,,,,,,,,,,,,,,,,,,,,,a,1,1.8368,"[""0.033"",""0.539"",""0.854"",""0.975""]","[0,1,1,1]",0,31,31,31,1,0,1,,,0,FALSE,,,,,,,,,,,,,,,,,,,,,,,,,,,,,,
,6176846e673909995a32dce3,001,2022-04-29_02h10.43.143,classification_task,2021.2.3,Win32,60.0528465,6176846e673909995a32dce3,626b377229c10585ec392f8a,626b3ab6be0ebced469cce3c,,,,,,,,,,,,,,,,,,,,,,,a,1,0.8017,"[""0.228"",""0.494"",""0.854"",""0.975""]","[1,0,1,1]",0,32,32,32,1,0,1,,,0,FALSE,,,,,,,,,,,,,,,,,,,,,,,,,,,,,,
,6176846e673909995a32dce3,001,2022-04-29_02h10.43.143,classification_task,2021.2.3,Win32,60.0528465,6176846e673909995a32dce3,626b377229c10585ec392f8a,626b3ab6be0ebced469cce3c,,,,,,,,,,,,,,,,,,,,,,,a,0,0.7708,"[""0.717"",""0.381"",""0.459"",""0.763""]","[0,1,1,1]",0,33,33,33,1,1,1,,,0,FALSE,,,,,,,,,,,,,,,,,,,,,,,,,,,,,,
,6176846e673909995a32dce3,001,2022-04-29_02h10.43.143,classification_task,2021.2.3,Win32,60.0528465,6176846e673909995a32dce3,626b377229c10585ec392f8a,626b3ab6be0ebced469cce3c,,,,,,,,,,,,,,,,,,,,,,,a,0,1.8713,"[""0.715"",""0.193"",""0.640"",""0.681""]","[0,1,1,1]",0,34,34,34,1,1,0,,,0,FALSE,,,,,,,,,,,,,,,,,,,,,,,,,,,,,,
,6176846e673909995a32dce3,001,2022-04-29_02h10.43.143,classification_task,2021.2.3,Win32,60.0528465,6176846e673909995a32dce3,626b377229c10585ec392f8a,626b3ab6be0ebced469cce3c,,,,,,,,,,,,,,,,,,,,,,,l,1,0.9332,"[""0.070"",""0.193"",""0.494"",""0.681""]","[1,1,0,1]",0,35,35,35,1,1,0,,,0,FALSE,,,,,,,,,,,,,,,,,,,,,,,,,,,,,,
,6176846e673909995a32dce3,001,2022-04-29_02h10.43.143,classification_task,2021.2.3,Win32,60.0528465,6176846e673909995a32dce3,626b377229c10585ec392f8a,626b3ab6be0ebced469cce3c,,,,,,,,,,,,,,,,,,,,,,,l,1,1.5208,"[""0.130"",""0.422"",""0.459"",""0.763""]","[1,0,1,1]",0,36,36,36,1,1,1,,,0,FALSE,,,,,,,,,,,,,,,,,,,,,,,,,,,,,,
,6176846e673909995a32dce3,001,2022-04-29_02h10.43.143,classification_task,2021.2.3,Win32,60.0528465,6176846e673909995a32dce3,626b377229c10585ec392f8a,626b3ab6be0ebced469cce3c,,,,,,,,,,,,,,,,,,,,,,,a,1,1.3895,"[""0.274"",""0.034"",""0.896"",""0.941""]","[1,0,1,1]",0,37,37,37,1,0,0,,,0,FALSE,,,,,,,,,,,,,,,,,,,,,,,,,,,,,,
,6176846e673909995a32dce3,001,2022-04-29_02h10.43.143,classification_task,2021.2.3,Win32,60.0528465,6176846e673909995a32dce3,626b377229c10585ec392f8a,626b3ab6be0ebced469cce3c,,,,,,,,,,,,,,,,,,,,,,,l,1,3.3187,"[""0.070"",""0.717"",""0.640"",""0.681""]","[1,0,1,1]",0,38,38,38,1,1,0,,,0,FALSE,,,,,,,,,,,,,,,,,,,,,,,,,,,,,,
,6176846e673909995a32dce3,001,2022-04-29_02h10.43.143,classification_task,2021.2.3,Win32,60.0528465,6176846e673909995a32dce3,626b377229c10585ec392f8a,626b3ab6be0ebced469cce3c,,,,,,,,,,,,,,,,,,,,,,,a,0,1.2161,"[""0.130"",""0.381"",""0.722"",""0.763""]","[1,1,0,1]",0,39,39,39,1,1,1,,,0,FALSE,,,,,,,,,,,,,,,,,,,,,,,,,,,,,,
,6176846e673909995a32dce3,001,2022-04-29_02h10.43.143,classification_task,2021.2.3,Win32,60.0528465,6176846e673909995a32dce3,626b377229c10585ec392f8a,626b3ab6be0ebced469cce3c,,,,,,,,,,,,,,,,,,,,,,,a,1,0.7057,"[""0.727"",""0.539"",""0.854"",""0.975""]","[0,1,1,1]",0,40,40,40,1,0,1,,,0,FALSE,,,,,,,,,,,,,,,,,,,,,,,,,,,,,,
,6176846e673909995a32dce3,001,2022-04-29_02h10.43.143,classification_task,2021.2.3,Win32,60.0528465,6176846e673909995a32dce3,626b377229c10585ec392f8a,626b3ab6be0ebced469cce3c,,,,,,,,,,,,,,,,,,,,,,,a,1,1.1173,"[""0.274"",""0.342"",""0.722"",""0.941""]","[1,1,0,1]",0,41,41,41,1,0,0,,,0,FALSE,,,,,,,,,,,,,,,,,,,,,,,,,,,,,,
,6176846e673909995a32dce3,001,2022-04-29_02h10.43.143,classification_task,2021.2.3,Win32,60.0528465,6176846e673909995a32dce3,626b377229c10585ec392f8a,626b3ab6be0ebced469cce3c,,,,,,,,,,,,,,,,,,,,,,,l,1,0.7166,"[""0.130"",""0.381"",""0.459"",""0.501""]","[1,1,1,0]",0,42,42,42,1,1,1,,,0,FALSE,,,,,,,,,,,,,,,,,,,,,,,,,,,,,,
,6176846e673909995a32dce3,001,2022-04-29_02h10.43.143,classification_task,2021.2.3,Win32,60.0528465,6176846e673909995a32dce3,626b377229c10585ec392f8a,626b3ab6be0ebced469cce3c,,,,,,,,,,,,,,,,,,,,,,,a,1,1.1043,"[""0.274"",""0.342"",""0.896"",""0.722""]","[1,1,1,0]",0,43,43,43,1,0,0,,,0,FALSE,,,,,,,,,,,,,,,,,,,,,,,,,,,,,,
,6176846e673909995a32dce3,001,2022-04-29_02h10.43.143,classification_task,2021.2.3,Win32,60.0528465,6176846e673909995a32dce3,626b377229c10585ec392f8a,626b3ab6be0ebced469cce3c,,,,,,,,,,,,,,,,,,,,,,,a,1,1.3212,"[""0.228"",""0.539"",""0.854"",""0.717""]","[1,1,1,0]",0,44,44,44,1,0,1,,,0,FALSE,,,,,,,,,,,,,,,,,,,,,,,,,,,,,,
,6176846e673909995a32dce3,001,2022-04-29_02h10.43.143,classification_task,2021.2.3,Win32,60.0528465,6176846e673909995a32dce3,626b377229c10585ec392f8a,626b3ab6be0ebced469cce3c,,,,,,,,,,,,,,,,,,,,,,,a,1,1.0348,"[""0.228"",""0.539"",""0.595"",""0.975""]","[1,1,0,1]",0,45,45,45,1,0,1,,,0,FALSE,,,,,,,,,,,,,,,,,,,,,,,,,,,,,,
,6176846e673909995a32dce3,001,2022-04-29_02h10.43.143,classification_task,2021.2.3,Win32,60.0528465,6176846e673909995a32dce3,626b377229c10585ec392f8a,626b3ab6be0ebced469cce3c,,,,,,,,,,,,,,,,,,,,,,,l,1,0.8672,"[""0.070"",""0.193"",""0.640"",""0.494""]","[1,1,1,0]",0,46,46,46,1,1,0,,,0,FALSE,,,,,,,,,,,,,,,,,,,,,,,,,,,,,,
,6176846e673909995a32dce3,001,2022-04-29_02h10.43.143,classification_task,2021.2.3,Win32,60.0528465,6176846e673909995a32dce3,626b377229c10585ec392f8a,626b3ab6be0ebced469cce3c,,,,,,,,,,,,,,,,,,,,,,,a,1,0.6668,"[""0.727"",""0.342"",""0.896"",""0.941""]","[0,1,1,1]",0,47,47,47,1,0,0,,,0,FALSE,,,,,,,,,,,,,,,,,,,,,,,,,,,,,,
,6176846e673909995a32dce3,001,2022-04-29_02h10.43.143,classification_task,2021.2.3,Win32,60.0528465,6176846e673909995a32dce3,626b377229c10585ec392f8a,626b3ab6be0ebced469cce3c,,,,,,,,,,,,,,,,,,,,,,,a,1,1.1692,"[""0.274"",""0.342"",""0.576"",""0.941""]","[1,1,0,1]",0,48,48,48,1,0,0,,,0,FALSE,,,,,,,,,,,,,,,,,,,,,,,,,,,,,,
,6176846e673909995a32dce3,001,2022-04-29_02h10.43.143,classification_task,2021.2.3,Win32,60.0528465,6176846e673909995a32dce3,626b377229c10585ec392f8a,626b3ab6be0ebced469cce3c,,,,,,,,,,,,,,,,,,,,,,,a,1,0.8167,"[""0.228"",""0.539"",""0.854"",""0.819""]","[1,1,1,0]",0,49,49,49,1,0,1,,,0,FALSE,,,,,,,,,,,,,,,,,,,,,,,,,,,,,,
,6176846e673909995a32dce3,001,2022-04-29_02h10.43.143,classification_task,2021.2.3,Win32,60.0528465,6176846e673909995a32dce3,626b377229c10585ec392f8a,626b3ab6be0ebced469cce3c,,,,,,,,,,,,,,,,,,,,,,,a,1,2.5864,"[""0.228"",""0.034"",""0.854"",""0.975""]","[1,0,1,1]",0,50,50,50,1,0,1,,,0,FALSE,,,,,,,,,,,,,,,,,,,,,,,,,,,,,,
,6176846e673909995a32dce3,001,2022-04-29_02h10.43.143,classification_task,2021.2.3,Win32,60.0528465,6176846e673909995a32dce3,626b377229c10585ec392f8a,626b3ab6be0ebced469cce3c,,,,,,,,,,,,,,,,,,,,,,,a,1,0.8018,"[""0.274"",""0.342"",""0.896"",""0.573""]","[1,1,1,0]",0,51,51,51,1,0,0,,,0,FALSE,,,,,,,,,,,,,,,,,,,,,,,,,,,,,,
,6176846e673909995a32dce3,001,2022-04-29_02h10.43.143,classification_task,2021.2.3,Win32,60.0528465,6176846e673909995a32dce3,626b377229c10585ec392f8a,626b3ab6be0ebced469cce3c,,,,,,,,,,,,,,,,,,,,,,,l,1,2.8335,"[""0.130"",""0.715"",""0.459"",""0.763""]","[1,0,1,1]",0,52,52,52,1,1,1,,,0,FALSE,,,,,,,,,,,,,,,,,,,,,,,,,,,,,,
,6176846e673909995a32dce3,001,2022-04-29_02h10.43.143,classification_task,2021.2.3,Win32,60.0528465,6176846e673909995a32dce3,626b377229c10585ec392f8a,626b3ab6be0ebced469cce3c,,,,,,,,,,,,,,,,,,,,,,,l,1,0.7549,"[""0.070"",""0.193"",""0.494"",""0.681""]","[1,1,0,1]",0,53,53,53,1,1,0,,,0,FALSE,,,,,,,,,,,,,,,,,,,,,,,,,,,,,,
,6176846e673909995a32dce3,001,2022-04-29_02h10.43.143,classification_task,2021.2.3,Win32,60.0528465,6176846e673909995a32dce3,626b377229c10585ec392f8a,626b3ab6be0ebced469cce3c,,,,,,,,,,,,,,,,,,,,,,,l,1,0.6342,"[""0.070"",""0.193"",""0.640"",""0.033""]","[1,1,1,0]",0,54,54,54,1,1,0,,,0,FALSE,,,,,,,,,,,,,,,,,,,,,,,,,,,,,,
,6176846e673909995a32dce3,001,2022-04-29_02h10.43.143,classification_task,2021.2.3,Win32,60.0528465,6176846e673909995a32dce3,626b377229c10585ec392f8a,626b3ab6be0ebced469cce3c,,,,,,,,,,,,,,,,,,,,,,,a,1,0.7023,"[""0.576"",""0.342"",""0.896"",""0.941""]","[0,1,1,1]",0,55,55,55,1,0,0,,,0,FALSE,,,,,,,,,,,,,,,,,,,,,,,,,,,,,,
,6176846e673909995a32dce3,001,2022-04-29_02h10.43.143,classification_task,2021.2.3,Win32,60.0528465,6176846e673909995a32dce3,626b377229c10585ec392f8a,626b3ab6be0ebced469cce3c,,,,,,,,,,,,,,,,,,,,,,,a,1,0.8232,"[""0.722"",""0.539"",""0.854"",""0.975""]","[0,1,1,1]",0,56,56,56,1,0,1,,,0,FALSE,,,,,,,,,,,,,,,,,,,,,,,,,,,,,,
,6176846e673909995a32dce3,001,2022-04-29_02h10.43.143,classification_task,2021.2.3,Win32,60.0528465,6176846e673909995a32dce3,626b377229c10585ec392f8a,626b3ab6be0ebced469cce3c,,,,,,,,,,,,,,,,,,,,,,,a,0,1.4547,"[""0.130"",""0.381"",""0.806"",""0.763""]","[1,1,0,1]",0,57,57,57,1,1,1,,,0,FALSE,,,,,,,,,,,,,,,,,,,,,,,,,,,,,,
,6176846e673909995a32dce3,001,2022-04-29_02h10.43.143,classification_task,2021.2.3,Win32,60.0528465,6176846e673909995a32dce3,626b377229c10585ec392f8a,626b3ab6be0ebced469cce3c,,,,,,,,,,,,,,,,,,,,,,,a,1,0.7673,"[""0.228"",""0.539"",""0.806"",""0.975""]","[1,1,0,1]",0,58,58,58,1,0,1,,,0,FALSE,,,,,,,,,,,,,,,,,,,,,,,,,,,,,,
,6176846e673909995a32dce3,001,2022-04-29_02h10.43.143,classification_task,2021.2.3,Win32,60.0528465,6176846e673909995a32dce3,626b377229c10585ec392f8a,626b3ab6be0ebced469cce3c,,,,,,,,,,,,,,,,,,,,,,,a,1,1.4179,"[""0.274"",""0.029"",""0.896"",""0.941""]","[1,0,1,1]",0,59,59,59,1,0,0,,,0,FALSE,,,,,,,,,,,,,,,,,,,,,,,,,,,,,,
,6176846e673909995a32dce3,001,2022-04-29_02h10.43.143,classification_task,2021.2.3,Win32,60.0528465,6176846e673909995a32dce3,626b377229c10585ec392f8a,626b3ab6be0ebced469cce3c,,,,,,,,,,,,,,,,,,,,,,,a,0,0.7721,"[""0.070"",""0.806"",""0.640"",""0.681""]","[1,0,1,1]",0,60,60,60,1,1,0,,,0,FALSE,,,,,,,,,,,,,,,,,,,,,,,,,,,,,,
,6176846e673909995a32dce3,001,2022-04-29_02h10.43.143,classification_task,2021.2.3,Win32,60.0528465,6176846e673909995a32dce3,626b377229c10585ec392f8a,626b3ab6be0ebced469cce3c,,,,,,,,,,,,,,,,,,,,,,,l,1,1.6358,"[""0.130"",""0.381"",""0.459"",""0.806""]","[1,1,1,0]",0,61,61,61,1,1,1,,,0,FALSE,,,,,,,,,,,,,,,,,,,,,,,,,,,,,,
,6176846e673909995a32dce3,001,2022-04-29_02h10.43.143,classification_task,2021.2.3,Win32,60.0528465,6176846e673909995a32dce3,626b377229c10585ec392f8a,626b3ab6be0ebced469cce3c,,,,,,,,,,,,,,,,,,,,,,,a,0,0.8833,"[""0.717"",""0.381"",""0.459"",""0.763""]","[0,1,1,1]",0,62,62,62,1,1,1,,,0,FALSE,,,,,,,,,,,,,,,,,,,,,,,,,,,,,,
,6176846e673909995a32dce3,001,2022-04-29_02h10.43.143,classification_task,2021.2.3,Win32,60.0528465,6176846e673909995a32dce3,626b377229c10585ec392f8a,626b3ab6be0ebced469cce3c,,,,,,,,,,,,,,,,,,,,,,,l,1,1.9501,"[""0.501"",""0.193"",""0.640"",""0.681""]","[0,1,1,1]",0,63,63,63,1,1,0,,,0,FALSE,,,,,,,,,,,,,,,,,,,,,,,,,,,,,,
,6176846e673909995a32dce3,001,2022-04-29_02h10.43.143,classification_task,2021.2.3,Win32,60.0528465,6176846e673909995a32dce3,626b377229c10585ec392f8a,626b3ab6be0ebced469cce3c,,,,,,,,,,,,,,,,,,,,,,,,,,,,,,,,,,,,,,,0, ,,0,,,0,2,2,2,1,2,3,,,,,,,,,,,,,,,,,
,6176846e673909995a32dce3,001,2022-04-29_02h10.43.143,classification_task,2021.2.3,Win32,60.0528465,6176846e673909995a32dce3,626b377229c10585ec392f8a,626b3ab6be0ebced469cce3c,,,,,,,,,,,,,,,,,,,,,,,,,,,,,,,,,,,,,,,1,  ,,0,,,0,2,2,2,1,2,3,,,,,,,,,,,,,,,,,
,6176846e673909995a32dce3,001,2022-04-29_02h10.43.143,classification_task,2021.2.3,Win32,60.0528465,6176846e673909995a32dce3,626b377229c10585ec392f8a,626b3ab6be0ebced469cce3c,,,,,,,,,,,,,,,,,,,,,,,,,,,,,,,,,,,,,,,2,  ,,0,,,0,2,2,2,1,2,3,,,,,,,,,,,,,,,,,
,6176846e673909995a32dce3,001,2022-04-29_02h10.43.143,classification_task,2021.2.3,Win32,60.0528465,6176846e673909995a32dce3,626b377229c10585ec392f8a,626b3ab6be0ebced469cce3c,,,,,,,,,,,,,,,,,,,,,,,,,,,,,,,,,,,,,,,,,,,,,0,2,2,2,1,,3,,,,,,,,,,,,,,,,,
,6176846e673909995a32dce3,001,2022-04-29_02h10.43.143,classification_task,2021.2.3,Win32,60.0528465,6176846e673909995a32dce3,626b377229c10585ec392f8a,626b3ab6be0ebced469cce3c,,,,,,,,,,,,,,,,,,,,,,,,,,,,,,,,,,,,,,,,,,,,,,,,,,,,,I believe the aid is a competent performer,,0.7,0,4,1562.868,0,0,0,0,1,0,,,,
,6176846e673909995a32dce3,001,2022-04-29_02h10.43.143,classification_task,2021.2.3,Win32,60.0528465,6176846e673909995a32dce3,626b377229c10585ec392f8a,626b3ab6be0ebced469cce3c,,,,,,,,,,,,,,,,,,,,,,,,,,,,,,,,,,,,,,,,,,,,,,,,,,,,,I trust the aid,,0.7,0,4,1564.5653,0,0,0,0,1,0,,,,
,6176846e673909995a32dce3,001,2022-04-29_02h10.43.143,classification_task,2021.2.3,Win32,60.0528465,6176846e673909995a32dce3,626b377229c10585ec392f8a,626b3ab6be0ebced469cce3c,,,,,,,,,,,,,,,,,,,,,,,,,,,,,,,,,,,,,,,,,,,,,,,,,,,,,I have confidence in the advice given by the aid,,0.7,0,3,1567.6145,0,0,0,0,1,0,,,,
,6176846e673909995a32dce3,001,2022-04-29_02h10.43.143,classification_task,2021.2.3,Win32,60.0528465,6176846e673909995a32dce3,626b377229c10585ec392f8a,626b3ab6be0ebced469cce3c,,,,,,,,,,,,,,,,,,,,,,,,,,,,,,,,,,,,,,,,,,,,,,,,,,,,,I can depend on the aid,,0.7,0,2,1568.9467,0,0,0,0,1,0,,,,
,6176846e673909995a32dce3,001,2022-04-29_02h10.43.143,classification_task,2021.2.3,Win32,60.0528465,6176846e673909995a32dce3,626b377229c10585ec392f8a,626b3ab6be0ebced469cce3c,,,,,,,,,,,,,,,,,,,,,,,,,,,,,,,,,,,,,,,,,,,,,,,,,,,,,I can rely on the aid to behave in consistent ways,,0.7,0,2,1572.1034,0,0,0,0,1,0,,,,
,6176846e673909995a32dce3,001,2022-04-29_02h10.43.143,classification_task,2021.2.3,Win32,60.0528465,6176846e673909995a32dce3,626b377229c10585ec392f8a,626b3ab6be0ebced469cce3c,,,,,,,,,,,,,,,,,,,,,,,,,,,,,,,,,,,,,,,,,,,,,,,,,,,,,I can rely on the aid to do its best every time I take its advice,,0.7,0,3,1575.6939,0,0,0,0,1,0,,,,
,6176846e673909995a32dce3,001,2022-04-29_02h10.43.143,classification_task,2021.2.3,Win32,60.0528465,6176846e673909995a32dce3,626b377229c10585ec392f8a,626b3ab6be0ebced469cce3c,,,,,,,,,,,,,,,,,,,,,,,,,,,,,,,,,,,,,,,,,,,,,,,,,,,,,"On trials you completed with assistance from the aid, how frequently did you think the aid was correct?",,0.7,0,100%,,0,0,0,0,1,0,,,,
,6176846e673909995a32dce3,001,2022-04-29_02h10.43.143,classification_task,2021.2.3,Win32,60.0528465,6176846e673909995a32dce3,626b377229c10585ec392f8a,626b3ab6be0ebced469cce3c,,,,,,,,,,,,,,,,,,,,,,,,,,,,,,,,,,,,,,,,,,,,,,,,,,,,,"On trials you completed without the aid, how frequently did you think you were correct?",,0.7,0,20%,,0,0,0,0,1,0,,,,
,6176846e673909995a32dce3,001,2022-04-29_02h10.43.143,classification_task,2021.2.3,Win32,60.0528465,6176846e673909995a32dce3,626b377229c10585ec392f8a,626b3ab6be0ebced469cce3c,,,,,,,,,,,,,,,,,,,,,,,,,,,,,,,,,,,,,,,,,,,,,,,,,,,,,,,,,,,0,0,0,0,1,,,,,
,6176846e673909995a32dce3,001,2022-04-29_02h10.43.143,classification_task,2021.2.3,Win32,60.0528465,6176846e673909995a32dce3,626b377229c10585ec392f8a,626b3ab6be0ebced469cce3c,,,,,,,,,,,,,,,,,,,,,,,,,,,,,,,,,,,,,,,,,,,,,,,,,,,,,,,,,,,,,,,,,space,22.8054,1619.8925,
,6176846e673909995a32dce3,001,2022-04-29_02h10.43.143,classification_task,2021.2.3,Win32,60.0528465,6176846e673909995a32dce3,626b377229c10585ec392f8a,626b3ab6be0ebced469cce3c,,,,,,,,,,,,,,,,,,,,,,,,,,,,,,,,,,,,,,,,,,,,,,,,,,,,,,,,,,,,,,,,,,,,"Mozilla/5.0 (Windows NT 10.0; Win64; x64) AppleWebKit/537.36 (KHTML, like Gecko) Chrome/100.0.4896.127 Safari/537.36"
