usingWebGL,participant,session,date,expName,psychopyVersion,OS,frameRate,PROLIFIC_PID,STUDY_ID,SESSION_ID,signatures_friend,signatures_foe,band_ranges_top,band_ranges_bottom,formitemText,formtype,formundefined,formitemWidth,formindex,formresponse,formrt,key_resp_2.keys,key_resp_2.rt,tute_resp.keys,tute_resp.rt,tutorial.thisRepN,tutorial.thisTrialN,tutorial.thisN,tutorial.thisIndex,tutorial.ran,key_resp_4.keys,key_resp_4.rt,key_resp.keys,key_resp.corr,key_resp.rt,lines_presented,is_signal_presented,trials.thisRepN,trials.thisTrialN,trials.thisN,trials.thisIndex,trials.ran,vessel,active_band,lines,is_signal,supported_pos,catch_trial,debrief_formindex,debrief_formitemText,debrief_formtype,debrief_formitemWidth,debrief_formresponse,debrief_formrt,phases.thisRepN,phases.thisTrialN,phases.thisN,phases.thisIndex,phases.ran,phases.order,phase,key_resp_3.keys,trustitemText,trusttype,trustitemWidth,trustindex,trustresponse,trustrt,support_status.thisRepN,support_status.thisTrialN,support_status.thisN,support_status.thisIndex,support_status.ran,support_status.order,key_resp_5.keys,key_resp_5.rt,globalClockTime,userAgent
TRUE,Arath,001,2022-04-28_20h07.51.426,classification_task,2021.2.3,Win32,59.76571838,614a5c83c64e6a1364367daa,626b377229c10585ec392f89,626b3a3192155742cf028b31,,,,,,,,,,,,,,,,,,,,,,,,,,,,,,,,,,,,,,,,,,,,,,,,,,,,,,,,,,,,,,,,,,,,
,Arath,001,2022-04-28_20h07.51.426,classification_task,2021.2.3,Win32,59.76571838,614a5c83c64e6a1364367daa,626b377229c10585ec392f89,626b3a3192155742cf028b31,"[[""0.304"",""0.389"",""0.763"",""0.939""],[""0.170"",""0.356"",""0.868"",""0.973""]]","[[""0.126"",""0.206"",""0.496"",""0.720""],[""0.089"",""0.267"",""0.597"",""0.805""]]","[1,10]","[100,1000]",Video game experience,,,0.7,0,,,,,,,,,,,,,,,,,,,,,,,,,,,,,,,,,,,,,,,,,,,,,,,,,,,,,,,,,,,
,Arath,001,2022-04-28_20h07.51.426,classification_task,2021.2.3,Win32,59.76571838,614a5c83c64e6a1364367daa,626b377229c10585ec392f89,626b3a3192155742cf028b31,,,,,Approximately how many hours did you spend playing video games in the last week?,,,0.7,0,12,,,,,,,,,,,,,,,,,,,,,,,,,,,,,,,,,,,,,,,,,,,,,,,,,,,,,,,,,,
,Arath,001,2022-04-28_20h07.51.426,classification_task,2021.2.3,Win32,59.76571838,614a5c83c64e6a1364367daa,626b377229c10585ec392f89,626b3a3192155742cf028b31,,,,,"Which game did you play the most this year? (Enter ""None"" if you didn't play any)",,,0.7,0,FIFA,,,,,,,,,,,,,,,,,,,,,,,,,,,,,,,,,,,,,,,,,,,,,,,,,,,,,,,,,,
,Arath,001,2022-04-28_20h07.51.426,classification_task,2021.2.3,Win32,59.76571838,614a5c83c64e6a1364367daa,626b377229c10585ec392f89,626b3a3192155742cf028b31,,,,,Visual perception,,,0.7,0,,,,,,,,,,,,,,,,,,,,,,,,,,,,,,,,,,,,,,,,,,,,,,,,,,,,,,,,,,,
,Arath,001,2022-04-28_20h07.51.426,classification_task,2021.2.3,Win32,59.76571838,614a5c83c64e6a1364367daa,626b377229c10585ec392f89,626b3a3192155742cf028b31,,,,,Do you have any form of color blindness?,,,0.7,0,No,75.2217,,,,,,,,,,,,,,,,,,,,,,,,,,,,,,,,,,,,,,,,,,,,,,,,,,,,,,,,,
,Arath,001,2022-04-28_20h07.51.426,classification_task,2021.2.3,Win32,59.76571838,614a5c83c64e6a1364367daa,626b377229c10585ec392f89,626b3a3192155742cf028b31,,,,,Do you use software to change the colour temperature of your screen (e.g. f.lux)?,,,0.7,0,No,81.1667,,,,,,,,,,,,,,,,,,,,,,,,,,,,,,,,,,,,,,,,,,,,,,,,,,,,,,,,,
,Arath,001,2022-04-28_20h07.51.426,classification_task,2021.2.3,Win32,59.76571838,614a5c83c64e6a1364367daa,626b377229c10585ec392f89,626b3a3192155742cf028b31,,,,,,,,,,,,space,36.8862,space,11.7297,0,0,0,0,1,,,,,,,,,,,,,,,,,,,,,,,,,,,,,,,,,,,,,,,,,,,,,,,,
,Arath,001,2022-04-28_20h07.51.426,classification_task,2021.2.3,Win32,59.76571838,614a5c83c64e6a1364367daa,626b377229c10585ec392f89,626b3a3192155742cf028b31,,,,,,,,,,,,,,space,13.315,1,0,1,0,1,,,,,,,,,,,,,,,,,,,,,,,,,,,,,,,,,,,,,,,,,,,,,,,,
,Arath,001,2022-04-28_20h07.51.426,classification_task,2021.2.3,Win32,59.76571838,614a5c83c64e6a1364367daa,626b377229c10585ec392f89,626b3a3192155742cf028b31,,,,,,,,,,,,,,space,16.5421,2,0,2,0,1,,,,,,,,,,,,,,,,,,,,,,,,,,,,,,,,,,,,,,,,,,,,,,,,
,Arath,001,2022-04-28_20h07.51.426,classification_task,2021.2.3,Win32,59.76571838,614a5c83c64e6a1364367daa,626b377229c10585ec392f89,626b3a3192155742cf028b31,,,,,,,,,,,,,,space,53.6531,3,0,3,0,1,,,,,,,,,,,,,,,,,,,,,,,,,,,,,,,,,,,,,,,,,,,,,,,,
,Arath,001,2022-04-28_20h07.51.426,classification_task,2021.2.3,Win32,59.76571838,614a5c83c64e6a1364367daa,626b377229c10585ec392f89,626b3a3192155742cf028b31,,,,,,,,,,,,,,space,22.5266,4,0,4,0,1,,,,,,,,,,,,,,,,,,,,,,,,,,,,,,,,,,,,,,,,,,,,,,,,
,Arath,001,2022-04-28_20h07.51.426,classification_task,2021.2.3,Win32,59.76571838,614a5c83c64e6a1364367daa,626b377229c10585ec392f89,626b3a3192155742cf028b31,,,,,,,,,,,,,,,,,,,,,space,35.7017,l,1,5.8456,"[""0.126"",""0.206"",""0.633"",""0.720""]","[1,1,0,1]",0,0,0,0,1,1,0,,,0,FALSE,,,,,,,,,,,,,,,,,,,,,,,,,,,,,,
,Arath,001,2022-04-28_20h07.51.426,classification_task,2021.2.3,Win32,59.76571838,614a5c83c64e6a1364367daa,626b377229c10585ec392f89,626b3a3192155742cf028b31,,,,,,,,,,,,,,,,,,,,,,,l,1,2.0168,"[""0.126"",""0.660"",""0.496"",""0.720""]","[1,0,1,1]",0,1,1,1,1,1,0,,,0,FALSE,,,,,,,,,,,,,,,,,,,,,,,,,,,,,,
,Arath,001,2022-04-28_20h07.51.426,classification_task,2021.2.3,Win32,59.76571838,614a5c83c64e6a1364367daa,626b377229c10585ec392f89,626b3a3192155742cf028b31,,,,,,,,,,,,,,,,,,,,,,,a,1,2.0857,"[""0.304"",""0.389"",""0.763"",""0.429""]","[1,1,1,0]",0,2,2,2,1,0,0,,,0,FALSE,,,,,,,,,,,,,,,,,,,,,,,,,,,,,,
,Arath,001,2022-04-28_20h07.51.426,classification_task,2021.2.3,Win32,59.76571838,614a5c83c64e6a1364367daa,626b377229c10585ec392f89,626b3a3192155742cf028b31,,,,,,,,,,,,,,,,,,,,,,,a,1,4.8192,"[""0.170"",""0.356"",""0.680"",""0.973""]","[1,1,0,1]",0,3,3,3,1,0,1,,,0,FALSE,,,,,,,,,,,,,,,,,,,,,,,,,,,,,,
,Arath,001,2022-04-28_20h07.51.426,classification_task,2021.2.3,Win32,59.76571838,614a5c83c64e6a1364367daa,626b377229c10585ec392f89,626b3a3192155742cf028b31,,,,,,,,,,,,,,,,,,,,,,,a,1,2.7495,"[""0.304"",""0.537"",""0.763"",""0.939""]","[1,0,1,1]",0,4,4,4,1,0,0,,,0,FALSE,,,,,,,,,,,,,,,,,,,,,,,,,,,,,,
,Arath,001,2022-04-28_20h07.51.426,classification_task,2021.2.3,Win32,59.76571838,614a5c83c64e6a1364367daa,626b377229c10585ec392f89,626b3a3192155742cf028b31,,,,,,,,,,,,,,,,,,,,,,,a,1,1.9755,"[""0.304"",""0.389"",""0.429"",""0.939""]","[1,1,0,1]",0,5,5,5,1,0,0,,,0,FALSE,,,,,,,,,,,,,,,,,,,,,,,,,,,,,,
,Arath,001,2022-04-28_20h07.51.426,classification_task,2021.2.3,Win32,59.76571838,614a5c83c64e6a1364367daa,626b377229c10585ec392f89,626b3a3192155742cf028b31,,,,,,,,,,,,,,,,,,,,,,,l,1,2.5129,"[""0.089"",""0.557"",""0.597"",""0.805""]","[1,0,1,1]",0,6,6,6,1,1,1,,,0,FALSE,,,,,,,,,,,,,,,,,,,,,,,,,,,,,,
,Arath,001,2022-04-28_20h07.51.426,classification_task,2021.2.3,Win32,59.76571838,614a5c83c64e6a1364367daa,626b377229c10585ec392f89,626b3a3192155742cf028b31,,,,,,,,,,,,,,,,,,,,,,,a,0,3.2092,"[""0.441"",""0.267"",""0.597"",""0.805""]","[0,1,1,1]",0,7,7,7,1,1,1,,,0,FALSE,,,,,,,,,,,,,,,,,,,,,,,,,,,,,,
,Arath,001,2022-04-28_20h07.51.426,classification_task,2021.2.3,Win32,59.76571838,614a5c83c64e6a1364367daa,626b377229c10585ec392f89,626b3a3192155742cf028b31,,,,,,,,,,,,,,,,,,,,,,,l,1,2.6075,"[""0.089"",""0.267"",""0.597"",""0.459""]","[1,1,1,0]",0,8,8,8,1,1,1,,,0,FALSE,,,,,,,,,,,,,,,,,,,,,,,,,,,,,,
,Arath,001,2022-04-28_20h07.51.426,classification_task,2021.2.3,Win32,59.76571838,614a5c83c64e6a1364367daa,626b377229c10585ec392f89,626b3a3192155742cf028b31,,,,,,,,,,,,,,,,,,,,,,,a,1,2.3246,"[""0.170"",""0.356"",""0.868"",""0.660""]","[1,1,1,0]",0,9,9,9,1,0,1,,,0,FALSE,,,,,,,,,,,,,,,,,,,,,,,,,,,,,,
,Arath,001,2022-04-28_20h07.51.426,classification_task,2021.2.3,Win32,59.76571838,614a5c83c64e6a1364367daa,626b377229c10585ec392f89,626b3a3192155742cf028b31,,,,,,,,,,,,,,,,,,,,,,,l,1,2.0494,"[""0.441"",""0.206"",""0.496"",""0.720""]","[0,1,1,1]",0,10,10,10,1,1,0,,,0,FALSE,,,,,,,,,,,,,,,,,,,,,,,,,,,,,,
,Arath,001,2022-04-28_20h07.51.426,classification_task,2021.2.3,Win32,59.76571838,614a5c83c64e6a1364367daa,626b377229c10585ec392f89,626b3a3192155742cf028b31,,,,,,,,,,,,,,,,,,,,,,,l,1,2.0701,"[""0.126"",""0.206"",""0.496"",""0.554""]","[1,1,1,0]",0,11,11,11,1,1,0,,,0,FALSE,,,,,,,,,,,,,,,,,,,,,,,,,,,,,,
,Arath,001,2022-04-28_20h07.51.426,classification_task,2021.2.3,Win32,59.76571838,614a5c83c64e6a1364367daa,626b377229c10585ec392f89,626b3a3192155742cf028b31,,,,,,,,,,,,,,,,,,,,,,,a,1,4.8148,"[""0.660"",""0.356"",""0.868"",""0.973""]","[0,1,1,1]",0,12,12,12,1,0,1,,,0,FALSE,,,,,,,,,,,,,,,,,,,,,,,,,,,,,,
,Arath,001,2022-04-28_20h07.51.426,classification_task,2021.2.3,Win32,59.76571838,614a5c83c64e6a1364367daa,626b377229c10585ec392f89,626b3a3192155742cf028b31,,,,,,,,,,,,,,,,,,,,,,,a,1,2.9418,"[""0.170"",""0.557"",""0.868"",""0.973""]","[1,0,1,1]",0,13,13,13,1,0,1,,,0,FALSE,,,,,,,,,,,,,,,,,,,,,,,,,,,,,,
,Arath,001,2022-04-28_20h07.51.426,classification_task,2021.2.3,Win32,59.76571838,614a5c83c64e6a1364367daa,626b377229c10585ec392f89,626b3a3192155742cf028b31,,,,,,,,,,,,,,,,,,,,,,,l,1,2.6418,"[""0.089"",""0.267"",""0.682"",""0.805""]","[1,1,0,1]",0,14,14,14,1,1,1,,,0,FALSE,,,,,,,,,,,,,,,,,,,,,,,,,,,,,,
,Arath,001,2022-04-28_20h07.51.426,classification_task,2021.2.3,Win32,59.76571838,614a5c83c64e6a1364367daa,626b377229c10585ec392f89,626b3a3192155742cf028b31,,,,,,,,,,,,,,,,,,,,,,,a,1,3.8067,"[""0.660"",""0.389"",""0.763"",""0.939""]","[0,1,1,1]",0,15,15,15,1,0,0,,,0,FALSE,,,,,,,,,,,,,,,,,,,,,,,,,,,,,,
,Arath,001,2022-04-28_20h07.51.426,classification_task,2021.2.3,Win32,59.76571838,614a5c83c64e6a1364367daa,626b377229c10585ec392f89,626b3a3192155742cf028b31,,,,,,,,,,,,,,,,,,,,,,,a,1,2.076,"[""0.304"",""0.389"",""0.763"",""0.443""]","[1,1,1,0]",0,16,16,16,1,0,0,,,0,FALSE,,,,,,,,,,,,,,,,,,,,,,,,,,,,,,
,Arath,001,2022-04-28_20h07.51.426,classification_task,2021.2.3,Win32,59.76571838,614a5c83c64e6a1364367daa,626b377229c10585ec392f89,626b3a3192155742cf028b31,,,,,,,,,,,,,,,,,,,,,,,l,1,1.9069,"[""0.126"",""0.206"",""0.441"",""0.720""]","[1,1,0,1]",0,17,17,17,1,1,0,,,0,FALSE,,,,,,,,,,,,,,,,,,,,,,,,,,,,,,
,Arath,001,2022-04-28_20h07.51.426,classification_task,2021.2.3,Win32,59.76571838,614a5c83c64e6a1364367daa,626b377229c10585ec392f89,626b3a3192155742cf028b31,,,,,,,,,,,,,,,,,,,,,,,l,1,2.0974,"[""0.089"",""0.423"",""0.597"",""0.805""]","[1,0,1,1]",0,18,18,18,1,1,1,,,0,FALSE,,,,,,,,,,,,,,,,,,,,,,,,,,,,,,
,Arath,001,2022-04-28_20h07.51.426,classification_task,2021.2.3,Win32,59.76571838,614a5c83c64e6a1364367daa,626b377229c10585ec392f89,626b3a3192155742cf028b31,,,,,,,,,,,,,,,,,,,,,,,l,1,2.0887,"[""0.089"",""0.267"",""0.597"",""0.660""]","[1,1,1,0]",0,19,19,19,1,1,1,,,0,FALSE,,,,,,,,,,,,,,,,,,,,,,,,,,,,,,
,Arath,001,2022-04-28_20h07.51.426,classification_task,2021.2.3,Win32,59.76571838,614a5c83c64e6a1364367daa,626b377229c10585ec392f89,626b3a3192155742cf028b31,,,,,,,,,,,,,,,,,,,,,,,a,1,3.4715,"[""0.304"",""0.633"",""0.763"",""0.939""]","[1,0,1,1]",0,20,20,20,1,0,0,,,0,FALSE,,,,,,,,,,,,,,,,,,,,,,,,,,,,,,
,Arath,001,2022-04-28_20h07.51.426,classification_task,2021.2.3,Win32,59.76571838,614a5c83c64e6a1364367daa,626b377229c10585ec392f89,626b3a3192155742cf028b31,,,,,,,,,,,,,,,,,,,,,,,l,1,3.5464,"[""0.047"",""0.206"",""0.496"",""0.720""]","[0,1,1,1]",0,21,21,21,1,1,0,,,0,FALSE,,,,,,,,,,,,,,,,,,,,,,,,,,,,,,
,Arath,001,2022-04-28_20h07.51.426,classification_task,2021.2.3,Win32,59.76571838,614a5c83c64e6a1364367daa,626b377229c10585ec392f89,626b3a3192155742cf028b31,,,,,,,,,,,,,,,,,,,,,,,a,1,3.1621,"[""0.429"",""0.389"",""0.763"",""0.939""]","[0,1,1,1]",0,22,22,22,1,0,0,,,0,FALSE,,,,,,,,,,,,,,,,,,,,,,,,,,,,,,
,Arath,001,2022-04-28_20h07.51.426,classification_task,2021.2.3,Win32,59.76571838,614a5c83c64e6a1364367daa,626b377229c10585ec392f89,626b3a3192155742cf028b31,,,,,,,,,,,,,,,,,,,,,,,l,1,2.1715,"[""0.089"",""0.267"",""0.660"",""0.805""]","[1,1,0,1]",0,23,23,23,1,1,1,,,0,FALSE,,,,,,,,,,,,,,,,,,,,,,,,,,,,,,
,Arath,001,2022-04-28_20h07.51.426,classification_task,2021.2.3,Win32,59.76571838,614a5c83c64e6a1364367daa,626b377229c10585ec392f89,626b3a3192155742cf028b31,,,,,,,,,,,,,,,,,,,,,,,l,0,2.0671,"[""0.170"",""0.356"",""0.868"",""0.047""]","[1,1,1,0]",0,24,24,24,1,0,1,,,0,FALSE,,,,,,,,,,,,,,,,,,,,,,,,,,,,,,
,Arath,001,2022-04-28_20h07.51.426,classification_task,2021.2.3,Win32,59.76571838,614a5c83c64e6a1364367daa,626b377229c10585ec392f89,626b3a3192155742cf028b31,,,,,,,,,,,,,,,,,,,,,,,a,1,1.926,"[""0.170"",""0.356"",""0.543"",""0.973""]","[1,1,0,1]",0,25,25,25,1,0,1,,,0,FALSE,,,,,,,,,,,,,,,,,,,,,,,,,,,,,,
,Arath,001,2022-04-28_20h07.51.426,classification_task,2021.2.3,Win32,59.76571838,614a5c83c64e6a1364367daa,626b377229c10585ec392f89,626b3a3192155742cf028b31,,,,,,,,,,,,,,,,,,,,,,,a,1,1.793,"[""0.304"",""0.389"",""0.554"",""0.939""]","[1,1,0,1]",0,26,26,26,1,0,0,,,0,FALSE,,,,,,,,,,,,,,,,,,,,,,,,,,,,,,
,Arath,001,2022-04-28_20h07.51.426,classification_task,2021.2.3,Win32,59.76571838,614a5c83c64e6a1364367daa,626b377229c10585ec392f89,626b3a3192155742cf028b31,,,,,,,,,,,,,,,,,,,,,,,l,1,3.0637,"[""0.126"",""0.682"",""0.496"",""0.720""]","[1,0,1,1]",0,27,27,27,1,1,0,,,0,FALSE,,,,,,,,,,,,,,,,,,,,,,,,,,,,,,
,Arath,001,2022-04-28_20h07.51.426,classification_task,2021.2.3,Win32,59.76571838,614a5c83c64e6a1364367daa,626b377229c10585ec392f89,626b3a3192155742cf028b31,,,,,,,,,,,,,,,,,,,,,,,a,1,3.6652,"[""0.423"",""0.356"",""0.868"",""0.973""]","[0,1,1,1]",0,28,28,28,1,0,1,,,0,FALSE,,,,,,,,,,,,,,,,,,,,,,,,,,,,,,
,Arath,001,2022-04-28_20h07.51.426,classification_task,2021.2.3,Win32,59.76571838,614a5c83c64e6a1364367daa,626b377229c10585ec392f89,626b3a3192155742cf028b31,,,,,,,,,,,,,,,,,,,,,,,l,1,3.2329,"[""0.126"",""0.206"",""0.496"",""0.682""]","[1,1,1,0]",0,29,29,29,1,1,0,,,0,FALSE,,,,,,,,,,,,,,,,,,,,,,,,,,,,,,
,Arath,001,2022-04-28_20h07.51.426,classification_task,2021.2.3,Win32,59.76571838,614a5c83c64e6a1364367daa,626b377229c10585ec392f89,626b3a3192155742cf028b31,,,,,,,,,,,,,,,,,,,,,,,a,1,3.1978,"[""0.170"",""0.680"",""0.868"",""0.973""]","[1,0,1,1]",0,30,30,30,1,0,1,,,0,FALSE,,,,,,,,,,,,,,,,,,,,,,,,,,,,,,
,Arath,001,2022-04-28_20h07.51.426,classification_task,2021.2.3,Win32,59.76571838,614a5c83c64e6a1364367daa,626b377229c10585ec392f89,626b3a3192155742cf028b31,,,,,,,,,,,,,,,,,,,,,,,a,0,3.328,"[""0.557"",""0.267"",""0.597"",""0.805""]","[0,1,1,1]",0,31,31,31,1,1,1,,,0,FALSE,,,,,,,,,,,,,,,,,,,,,,,,,,,,,,
,Arath,001,2022-04-28_20h07.51.426,classification_task,2021.2.3,Win32,59.76571838,614a5c83c64e6a1364367daa,626b377229c10585ec392f89,626b3a3192155742cf028b31,,,,,,,,,,,,,,,,,,,,,,,a,1,3.5253,"[""0.304"",""0.389"",""0.763"",""0.459""]","[1,1,1,0]",0,32,32,32,1,0,0,,,0,FALSE,,,,,,,,,,,,,,,,,,,,,,,,,,,,,,
,Arath,001,2022-04-28_20h07.51.426,classification_task,2021.2.3,Win32,59.76571838,614a5c83c64e6a1364367daa,626b377229c10585ec392f89,626b3a3192155742cf028b31,,,,,,,,,,,,,,,,,,,,,,,a,0,1.8078,"[""0.089"",""0.633"",""0.597"",""0.805""]","[1,0,1,1]",0,33,33,33,1,1,1,,,0,FALSE,,,,,,,,,,,,,,,,,,,,,,,,,,,,,,
,Arath,001,2022-04-28_20h07.51.426,classification_task,2021.2.3,Win32,59.76571838,614a5c83c64e6a1364367daa,626b377229c10585ec392f89,626b3a3192155742cf028b31,,,,,,,,,,,,,,,,,,,,,,,a,1,1.1842,"[""0.304"",""0.389"",""0.557"",""0.939""]","[1,1,0,1]",0,34,34,34,1,0,0,,,0,FALSE,,,,,,,,,,,,,,,,,,,,,,,,,,,,,,
,Arath,001,2022-04-28_20h07.51.426,classification_task,2021.2.3,Win32,59.76571838,614a5c83c64e6a1364367daa,626b377229c10585ec392f89,626b3a3192155742cf028b31,,,,,,,,,,,,,,,,,,,,,,,a,0,0.9338,"[""0.089"",""0.267"",""0.597"",""0.462""]","[1,1,1,0]",0,35,35,35,1,1,1,,,0,FALSE,,,,,,,,,,,,,,,,,,,,,,,,,,,,,,
,Arath,001,2022-04-28_20h07.51.426,classification_task,2021.2.3,Win32,59.76571838,614a5c83c64e6a1364367daa,626b377229c10585ec392f89,626b3a3192155742cf028b31,,,,,,,,,,,,,,,,,,,,,,,a,1,1.4216,"[""0.443"",""0.389"",""0.763"",""0.939""]","[0,1,1,1]",0,36,36,36,1,0,0,,,0,FALSE,,,,,,,,,,,,,,,,,,,,,,,,,,,,,,
,Arath,001,2022-04-28_20h07.51.426,classification_task,2021.2.3,Win32,59.76571838,614a5c83c64e6a1364367daa,626b377229c10585ec392f89,626b3a3192155742cf028b31,,,,,,,,,,,,,,,,,,,,,,,l,1,0.5326,"[""0.554"",""0.267"",""0.597"",""0.805""]","[0,1,1,1]",0,37,37,37,1,1,1,,,0,FALSE,,,,,,,,,,,,,,,,,,,,,,,,,,,,,,
,Arath,001,2022-04-28_20h07.51.426,classification_task,2021.2.3,Win32,59.76571838,614a5c83c64e6a1364367daa,626b377229c10585ec392f89,626b3a3192155742cf028b31,,,,,,,,,,,,,,,,,,,,,,,a,0,1.0672,"[""0.126"",""0.206"",""0.496"",""0.682""]","[1,1,1,0]",0,38,38,38,1,1,0,,,0,FALSE,,,,,,,,,,,,,,,,,,,,,,,,,,,,,,
,Arath,001,2022-04-28_20h07.51.426,classification_task,2021.2.3,Win32,59.76571838,614a5c83c64e6a1364367daa,626b377229c10585ec392f89,626b3a3192155742cf028b31,,,,,,,,,,,,,,,,,,,,,,,a,1,0.9206,"[""0.170"",""0.459"",""0.868"",""0.973""]","[1,0,1,1]",0,39,39,39,1,0,1,,,0,FALSE,,,,,,,,,,,,,,,,,,,,,,,,,,,,,,
,Arath,001,2022-04-28_20h07.51.426,classification_task,2021.2.3,Win32,59.76571838,614a5c83c64e6a1364367daa,626b377229c10585ec392f89,626b3a3192155742cf028b31,,,,,,,,,,,,,,,,,,,,,,,a,1,3.3572,"[""0.170"",""0.356"",""0.868"",""0.543""]","[1,1,1,0]",0,40,40,40,1,0,1,,,0,FALSE,,,,,,,,,,,,,,,,,,,,,,,,,,,,,,
,Arath,001,2022-04-28_20h07.51.426,classification_task,2021.2.3,Win32,59.76571838,614a5c83c64e6a1364367daa,626b377229c10585ec392f89,626b3a3192155742cf028b31,,,,,,,,,,,,,,,,,,,,,,,l,1,1.1243,"[""0.089"",""0.267"",""0.443"",""0.805""]","[1,1,0,1]",0,41,41,41,1,1,1,,,0,FALSE,,,,,,,,,,,,,,,,,,,,,,,,,,,,,,
,Arath,001,2022-04-28_20h07.51.426,classification_task,2021.2.3,Win32,59.76571838,614a5c83c64e6a1364367daa,626b377229c10585ec392f89,626b3a3192155742cf028b31,,,,,,,,,,,,,,,,,,,,,,,a,0,1.4178,"[""0.126"",""0.206"",""0.543"",""0.720""]","[1,1,0,1]",0,42,42,42,1,1,0,,,0,FALSE,,,,,,,,,,,,,,,,,,,,,,,,,,,,,,
,Arath,001,2022-04-28_20h07.51.426,classification_task,2021.2.3,Win32,59.76571838,614a5c83c64e6a1364367daa,626b377229c10585ec392f89,626b3a3192155742cf028b31,,,,,,,,,,,,,,,,,,,,,,,a,1,1.0719,"[""0.304"",""0.441"",""0.763"",""0.939""]","[1,0,1,1]",0,43,43,43,1,0,0,,,0,FALSE,,,,,,,,,,,,,,,,,,,,,,,,,,,,,,
,Arath,001,2022-04-28_20h07.51.426,classification_task,2021.2.3,Win32,59.76571838,614a5c83c64e6a1364367daa,626b377229c10585ec392f89,626b3a3192155742cf028b31,,,,,,,,,,,,,,,,,,,,,,,l,0,0.5041,"[""0.170"",""0.356"",""0.462"",""0.973""]","[1,1,0,1]",0,44,44,44,1,0,1,,,0,FALSE,,,,,,,,,,,,,,,,,,,,,,,,,,,,,,
,Arath,001,2022-04-28_20h07.51.426,classification_task,2021.2.3,Win32,59.76571838,614a5c83c64e6a1364367daa,626b377229c10585ec392f89,626b3a3192155742cf028b31,,,,,,,,,,,,,,,,,,,,,,,l,0,0.435,"[""0.462"",""0.356"",""0.868"",""0.973""]","[0,1,1,1]",0,45,45,45,1,0,1,,,0,FALSE,,,,,,,,,,,,,,,,,,,,,,,,,,,,,,
,Arath,001,2022-04-28_20h07.51.426,classification_task,2021.2.3,Win32,59.76571838,614a5c83c64e6a1364367daa,626b377229c10585ec392f89,626b3a3192155742cf028b31,,,,,,,,,,,,,,,,,,,,,,,l,1,0.6672,"[""0.126"",""0.537"",""0.496"",""0.720""]","[1,0,1,1]",0,46,46,46,1,1,0,,,0,FALSE,,,,,,,,,,,,,,,,,,,,,,,,,,,,,,
,Arath,001,2022-04-28_20h07.51.426,classification_task,2021.2.3,Win32,59.76571838,614a5c83c64e6a1364367daa,626b377229c10585ec392f89,626b3a3192155742cf028b31,,,,,,,,,,,,,,,,,,,,,,,l,1,0.9515,"[""0.429"",""0.206"",""0.496"",""0.720""]","[0,1,1,1]",0,47,47,47,1,1,0,,,0,FALSE,,,,,,,,,,,,,,,,,,,,,,,,,,,,,,
,Arath,001,2022-04-28_20h07.51.426,classification_task,2021.2.3,Win32,59.76571838,614a5c83c64e6a1364367daa,626b377229c10585ec392f89,626b3a3192155742cf028b31,,,,,,,,,,,,,,,,,,,,,,,a,1,0.9514,"[""0.304"",""0.423"",""0.763"",""0.939""]","[1,0,1,1]",0,48,48,48,1,0,0,,,0,FALSE,,,,,,,,,,,,,,,,,,,,,,,,,,,,,,
,Arath,001,2022-04-28_20h07.51.426,classification_task,2021.2.3,Win32,59.76571838,614a5c83c64e6a1364367daa,626b377229c10585ec392f89,626b3a3192155742cf028b31,,,,,,,,,,,,,,,,,,,,,,,l,1,0.8174,"[""0.557"",""0.267"",""0.597"",""0.805""]","[0,1,1,1]",0,49,49,49,1,1,1,,,0,FALSE,,,,,,,,,,,,,,,,,,,,,,,,,,,,,,
,Arath,001,2022-04-28_20h07.51.426,classification_task,2021.2.3,Win32,59.76571838,614a5c83c64e6a1364367daa,626b377229c10585ec392f89,626b3a3192155742cf028b31,,,,,,,,,,,,,,,,,,,,,,,a,0,0.8679,"[""0.126"",""0.206"",""0.496"",""0.554""]","[1,1,1,0]",0,50,50,50,1,1,0,,,0,FALSE,,,,,,,,,,,,,,,,,,,,,,,,,,,,,,
,Arath,001,2022-04-28_20h07.51.426,classification_task,2021.2.3,Win32,59.76571838,614a5c83c64e6a1364367daa,626b377229c10585ec392f89,626b3a3192155742cf028b31,,,,,,,,,,,,,,,,,,,,,,,a,1,1.2164,"[""0.462"",""0.389"",""0.763"",""0.939""]","[0,1,1,1]",0,51,51,51,1,0,0,,,0,FALSE,,,,,,,,,,,,,,,,,,,,,,,,,,,,,,
,Arath,001,2022-04-28_20h07.51.426,classification_task,2021.2.3,Win32,59.76571838,614a5c83c64e6a1364367daa,626b377229c10585ec392f89,626b3a3192155742cf028b31,,,,,,,,,,,,,,,,,,,,,,,l,0,1.0676,"[""0.170"",""0.429"",""0.868"",""0.973""]","[1,0,1,1]",0,52,52,52,1,0,1,,,0,FALSE,,,,,,,,,,,,,,,,,,,,,,,,,,,,,,
,Arath,001,2022-04-28_20h07.51.426,classification_task,2021.2.3,Win32,59.76571838,614a5c83c64e6a1364367daa,626b377229c10585ec392f89,626b3a3192155742cf028b31,,,,,,,,,,,,,,,,,,,,,,,l,0,0.6011,"[""0.170"",""0.356"",""0.868"",""0.557""]","[1,1,1,0]",0,53,53,53,1,0,1,,,0,FALSE,,,,,,,,,,,,,,,,,,,,,,,,,,,,,,
,Arath,001,2022-04-28_20h07.51.426,classification_task,2021.2.3,Win32,59.76571838,614a5c83c64e6a1364367daa,626b377229c10585ec392f89,626b3a3192155742cf028b31,,,,,,,,,,,,,,,,,,,,,,,l,1,0.4846,"[""0.089"",""0.267"",""0.441"",""0.805""]","[1,1,0,1]",0,54,54,54,1,1,1,,,0,FALSE,,,,,,,,,,,,,,,,,,,,,,,,,,,,,,
,Arath,001,2022-04-28_20h07.51.426,classification_task,2021.2.3,Win32,59.76571838,614a5c83c64e6a1364367daa,626b377229c10585ec392f89,626b3a3192155742cf028b31,,,,,,,,,,,,,,,,,,,,,,,l,1,0.7055,"[""0.126"",""0.537"",""0.496"",""0.720""]","[1,0,1,1]",0,55,55,55,1,1,0,,,0,FALSE,,,,,,,,,,,,,,,,,,,,,,,,,,,,,,
,Arath,001,2022-04-28_20h07.51.426,classification_task,2021.2.3,Win32,59.76571838,614a5c83c64e6a1364367daa,626b377229c10585ec392f89,626b3a3192155742cf028b31,,,,,,,,,,,,,,,,,,,,,,,a,1,0.7022,"[""0.304"",""0.389"",""0.423"",""0.939""]","[1,1,0,1]",0,56,56,56,1,0,0,,,0,FALSE,,,,,,,,,,,,,,,,,,,,,,,,,,,,,,
,Arath,001,2022-04-28_20h07.51.426,classification_task,2021.2.3,Win32,59.76571838,614a5c83c64e6a1364367daa,626b377229c10585ec392f89,626b3a3192155742cf028b31,,,,,,,,,,,,,,,,,,,,,,,a,0,0.7711,"[""0.126"",""0.206"",""0.660"",""0.720""]","[1,1,0,1]",0,57,57,57,1,1,0,,,0,FALSE,,,,,,,,,,,,,,,,,,,,,,,,,,,,,,
,Arath,001,2022-04-28_20h07.51.426,classification_task,2021.2.3,Win32,59.76571838,614a5c83c64e6a1364367daa,626b377229c10585ec392f89,626b3a3192155742cf028b31,,,,,,,,,,,,,,,,,,,,,,,a,0,0.8415,"[""0.089"",""0.267"",""0.597"",""0.680""]","[1,1,1,0]",0,58,58,58,1,1,1,,,0,FALSE,,,,,,,,,,,,,,,,,,,,,,,,,,,,,,
,Arath,001,2022-04-28_20h07.51.426,classification_task,2021.2.3,Win32,59.76571838,614a5c83c64e6a1364367daa,626b377229c10585ec392f89,626b3a3192155742cf028b31,,,,,,,,,,,,,,,,,,,,,,,a,1,0.7537,"[""0.170"",""0.356"",""0.429"",""0.973""]","[1,1,0,1]",0,59,59,59,1,0,1,,,0,FALSE,,,,,,,,,,,,,,,,,,,,,,,,,,,,,,
,Arath,001,2022-04-28_20h07.51.426,classification_task,2021.2.3,Win32,59.76571838,614a5c83c64e6a1364367daa,626b377229c10585ec392f89,626b3a3192155742cf028b31,,,,,,,,,,,,,,,,,,,,,,,a,1,0.7795,"[""0.423"",""0.356"",""0.868"",""0.973""]","[0,1,1,1]",0,60,60,60,1,0,1,,,0,FALSE,,,,,,,,,,,,,,,,,,,,,,,,,,,,,,
,Arath,001,2022-04-28_20h07.51.426,classification_task,2021.2.3,Win32,59.76571838,614a5c83c64e6a1364367daa,626b377229c10585ec392f89,626b3a3192155742cf028b31,,,,,,,,,,,,,,,,,,,,,,,l,0,0.8563,"[""0.304"",""0.389"",""0.763"",""0.543""]","[1,1,1,0]",0,61,61,61,1,0,0,,,0,FALSE,,,,,,,,,,,,,,,,,,,,,,,,,,,,,,
,Arath,001,2022-04-28_20h07.51.426,classification_task,2021.2.3,Win32,59.76571838,614a5c83c64e6a1364367daa,626b377229c10585ec392f89,626b3a3192155742cf028b31,,,,,,,,,,,,,,,,,,,,,,,a,0,0.9087,"[""0.089"",""0.554"",""0.597"",""0.805""]","[1,0,1,1]",0,62,62,62,1,1,1,,,0,FALSE,,,,,,,,,,,,,,,,,,,,,,,,,,,,,,
,Arath,001,2022-04-28_20h07.51.426,classification_task,2021.2.3,Win32,59.76571838,614a5c83c64e6a1364367daa,626b377229c10585ec392f89,626b3a3192155742cf028b31,,,,,,,,,,,,,,,,,,,,,,,a,0,0.8893,"[""0.035"",""0.206"",""0.496"",""0.720""]","[0,1,1,1]",0,63,63,63,1,1,0,,,0,FALSE,,,,,,,,,,,,,,,,,,,,,,,,,,,,,,
,Arath,001,2022-04-28_20h07.51.426,classification_task,2021.2.3,Win32,59.76571838,614a5c83c64e6a1364367daa,626b377229c10585ec392f89,626b3a3192155742cf028b31,,,,,,,,,,,,,,,,,,,,,,,,,,,,,,,,,,,,,,,0, ,,0,7.994561649,518.9501,0,0,0,0,1,2,1,,,,,,,,,,,,,,,,,
,Arath,001,2022-04-28_20h07.51.426,classification_task,2021.2.3,Win32,59.76571838,614a5c83c64e6a1364367daa,626b377229c10585ec392f89,626b3a3192155742cf028b31,,,,,,,,,,,,,,,,,,,,,,,,,,,,,,,,,,,,,,,1,  ,,0,9.905203196,514.7677,0,0,0,0,1,2,1,,,,,,,,,,,,,,,,,
,Arath,001,2022-04-28_20h07.51.426,classification_task,2021.2.3,Win32,59.76571838,614a5c83c64e6a1364367daa,626b377229c10585ec392f89,626b3a3192155742cf028b31,,,,,,,,,,,,,,,,,,,,,,,,,,,,,,,,,,,,,,,2,  ,,0,5.153096218,528.5632,0,0,0,0,1,2,1,,,,,,,,,,,,,,,,,
,Arath,001,2022-04-28_20h07.51.426,classification_task,2021.2.3,Win32,59.76571838,614a5c83c64e6a1364367daa,626b377229c10585ec392f89,626b3a3192155742cf028b31,,,,,,,,,,,,,,,,,,,,,,,,,,,,,,,,,,,,,,,,,,,,,0,0,0,0,1,,1,,,,,,,,,,,,,,,,,
,Arath,001,2022-04-28_20h07.51.426,classification_task,2021.2.3,Win32,59.76571838,614a5c83c64e6a1364367daa,626b377229c10585ec392f89,626b3a3192155742cf028b31,,,,,,,,,,,,,,,,,,,,,space,31.0409,a,0,3.976,"[""0.089"",""0.660"",""0.597"",""0.805""]","[1,0,1,1]",0,0,0,0,1,1,1,,,0,FALSE,,,,,,,,,,,,,,,,,,,,,,,,,,,,,,
,Arath,001,2022-04-28_20h07.51.426,classification_task,2021.2.3,Win32,59.76571838,614a5c83c64e6a1364367daa,626b377229c10585ec392f89,626b3a3192155742cf028b31,,,,,,,,,,,,,,,,,,,,,,,a,1,2.734,"[""0.170"",""0.047"",""0.868"",""0.973""]","[1,0,1,1]",0,1,1,1,1,0,1,,,0,FALSE,,,,,,,,,,,,,,,,,,,,,,,,,,,,,,
,Arath,001,2022-04-28_20h07.51.426,classification_task,2021.2.3,Win32,59.76571838,614a5c83c64e6a1364367daa,626b377229c10585ec392f89,626b3a3192155742cf028b31,,,,,,,,,,,,,,,,,,,,,,,l,1,3.4304,"[""0.633"",""0.267"",""0.597"",""0.805""]","[0,1,1,1]",0,2,2,2,1,1,1,,,0,FALSE,,,,,,,,,,,,,,,,,,,,,,,,,,,,,,
,Arath,001,2022-04-28_20h07.51.426,classification_task,2021.2.3,Win32,59.76571838,614a5c83c64e6a1364367daa,626b377229c10585ec392f89,626b3a3192155742cf028b31,,,,,,,,,,,,,,,,,,,,,,,a,1,2.484,"[""0.170"",""0.356"",""0.868"",""0.047""]","[1,1,1,0]",0,3,3,3,1,0,1,,,0,FALSE,,,,,,,,,,,,,,,,,,,,,,,,,,,,,,
,Arath,001,2022-04-28_20h07.51.426,classification_task,2021.2.3,Win32,59.76571838,614a5c83c64e6a1364367daa,626b377229c10585ec392f89,626b3a3192155742cf028b31,,,,,,,,,,,,,,,,,,,,,,,l,0,1.5675,"[""0.554"",""0.356"",""0.868"",""0.973""]","[0,1,1,1]",0,4,4,4,1,0,1,,,0,FALSE,,,,,,,,,,,,,,,,,,,,,,,,,,,,,,
,Arath,001,2022-04-28_20h07.51.426,classification_task,2021.2.3,Win32,59.76571838,614a5c83c64e6a1364367daa,626b377229c10585ec392f89,626b3a3192155742cf028b31,,,,,,,,,,,,,,,,,,,,,,,a,1,2.1806,"[""0.304"",""0.389"",""0.763"",""0.537""]","[1,1,1,0]",0,5,5,5,1,0,0,,,0,FALSE,,,,,,,,,,,,,,,,,,,,,,,,,,,,,,
,Arath,001,2022-04-28_20h07.51.426,classification_task,2021.2.3,Win32,59.76571838,614a5c83c64e6a1364367daa,626b377229c10585ec392f89,626b3a3192155742cf028b31,,,,,,,,,,,,,,,,,,,,,,,a,1,2.5982,"[""0.170"",""0.356"",""0.554"",""0.973""]","[1,1,0,1]",0,6,6,6,1,0,1,,,0,FALSE,,,,,,,,,,,,,,,,,,,,,,,,,,,,,,
,Arath,001,2022-04-28_20h07.51.426,classification_task,2021.2.3,Win32,59.76571838,614a5c83c64e6a1364367daa,626b377229c10585ec392f89,626b3a3192155742cf028b31,,,,,,,,,,,,,,,,,,,,,,,l,1,2.0989,"[""0.126"",""0.206"",""0.443"",""0.720""]","[1,1,0,1]",0,7,7,7,1,1,0,,,0,FALSE,,,,,,,,,,,,,,,,,,,,,,,,,,,,,,
,Arath,001,2022-04-28_20h07.51.426,classification_task,2021.2.3,Win32,59.76571838,614a5c83c64e6a1364367daa,626b377229c10585ec392f89,626b3a3192155742cf028b31,,,,,,,,,,,,,,,,,,,,,,,l,1,1.7843,"[""0.047"",""0.206"",""0.496"",""0.720""]","[0,1,1,1]",0,8,8,8,1,1,0,,,0,FALSE,,,,,,,,,,,,,,,,,,,,,,,,,,,,,,
,Arath,001,2022-04-28_20h07.51.426,classification_task,2021.2.3,Win32,59.76571838,614a5c83c64e6a1364367daa,626b377229c10585ec392f89,626b3a3192155742cf028b31,,,,,,,,,,,,,,,,,,,,,,,a,1,0.9682,"[""0.304"",""0.462"",""0.763"",""0.939""]","[1,0,1,1]",0,9,9,9,1,0,0,,,0,FALSE,,,,,,,,,,,,,,,,,,,,,,,,,,,,,,
,Arath,001,2022-04-28_20h07.51.426,classification_task,2021.2.3,Win32,59.76571838,614a5c83c64e6a1364367daa,626b377229c10585ec392f89,626b3a3192155742cf028b31,,,,,,,,,,,,,,,,,,,,,,,a,1,0.5681,"[""0.554"",""0.389"",""0.763"",""0.939""]","[0,1,1,1]",0,10,10,10,1,0,0,,,0,FALSE,,,,,,,,,,,,,,,,,,,,,,,,,,,,,,
,Arath,001,2022-04-28_20h07.51.426,classification_task,2021.2.3,Win32,59.76571838,614a5c83c64e6a1364367daa,626b377229c10585ec392f89,626b3a3192155742cf028b31,,,,,,,,,,,,,,,,,,,,,,,l,1,1.4323,"[""0.089"",""0.267"",""0.597"",""0.557""]","[1,1,1,0]",0,11,11,11,1,1,1,,,0,FALSE,,,,,,,,,,,,,,,,,,,,,,,,,,,,,,
,Arath,001,2022-04-28_20h07.51.426,classification_task,2021.2.3,Win32,59.76571838,614a5c83c64e6a1364367daa,626b377229c10585ec392f89,626b3a3192155742cf028b31,,,,,,,,,,,,,,,,,,,,,,,l,1,0.8307,"[""0.126"",""0.543"",""0.496"",""0.720""]","[1,0,1,1]",0,12,12,12,1,1,0,,,0,FALSE,,,,,,,,,,,,,,,,,,,,,,,,,,,,,,
,Arath,001,2022-04-28_20h07.51.426,classification_task,2021.2.3,Win32,59.76571838,614a5c83c64e6a1364367daa,626b377229c10585ec392f89,626b3a3192155742cf028b31,,,,,,,,,,,,,,,,,,,,,,,a,0,0.9158,"[""0.089"",""0.267"",""0.035"",""0.805""]","[1,1,0,1]",0,13,13,13,1,1,1,,,0,FALSE,,,,,,,,,,,,,,,,,,,,,,,,,,,,,,
,Arath,001,2022-04-28_20h07.51.426,classification_task,2021.2.3,Win32,59.76571838,614a5c83c64e6a1364367daa,626b377229c10585ec392f89,626b3a3192155742cf028b31,,,,,,,,,,,,,,,,,,,,,,,a,1,0.6005,"[""0.304"",""0.389"",""0.554"",""0.939""]","[1,1,0,1]",0,14,14,14,1,0,0,,,0,FALSE,,,,,,,,,,,,,,,,,,,,,,,,,,,,,,
,Arath,001,2022-04-28_20h07.51.426,classification_task,2021.2.3,Win32,59.76571838,614a5c83c64e6a1364367daa,626b377229c10585ec392f89,626b3a3192155742cf028b31,,,,,,,,,,,,,,,,,,,,,,,l,1,0.6345,"[""0.126"",""0.206"",""0.496"",""0.633""]","[1,1,1,0]",0,15,15,15,1,1,0,,,0,FALSE,,,,,,,,,,,,,,,,,,,,,,,,,,,,,,
,Arath,001,2022-04-28_20h07.51.426,classification_task,2021.2.3,Win32,59.76571838,614a5c83c64e6a1364367daa,626b377229c10585ec392f89,626b3a3192155742cf028b31,,,,,,,,,,,,,,,,,,,,,,,l,1,1.0486,"[""0.089"",""0.267"",""0.597"",""0.429""]","[1,1,1,0]",0,16,16,16,1,1,1,,,0,FALSE,,,,,,,,,,,,,,,,,,,,,,,,,,,,,,
,Arath,001,2022-04-28_20h07.51.426,classification_task,2021.2.3,Win32,59.76571838,614a5c83c64e6a1364367daa,626b377229c10585ec392f89,626b3a3192155742cf028b31,,,,,,,,,,,,,,,,,,,,,,,a,0,0.9012,"[""0.537"",""0.267"",""0.597"",""0.805""]","[0,1,1,1]",0,17,17,17,1,1,1,,,0,FALSE,,,,,,,,,,,,,,,,,,,,,,,,,,,,,,
,Arath,001,2022-04-28_20h07.51.426,classification_task,2021.2.3,Win32,59.76571838,614a5c83c64e6a1364367daa,626b377229c10585ec392f89,626b3a3192155742cf028b31,,,,,,,,,,,,,,,,,,,,,,,a,1,0.8829,"[""0.304"",""0.389"",""0.554"",""0.939""]","[1,1,0,1]",0,18,18,18,1,0,0,,,0,FALSE,,,,,,,,,,,,,,,,,,,,,,,,,,,,,,
,Arath,001,2022-04-28_20h07.51.426,classification_task,2021.2.3,Win32,59.76571838,614a5c83c64e6a1364367daa,626b377229c10585ec392f89,626b3a3192155742cf028b31,,,,,,,,,,,,,,,,,,,,,,,l,1,0.8363,"[""0.126"",""0.633"",""0.496"",""0.720""]","[1,0,1,1]",0,19,19,19,1,1,0,,,0,FALSE,,,,,,,,,,,,,,,,,,,,,,,,,,,,,,
,Arath,001,2022-04-28_20h07.51.426,classification_task,2021.2.3,Win32,59.76571838,614a5c83c64e6a1364367daa,626b377229c10585ec392f89,626b3a3192155742cf028b31,,,,,,,,,,,,,,,,,,,,,,,a,0,0.5032,"[""0.089"",""0.441"",""0.597"",""0.805""]","[1,0,1,1]",0,20,20,20,1,1,1,,,0,FALSE,,,,,,,,,,,,,,,,,,,,,,,,,,,,,,
,Arath,001,2022-04-28_20h07.51.426,classification_task,2021.2.3,Win32,59.76571838,614a5c83c64e6a1364367daa,626b377229c10585ec392f89,626b3a3192155742cf028b31,,,,,,,,,,,,,,,,,,,,,,,a,1,0.7845,"[""0.170"",""0.035"",""0.868"",""0.973""]","[1,0,1,1]",0,21,21,21,1,0,1,,,0,FALSE,,,,,,,,,,,,,,,,,,,,,,,,,,,,,,
,Arath,001,2022-04-28_20h07.51.426,classification_task,2021.2.3,Win32,59.76571838,614a5c83c64e6a1364367daa,626b377229c10585ec392f89,626b3a3192155742cf028b31,,,,,,,,,,,,,,,,,,,,,,,a,1,0.6776,"[""0.304"",""0.389"",""0.763"",""0.680""]","[1,1,1,0]",0,22,22,22,1,0,0,,,0,FALSE,,,,,,,,,,,,,,,,,,,,,,,,,,,,,,
,Arath,001,2022-04-28_20h07.51.426,classification_task,2021.2.3,Win32,59.76571838,614a5c83c64e6a1364367daa,626b377229c10585ec392f89,626b3a3192155742cf028b31,,,,,,,,,,,,,,,,,,,,,,,a,0,1.8318,"[""0.089"",""0.267"",""0.035"",""0.805""]","[1,1,0,1]",0,23,23,23,1,1,1,,,0,FALSE,,,,,,,,,,,,,,,,,,,,,,,,,,,,,,
,Arath,001,2022-04-28_20h07.51.426,classification_task,2021.2.3,Win32,59.76571838,614a5c83c64e6a1364367daa,626b377229c10585ec392f89,626b3a3192155742cf028b31,,,,,,,,,,,,,,,,,,,,,,,l,1,1.0333,"[""0.126"",""0.206"",""0.035"",""0.720""]","[1,1,0,1]",0,24,24,24,1,1,0,,,0,FALSE,,,,,,,,,,,,,,,,,,,,,,,,,,,,,,
,Arath,001,2022-04-28_20h07.51.426,classification_task,2021.2.3,Win32,59.76571838,614a5c83c64e6a1364367daa,626b377229c10585ec392f89,626b3a3192155742cf028b31,,,,,,,,,,,,,,,,,,,,,,,l,1,1.6342,"[""0.126"",""0.206"",""0.496"",""0.462""]","[1,1,1,0]",0,25,25,25,1,1,0,,,0,FALSE,,,,,,,,,,,,,,,,,,,,,,,,,,,,,,
,Arath,001,2022-04-28_20h07.51.426,classification_task,2021.2.3,Win32,59.76571838,614a5c83c64e6a1364367daa,626b377229c10585ec392f89,626b3a3192155742cf028b31,,,,,,,,,,,,,,,,,,,,,,,a,1,1.1325,"[""0.170"",""0.356"",""0.035"",""0.973""]","[1,1,0,1]",0,26,26,26,1,0,1,,,0,FALSE,,,,,,,,,,,,,,,,,,,,,,,,,,,,,,
,Arath,001,2022-04-28_20h07.51.426,classification_task,2021.2.3,Win32,59.76571838,614a5c83c64e6a1364367daa,626b377229c10585ec392f89,626b3a3192155742cf028b31,,,,,,,,,,,,,,,,,,,,,,,a,1,2.6516,"[""0.170"",""0.356"",""0.868"",""0.682""]","[1,1,1,0]",0,27,27,27,1,0,1,,,0,FALSE,,,,,,,,,,,,,,,,,,,,,,,,,,,,,,
,Arath,001,2022-04-28_20h07.51.426,classification_task,2021.2.3,Win32,59.76571838,614a5c83c64e6a1364367daa,626b377229c10585ec392f89,626b3a3192155742cf028b31,,,,,,,,,,,,,,,,,,,,,,,a,1,1.6157,"[""0.304"",""0.633"",""0.763"",""0.939""]","[1,0,1,1]",0,28,28,28,1,0,0,,,0,FALSE,,,,,,,,,,,,,,,,,,,,,,,,,,,,,,
,Arath,001,2022-04-28_20h07.51.426,classification_task,2021.2.3,Win32,59.76571838,614a5c83c64e6a1364367daa,626b377229c10585ec392f89,626b3a3192155742cf028b31,,,,,,,,,,,,,,,,,,,,,,,l,1,1.1508,"[""0.423"",""0.206"",""0.496"",""0.720""]","[0,1,1,1]",0,29,29,29,1,1,0,,,0,FALSE,,,,,,,,,,,,,,,,,,,,,,,,,,,,,,
,Arath,001,2022-04-28_20h07.51.426,classification_task,2021.2.3,Win32,59.76571838,614a5c83c64e6a1364367daa,626b377229c10585ec392f89,626b3a3192155742cf028b31,,,,,,,,,,,,,,,,,,,,,,,a,1,1.2992,"[""0.680"",""0.356"",""0.868"",""0.973""]","[0,1,1,1]",0,30,30,30,1,0,1,,,0,FALSE,,,,,,,,,,,,,,,,,,,,,,,,,,,,,,
,Arath,001,2022-04-28_20h07.51.426,classification_task,2021.2.3,Win32,59.76571838,614a5c83c64e6a1364367daa,626b377229c10585ec392f89,626b3a3192155742cf028b31,,,,,,,,,,,,,,,,,,,,,,,a,1,1.0671,"[""0.660"",""0.389"",""0.763"",""0.939""]","[0,1,1,1]",0,31,31,31,1,0,0,,,0,FALSE,,,,,,,,,,,,,,,,,,,,,,,,,,,,,,
,Arath,001,2022-04-28_20h07.51.426,classification_task,2021.2.3,Win32,59.76571838,614a5c83c64e6a1364367daa,626b377229c10585ec392f89,626b3a3192155742cf028b31,,,,,,,,,,,,,,,,,,,,,,,l,0,1.9157,"[""0.170"",""0.356"",""0.429"",""0.973""]","[1,1,0,1]",0,32,32,32,1,0,1,,,0,FALSE,,,,,,,,,,,,,,,,,,,,,,,,,,,,,,
,Arath,001,2022-04-28_20h07.51.426,classification_task,2021.2.3,Win32,59.76571838,614a5c83c64e6a1364367daa,626b377229c10585ec392f89,626b3a3192155742cf028b31,,,,,,,,,,,,,,,,,,,,,,,a,1,1.4676,"[""0.170"",""0.543"",""0.868"",""0.973""]","[1,0,1,1]",0,33,33,33,1,0,1,,,0,FALSE,,,,,,,,,,,,,,,,,,,,,,,,,,,,,,
,Arath,001,2022-04-28_20h07.51.426,classification_task,2021.2.3,Win32,59.76571838,614a5c83c64e6a1364367daa,626b377229c10585ec392f89,626b3a3192155742cf028b31,,,,,,,,,,,,,,,,,,,,,,,a,0,0.9674,"[""0.089"",""0.459"",""0.597"",""0.805""]","[1,0,1,1]",0,34,34,34,1,1,1,,,0,FALSE,,,,,,,,,,,,,,,,,,,,,,,,,,,,,,
,Arath,001,2022-04-28_20h07.51.426,classification_task,2021.2.3,Win32,59.76571838,614a5c83c64e6a1364367daa,626b377229c10585ec392f89,626b3a3192155742cf028b31,,,,,,,,,,,,,,,,,,,,,,,l,1,1.6841,"[""0.443"",""0.267"",""0.597"",""0.805""]","[0,1,1,1]",0,35,35,35,1,1,1,,,0,FALSE,,,,,,,,,,,,,,,,,,,,,,,,,,,,,,
,Arath,001,2022-04-28_20h07.51.426,classification_task,2021.2.3,Win32,59.76571838,614a5c83c64e6a1364367daa,626b377229c10585ec392f89,626b3a3192155742cf028b31,,,,,,,,,,,,,,,,,,,,,,,l,1,1.4316,"[""0.126"",""0.206"",""0.496"",""0.680""]","[1,1,1,0]",0,36,36,36,1,1,0,,,0,FALSE,,,,,,,,,,,,,,,,,,,,,,,,,,,,,,
,Arath,001,2022-04-28_20h07.51.426,classification_task,2021.2.3,Win32,59.76571838,614a5c83c64e6a1364367daa,626b377229c10585ec392f89,626b3a3192155742cf028b31,,,,,,,,,,,,,,,,,,,,,,,a,1,1.5505,"[""0.304"",""0.035"",""0.763"",""0.939""]","[1,0,1,1]",0,37,37,37,1,0,0,,,0,FALSE,,,,,,,,,,,,,,,,,,,,,,,,,,,,,,
,Arath,001,2022-04-28_20h07.51.426,classification_task,2021.2.3,Win32,59.76571838,614a5c83c64e6a1364367daa,626b377229c10585ec392f89,626b3a3192155742cf028b31,,,,,,,,,,,,,,,,,,,,,,,a,1,1.6522,"[""0.304"",""0.389"",""0.557"",""0.939""]","[1,1,0,1]",0,38,38,38,1,0,0,,,0,FALSE,,,,,,,,,,,,,,,,,,,,,,,,,,,,,,
,Arath,001,2022-04-28_20h07.51.426,classification_task,2021.2.3,Win32,59.76571838,614a5c83c64e6a1364367daa,626b377229c10585ec392f89,626b3a3192155742cf028b31,,,,,,,,,,,,,,,,,,,,,,,l,1,1.0037,"[""0.126"",""0.423"",""0.496"",""0.720""]","[1,0,1,1]",0,39,39,39,1,1,0,,,0,FALSE,,,,,,,,,,,,,,,,,,,,,,,,,,,,,,
,Arath,001,2022-04-28_20h07.51.426,classification_task,2021.2.3,Win32,59.76571838,614a5c83c64e6a1364367daa,626b377229c10585ec392f89,626b3a3192155742cf028b31,,,,,,,,,,,,,,,,,,,,,,,l,1,1.1994,"[""0.089"",""0.267"",""0.597"",""0.462""]","[1,1,1,0]",0,40,40,40,1,1,1,,,0,FALSE,,,,,,,,,,,,,,,,,,,,,,,,,,,,,,
,Arath,001,2022-04-28_20h07.51.426,classification_task,2021.2.3,Win32,59.76571838,614a5c83c64e6a1364367daa,626b377229c10585ec392f89,626b3a3192155742cf028b31,,,,,,,,,,,,,,,,,,,,,,,l,1,1.0325,"[""0.126"",""0.206"",""0.554"",""0.720""]","[1,1,0,1]",0,41,41,41,1,1,0,,,0,FALSE,,,,,,,,,,,,,,,,,,,,,,,,,,,,,,
,Arath,001,2022-04-28_20h07.51.426,classification_task,2021.2.3,Win32,59.76571838,614a5c83c64e6a1364367daa,626b377229c10585ec392f89,626b3a3192155742cf028b31,,,,,,,,,,,,,,,,,,,,,,,a,0,1.3167,"[""0.089"",""0.267"",""0.423"",""0.805""]","[1,1,0,1]",0,42,42,42,1,1,1,,,0,FALSE,,,,,,,,,,,,,,,,,,,,,,,,,,,,,,
,Arath,001,2022-04-28_20h07.51.426,classification_task,2021.2.3,Win32,59.76571838,614a5c83c64e6a1364367daa,626b377229c10585ec392f89,626b3a3192155742cf028b31,,,,,,,,,,,,,,,,,,,,,,,l,1,1.3662,"[""0.680"",""0.206"",""0.496"",""0.720""]","[0,1,1,1]",0,43,43,43,1,1,0,,,0,FALSE,,,,,,,,,,,,,,,,,,,,,,,,,,,,,,
,Arath,001,2022-04-28_20h07.51.426,classification_task,2021.2.3,Win32,59.76571838,614a5c83c64e6a1364367daa,626b377229c10585ec392f89,626b3a3192155742cf028b31,,,,,,,,,,,,,,,,,,,,,,,a,1,0.9813,"[""0.441"",""0.389"",""0.763"",""0.939""]","[0,1,1,1]",0,44,44,44,1,0,0,,,0,FALSE,,,,,,,,,,,,,,,,,,,,,,,,,,,,,,
,Arath,001,2022-04-28_20h07.51.426,classification_task,2021.2.3,Win32,59.76571838,614a5c83c64e6a1364367daa,626b377229c10585ec392f89,626b3a3192155742cf028b31,,,,,,,,,,,,,,,,,,,,,,,a,1,1.2344,"[""0.304"",""0.389"",""0.763"",""0.423""]","[1,1,1,0]",0,45,45,45,1,0,0,,,0,FALSE,,,,,,,,,,,,,,,,,,,,,,,,,,,,,,
,Arath,001,2022-04-28_20h07.51.426,classification_task,2021.2.3,Win32,59.76571838,614a5c83c64e6a1364367daa,626b377229c10585ec392f89,626b3a3192155742cf028b31,,,,,,,,,,,,,,,,,,,,,,,a,1,1.5648,"[""0.423"",""0.356"",""0.868"",""0.973""]","[0,1,1,1]",0,46,46,46,1,0,1,,,0,FALSE,,,,,,,,,,,,,,,,,,,,,,,,,,,,,,
,Arath,001,2022-04-28_20h07.51.426,classification_task,2021.2.3,Win32,59.76571838,614a5c83c64e6a1364367daa,626b377229c10585ec392f89,626b3a3192155742cf028b31,,,,,,,,,,,,,,,,,,,,,,,a,1,1.5178,"[""0.170"",""0.356"",""0.868"",""0.429""]","[1,1,1,0]",0,47,47,47,1,0,1,,,0,FALSE,,,,,,,,,,,,,,,,,,,,,,,,,,,,,,
,Arath,001,2022-04-28_20h07.51.426,classification_task,2021.2.3,Win32,59.76571838,614a5c83c64e6a1364367daa,626b377229c10585ec392f89,626b3a3192155742cf028b31,,,,,,,,,,,,,,,,,,,,,,,l,0,1.8346,"[""0.170"",""0.537"",""0.868"",""0.973""]","[1,0,1,1]",0,48,48,48,1,0,1,,,0,FALSE,,,,,,,,,,,,,,,,,,,,,,,,,,,,,,
,Arath,001,2022-04-28_20h07.51.426,classification_task,2021.2.3,Win32,59.76571838,614a5c83c64e6a1364367daa,626b377229c10585ec392f89,626b3a3192155742cf028b31,,,,,,,,,,,,,,,,,,,,,,,l,0,1.7343,"[""0.170"",""0.356"",""0.423"",""0.973""]","[1,1,0,1]",0,49,49,49,1,0,1,,,0,FALSE,,,,,,,,,,,,,,,,,,,,,,,,,,,,,,
,Arath,001,2022-04-28_20h07.51.426,classification_task,2021.2.3,Win32,59.76571838,614a5c83c64e6a1364367daa,626b377229c10585ec392f89,626b3a3192155742cf028b31,,,,,,,,,,,,,,,,,,,,,,,a,1,0.7665,"[""0.304"",""0.543"",""0.763"",""0.939""]","[1,0,1,1]",0,50,50,50,1,0,0,,,0,FALSE,,,,,,,,,,,,,,,,,,,,,,,,,,,,,,
,Arath,001,2022-04-28_20h07.51.426,classification_task,2021.2.3,Win32,59.76571838,614a5c83c64e6a1364367daa,626b377229c10585ec392f89,626b3a3192155742cf028b31,,,,,,,,,,,,,,,,,,,,,,,l,1,0.7341,"[""0.126"",""0.206"",""0.496"",""0.660""]","[1,1,1,0]",0,51,51,51,1,1,0,,,0,FALSE,,,,,,,,,,,,,,,,,,,,,,,,,,,,,,
,Arath,001,2022-04-28_20h07.51.426,classification_task,2021.2.3,Win32,59.76571838,614a5c83c64e6a1364367daa,626b377229c10585ec392f89,626b3a3192155742cf028b31,,,,,,,,,,,,,,,,,,,,,,,a,0,1.9831,"[""0.089"",""0.267"",""0.597"",""0.035""]","[1,1,1,0]",0,52,52,52,1,1,1,,,0,FALSE,,,,,,,,,,,,,,,,,,,,,,,,,,,,,,
,Arath,001,2022-04-28_20h07.51.426,classification_task,2021.2.3,Win32,59.76571838,614a5c83c64e6a1364367daa,626b377229c10585ec392f89,626b3a3192155742cf028b31,,,,,,,,,,,,,,,,,,,,,,,a,1,0.9823,"[""0.557"",""0.389"",""0.763"",""0.939""]","[0,1,1,1]",0,53,53,53,1,0,0,,,0,FALSE,,,,,,,,,,,,,,,,,,,,,,,,,,,,,,
,Arath,001,2022-04-28_20h07.51.426,classification_task,2021.2.3,Win32,59.76571838,614a5c83c64e6a1364367daa,626b377229c10585ec392f89,626b3a3192155742cf028b31,,,,,,,,,,,,,,,,,,,,,,,l,0,1.9,"[""0.170"",""0.356"",""0.868"",""0.680""]","[1,1,1,0]",0,54,54,54,1,0,1,,,0,FALSE,,,,,,,,,,,,,,,,,,,,,,,,,,,,,,
,Arath,001,2022-04-28_20h07.51.426,classification_task,2021.2.3,Win32,59.76571838,614a5c83c64e6a1364367daa,626b377229c10585ec392f89,626b3a3192155742cf028b31,,,,,,,,,,,,,,,,,,,,,,,l,1,0.9202,"[""0.126"",""0.206"",""0.047"",""0.720""]","[1,1,0,1]",0,55,55,55,1,1,0,,,0,FALSE,,,,,,,,,,,,,,,,,,,,,,,,,,,,,,
,Arath,001,2022-04-28_20h07.51.426,classification_task,2021.2.3,Win32,59.76571838,614a5c83c64e6a1364367daa,626b377229c10585ec392f89,626b3a3192155742cf028b31,,,,,,,,,,,,,,,,,,,,,,,l,1,1.0949,"[""0.126"",""0.660"",""0.496"",""0.720""]","[1,0,1,1]",0,56,56,56,1,1,0,,,0,FALSE,,,,,,,,,,,,,,,,,,,,,,,,,,,,,,
,Arath,001,2022-04-28_20h07.51.426,classification_task,2021.2.3,Win32,59.76571838,614a5c83c64e6a1364367daa,626b377229c10585ec392f89,626b3a3192155742cf028b31,,,,,,,,,,,,,,,,,,,,,,,a,0,1.5339,"[""0.660"",""0.267"",""0.597"",""0.805""]","[0,1,1,1]",0,57,57,57,1,1,1,,,0,FALSE,,,,,,,,,,,,,,,,,,,,,,,,,,,,,,
,Arath,001,2022-04-28_20h07.51.426,classification_task,2021.2.3,Win32,59.76571838,614a5c83c64e6a1364367daa,626b377229c10585ec392f89,626b3a3192155742cf028b31,,,,,,,,,,,,,,,,,,,,,,,a,0,1.1849,"[""0.089"",""0.682"",""0.597"",""0.805""]","[1,0,1,1]",0,58,58,58,1,1,1,,,0,FALSE,,,,,,,,,,,,,,,,,,,,,,,,,,,,,,
,Arath,001,2022-04-28_20h07.51.426,classification_task,2021.2.3,Win32,59.76571838,614a5c83c64e6a1364367daa,626b377229c10585ec392f89,626b3a3192155742cf028b31,,,,,,,,,,,,,,,,,,,,,,,a,1,0.7323,"[""0.304"",""0.389"",""0.763"",""0.682""]","[1,1,1,0]",0,59,59,59,1,0,0,,,0,FALSE,,,,,,,,,,,,,,,,,,,,,,,,,,,,,,
,Arath,001,2022-04-28_20h07.51.426,classification_task,2021.2.3,Win32,59.76571838,614a5c83c64e6a1364367daa,626b377229c10585ec392f89,626b3a3192155742cf028b31,,,,,,,,,,,,,,,,,,,,,,,a,1,0.9172,"[""0.304"",""0.389"",""0.047"",""0.939""]","[1,1,0,1]",0,60,60,60,1,0,0,,,0,FALSE,,,,,,,,,,,,,,,,,,,,,,,,,,,,,,
,Arath,001,2022-04-28_20h07.51.426,classification_task,2021.2.3,Win32,59.76571838,614a5c83c64e6a1364367daa,626b377229c10585ec392f89,626b3a3192155742cf028b31,,,,,,,,,,,,,,,,,,,,,,,l,1,0.8671,"[""0.554"",""0.206"",""0.496"",""0.720""]","[0,1,1,1]",0,61,61,61,1,1,0,,,0,FALSE,,,,,,,,,,,,,,,,,,,,,,,,,,,,,,
,Arath,001,2022-04-28_20h07.51.426,classification_task,2021.2.3,Win32,59.76571838,614a5c83c64e6a1364367daa,626b377229c10585ec392f89,626b3a3192155742cf028b31,,,,,,,,,,,,,,,,,,,,,,,a,1,1.6821,"[""0.423"",""0.356"",""0.868"",""0.973""]","[0,1,1,1]",0,62,62,62,1,0,1,,,0,FALSE,,,,,,,,,,,,,,,,,,,,,,,,,,,,,,
,Arath,001,2022-04-28_20h07.51.426,classification_task,2021.2.3,Win32,59.76571838,614a5c83c64e6a1364367daa,626b377229c10585ec392f89,626b3a3192155742cf028b31,,,,,,,,,,,,,,,,,,,,,,,a,0,1.1844,"[""0.089"",""0.267"",""0.462"",""0.805""]","[1,1,0,1]",0,63,63,63,1,1,1,,,0,FALSE,,,,,,,,,,,,,,,,,,,,,,,,,,,,,,
,Arath,001,2022-04-28_20h07.51.426,classification_task,2021.2.3,Win32,59.76571838,614a5c83c64e6a1364367daa,626b377229c10585ec392f89,626b3a3192155742cf028b31,,,,,,,,,,,,,,,,,,,,,,,,,,,,,,,,,,,,,,,0, ,,0,3.389428535,213.4942,0,1,1,1,1,2,2,,,,,,,,,,,,,,,,,
,Arath,001,2022-04-28_20h07.51.426,classification_task,2021.2.3,Win32,59.76571838,614a5c83c64e6a1364367daa,626b377229c10585ec392f89,626b3a3192155742cf028b31,,,,,,,,,,,,,,,,,,,,,,,,,,,,,,,,,,,,,,,1,  ,,0,10,211.2276,0,1,1,1,1,2,2,,,,,,,,,,,,,,,,,
,Arath,001,2022-04-28_20h07.51.426,classification_task,2021.2.3,Win32,59.76571838,614a5c83c64e6a1364367daa,626b377229c10585ec392f89,626b3a3192155742cf028b31,,,,,,,,,,,,,,,,,,,,,,,,,,,,,,,,,,,,,,,2,  ,,0,9.366305256,220.9614,0,1,1,1,1,2,2,,,,,,,,,,,,,,,,,
,Arath,001,2022-04-28_20h07.51.426,classification_task,2021.2.3,Win32,59.76571838,614a5c83c64e6a1364367daa,626b377229c10585ec392f89,626b3a3192155742cf028b31,,,,,,,,,,,,,,,,,,,,,,,,,,,,,,,,,,,,,,,,,,,,,0,1,1,1,1,,2,,,,,,,,,,,,,,,,,
,Arath,001,2022-04-28_20h07.51.426,classification_task,2021.2.3,Win32,59.76571838,614a5c83c64e6a1364367daa,626b377229c10585ec392f89,626b3a3192155742cf028b31,,,,,,,,,,,,,,,,,,,,,space,14.7407,a,1,3.6676,"[""0.304"",""0.459"",""0.763"",""0.939""]","[1,0,1,1]",0,0,0,0,1,0,0,,,0,FALSE,,,,,,,,,,,,,,,,,,,,,,,,,,,,,,
,Arath,001,2022-04-28_20h07.51.426,classification_task,2021.2.3,Win32,59.76571838,614a5c83c64e6a1364367daa,626b377229c10585ec392f89,626b3a3192155742cf028b31,,,,,,,,,,,,,,,,,,,,,,,l,1,2.3013,"[""0.660"",""0.267"",""0.597"",""0.805""]","[0,1,1,1]",0,1,1,1,1,1,1,,,0,FALSE,,,,,,,,,,,,,,,,,,,,,,,,,,,,,,
,Arath,001,2022-04-28_20h07.51.426,classification_task,2021.2.3,Win32,59.76571838,614a5c83c64e6a1364367daa,626b377229c10585ec392f89,626b3a3192155742cf028b31,,,,,,,,,,,,,,,,,,,,,,,a,1,1.485,"[""0.170"",""0.423"",""0.868"",""0.973""]","[1,0,1,1]",0,2,2,2,1,0,1,,,0,FALSE,,,,,,,,,,,,,,,,,,,,,,,,,,,,,,
,Arath,001,2022-04-28_20h07.51.426,classification_task,2021.2.3,Win32,59.76571838,614a5c83c64e6a1364367daa,626b377229c10585ec392f89,626b3a3192155742cf028b31,,,,,,,,,,,,,,,,,,,,,,,a,0,1.6674,"[""0.089"",""0.423"",""0.597"",""0.805""]","[1,0,1,1]",0,3,3,3,1,1,1,,,0,FALSE,,,,,,,,,,,,,,,,,,,,,,,,,,,,,,
,Arath,001,2022-04-28_20h07.51.426,classification_task,2021.2.3,Win32,59.76571838,614a5c83c64e6a1364367daa,626b377229c10585ec392f89,626b3a3192155742cf028b31,,,,,,,,,,,,,,,,,,,,,,,a,1,1.7836,"[""0.554"",""0.389"",""0.763"",""0.939""]","[0,1,1,1]",0,4,4,4,1,0,0,,,0,FALSE,,,,,,,,,,,,,,,,,,,,,,,,,,,,,,
,Arath,001,2022-04-28_20h07.51.426,classification_task,2021.2.3,Win32,59.76571838,614a5c83c64e6a1364367daa,626b377229c10585ec392f89,626b3a3192155742cf028b31,,,,,,,,,,,,,,,,,,,,,,,a,1,1.7839,"[""0.170"",""0.356"",""0.429"",""0.973""]","[1,1,0,1]",0,5,5,5,1,0,1,,,0,FALSE,,,,,,,,,,,,,,,,,,,,,,,,,,,,,,
,Arath,001,2022-04-28_20h07.51.426,classification_task,2021.2.3,Win32,59.76571838,614a5c83c64e6a1364367daa,626b377229c10585ec392f89,626b3a3192155742cf028b31,,,,,,,,,,,,,,,,,,,,,,,l,1,2.2511,"[""0.089"",""0.267"",""0.047"",""0.805""]","[1,1,0,1]",0,6,6,6,1,1,1,,,0,FALSE,,,,,,,,,,,,,,,,,,,,,,,,,,,,,,
,Arath,001,2022-04-28_20h07.51.426,classification_task,2021.2.3,Win32,59.76571838,614a5c83c64e6a1364367daa,626b377229c10585ec392f89,626b3a3192155742cf028b31,,,,,,,,,,,,,,,,,,,,,,,l,1,1.351,"[""0.126"",""0.554"",""0.496"",""0.720""]","[1,0,1,1]",0,7,7,7,1,1,0,,,0,FALSE,,,,,,,,,,,,,,,,,,,,,,,,,,,,,,
,Arath,001,2022-04-28_20h07.51.426,classification_task,2021.2.3,Win32,59.76571838,614a5c83c64e6a1364367daa,626b377229c10585ec392f89,626b3a3192155742cf028b31,,,,,,,,,,,,,,,,,,,,,,,a,1,1.302,"[""0.170"",""0.356"",""0.868"",""0.035""]","[1,1,1,0]",0,8,8,8,1,0,1,,,0,FALSE,,,,,,,,,,,,,,,,,,,,,,,,,,,,,,
,Arath,001,2022-04-28_20h07.51.426,classification_task,2021.2.3,Win32,59.76571838,614a5c83c64e6a1364367daa,626b377229c10585ec392f89,626b3a3192155742cf028b31,,,,,,,,,,,,,,,,,,,,,,,l,1,2.2005,"[""0.089"",""0.267"",""0.597"",""0.462""]","[1,1,1,0]",0,9,9,9,1,1,1,,,0,FALSE,,,,,,,,,,,,,,,,,,,,,,,,,,,,,,
,Arath,001,2022-04-28_20h07.51.426,classification_task,2021.2.3,Win32,59.76571838,614a5c83c64e6a1364367daa,626b377229c10585ec392f89,626b3a3192155742cf028b31,,,,,,,,,,,,,,,,,,,,,,,l,1,1.3513,"[""0.126"",""0.206"",""0.496"",""0.035""]","[1,1,1,0]",0,10,10,10,1,1,0,,,0,FALSE,,,,,,,,,,,,,,,,,,,,,,,,,,,,,,
,Arath,001,2022-04-28_20h07.51.426,classification_task,2021.2.3,Win32,59.76571838,614a5c83c64e6a1364367daa,626b377229c10585ec392f89,626b3a3192155742cf028b31,,,,,,,,,,,,,,,,,,,,,,,a,0,1.2345,"[""0.126"",""0.206"",""0.537"",""0.720""]","[1,1,0,1]",0,11,11,11,1,1,0,,,0,FALSE,,,,,,,,,,,,,,,,,,,,,,,,,,,,,,
,Arath,001,2022-04-28_20h07.51.426,classification_task,2021.2.3,Win32,59.76571838,614a5c83c64e6a1364367daa,626b377229c10585ec392f89,626b3a3192155742cf028b31,,,,,,,,,,,,,,,,,,,,,,,a,1,0.7678,"[""0.462"",""0.356"",""0.868"",""0.973""]","[0,1,1,1]",0,12,12,12,1,0,1,,,0,FALSE,,,,,,,,,,,,,,,,,,,,,,,,,,,,,,
,Arath,001,2022-04-28_20h07.51.426,classification_task,2021.2.3,Win32,59.76571838,614a5c83c64e6a1364367daa,626b377229c10585ec392f89,626b3a3192155742cf028b31,,,,,,,,,,,,,,,,,,,,,,,l,0,0.9346,"[""0.304"",""0.389"",""0.763"",""0.660""]","[1,1,1,0]",0,13,13,13,1,0,0,,,0,FALSE,,,,,,,,,,,,,,,,,,,,,,,,,,,,,,
,Arath,001,2022-04-28_20h07.51.426,classification_task,2021.2.3,Win32,59.76571838,614a5c83c64e6a1364367daa,626b377229c10585ec392f89,626b3a3192155742cf028b31,,,,,,,,,,,,,,,,,,,,,,,l,1,1.0177,"[""0.537"",""0.206"",""0.496"",""0.720""]","[0,1,1,1]",0,14,14,14,1,1,0,,,0,FALSE,,,,,,,,,,,,,,,,,,,,,,,,,,,,,,
,Arath,001,2022-04-28_20h07.51.426,classification_task,2021.2.3,Win32,59.76571838,614a5c83c64e6a1364367daa,626b377229c10585ec392f89,626b3a3192155742cf028b31,,,,,,,,,,,,,,,,,,,,,,,a,1,1.8173,"[""0.304"",""0.389"",""0.682"",""0.939""]","[1,1,0,1]",0,15,15,15,1,0,0,,,0,FALSE,,,,,,,,,,,,,,,,,,,,,,,,,,,,,,
,Arath,001,2022-04-28_20h07.51.426,classification_task,2021.2.3,Win32,59.76571838,614a5c83c64e6a1364367daa,626b377229c10585ec392f89,626b3a3192155742cf028b31,,,,,,,,,,,,,,,,,,,,,,,l,1,2.1348,"[""0.429"",""0.267"",""0.597"",""0.805""]","[0,1,1,1]",0,16,16,16,1,1,1,,,0,FALSE,,,,,,,,,,,,,,,,,,,,,,,,,,,,,,
,Arath,001,2022-04-28_20h07.51.426,classification_task,2021.2.3,Win32,59.76571838,614a5c83c64e6a1364367daa,626b377229c10585ec392f89,626b3a3192155742cf028b31,,,,,,,,,,,,,,,,,,,,,,,a,0,1.0013,"[""0.089"",""0.267"",""0.543"",""0.805""]","[1,1,0,1]",0,17,17,17,1,1,1,,,0,FALSE,,,,,,,,,,,,,,,,,,,,,,,,,,,,,,
,Arath,001,2022-04-28_20h07.51.426,classification_task,2021.2.3,Win32,59.76571838,614a5c83c64e6a1364367daa,626b377229c10585ec392f89,626b3a3192155742cf028b31,,,,,,,,,,,,,,,,,,,,,,,a,1,1.0676,"[""0.170"",""0.356"",""0.868"",""0.429""]","[1,1,1,0]",0,18,18,18,1,0,1,,,0,FALSE,,,,,,,,,,,,,,,,,,,,,,,,,,,,,,
,Arath,001,2022-04-28_20h07.51.426,classification_task,2021.2.3,Win32,59.76571838,614a5c83c64e6a1364367daa,626b377229c10585ec392f89,626b3a3192155742cf028b31,,,,,,,,,,,,,,,,,,,,,,,a,0,2.0519,"[""0.126"",""0.441"",""0.496"",""0.720""]","[1,0,1,1]",0,19,19,19,1,1,0,,,0,FALSE,,,,,,,,,,,,,,,,,,,,,,,,,,,,,,
,Arath,001,2022-04-28_20h07.51.426,classification_task,2021.2.3,Win32,59.76571838,614a5c83c64e6a1364367daa,626b377229c10585ec392f89,626b3a3192155742cf028b31,,,,,,,,,,,,,,,,,,,,,,,l,1,1.2878,"[""0.459"",""0.206"",""0.496"",""0.720""]","[0,1,1,1]",0,20,20,20,1,1,0,,,0,FALSE,,,,,,,,,,,,,,,,,,,,,,,,,,,,,,
,Arath,001,2022-04-28_20h07.51.426,classification_task,2021.2.3,Win32,59.76571838,614a5c83c64e6a1364367daa,626b377229c10585ec392f89,626b3a3192155742cf028b31,,,,,,,,,,,,,,,,,,,,,,,a,1,2.4688,"[""0.170"",""0.047"",""0.868"",""0.973""]","[1,0,1,1]",0,21,21,21,1,0,1,,,0,FALSE,,,,,,,,,,,,,,,,,,,,,,,,,,,,,,
,Arath,001,2022-04-28_20h07.51.426,classification_task,2021.2.3,Win32,59.76571838,614a5c83c64e6a1364367daa,626b377229c10585ec392f89,626b3a3192155742cf028b31,,,,,,,,,,,,,,,,,,,,,,,a,1,1.7015,"[""0.304"",""0.389"",""0.682"",""0.939""]","[1,1,0,1]",0,22,22,22,1,0,0,,,0,FALSE,,,,,,,,,,,,,,,,,,,,,,,,,,,,,,
,Arath,001,2022-04-28_20h07.51.426,classification_task,2021.2.3,Win32,59.76571838,614a5c83c64e6a1364367daa,626b377229c10585ec392f89,626b3a3192155742cf028b31,,,,,,,,,,,,,,,,,,,,,,,a,1,2.1502,"[""0.633"",""0.389"",""0.763"",""0.939""]","[0,1,1,1]",0,23,23,23,1,0,0,,,0,FALSE,,,,,,,,,,,,,,,,,,,,,,,,,,,,,,
,Arath,001,2022-04-28_20h07.51.426,classification_task,2021.2.3,Win32,59.76571838,614a5c83c64e6a1364367daa,626b377229c10585ec392f89,626b3a3192155742cf028b31,,,,,,,,,,,,,,,,,,,,,,,l,0,1.3846,"[""0.170"",""0.356"",""0.537"",""0.973""]","[1,1,0,1]",0,24,24,24,1,0,1,,,0,FALSE,,,,,,,,,,,,,,,,,,,,,,,,,,,,,,
,Arath,001,2022-04-28_20h07.51.426,classification_task,2021.2.3,Win32,59.76571838,614a5c83c64e6a1364367daa,626b377229c10585ec392f89,626b3a3192155742cf028b31,,,,,,,,,,,,,,,,,,,,,,,a,0,2.1839,"[""0.089"",""0.267"",""0.597"",""0.423""]","[1,1,1,0]",0,25,25,25,1,1,1,,,0,FALSE,,,,,,,,,,,,,,,,,,,,,,,,,,,,,,
,Arath,001,2022-04-28_20h07.51.426,classification_task,2021.2.3,Win32,59.76571838,614a5c83c64e6a1364367daa,626b377229c10585ec392f89,626b3a3192155742cf028b31,,,,,,,,,,,,,,,,,,,,,,,a,1,1.1491,"[""0.304"",""0.441"",""0.763"",""0.939""]","[1,0,1,1]",0,26,26,26,1,0,0,,,0,FALSE,,,,,,,,,,,,,,,,,,,,,,,,,,,,,,
,Arath,001,2022-04-28_20h07.51.426,classification_task,2021.2.3,Win32,59.76571838,614a5c83c64e6a1364367daa,626b377229c10585ec392f89,626b3a3192155742cf028b31,,,,,,,,,,,,,,,,,,,,,,,l,1,1.3011,"[""0.089"",""0.459"",""0.597"",""0.805""]","[1,0,1,1]",0,27,27,27,1,1,1,,,0,FALSE,,,,,,,,,,,,,,,,,,,,,,,,,,,,,,
,Arath,001,2022-04-28_20h07.51.426,classification_task,2021.2.3,Win32,59.76571838,614a5c83c64e6a1364367daa,626b377229c10585ec392f89,626b3a3192155742cf028b31,,,,,,,,,,,,,,,,,,,,,,,l,0,1.5347,"[""0.304"",""0.389"",""0.763"",""0.443""]","[1,1,1,0]",0,28,28,28,1,0,0,,,0,FALSE,,,,,,,,,,,,,,,,,,,,,,,,,,,,,,
,Arath,001,2022-04-28_20h07.51.426,classification_task,2021.2.3,Win32,59.76571838,614a5c83c64e6a1364367daa,626b377229c10585ec392f89,626b3a3192155742cf028b31,,,,,,,,,,,,,,,,,,,,,,,l,1,1.751,"[""0.126"",""0.206"",""0.543"",""0.720""]","[1,1,0,1]",0,29,29,29,1,1,0,,,0,FALSE,,,,,,,,,,,,,,,,,,,,,,,,,,,,,,
,Arath,001,2022-04-28_20h07.51.426,classification_task,2021.2.3,Win32,59.76571838,614a5c83c64e6a1364367daa,626b377229c10585ec392f89,626b3a3192155742cf028b31,,,,,,,,,,,,,,,,,,,,,,,a,1,1.4174,"[""0.557"",""0.356"",""0.868"",""0.973""]","[0,1,1,1]",0,30,30,30,1,0,1,,,0,FALSE,,,,,,,,,,,,,,,,,,,,,,,,,,,,,,
,Arath,001,2022-04-28_20h07.51.426,classification_task,2021.2.3,Win32,59.76571838,614a5c83c64e6a1364367daa,626b377229c10585ec392f89,626b3a3192155742cf028b31,,,,,,,,,,,,,,,,,,,,,,,l,1,1.2008,"[""0.126"",""0.206"",""0.496"",""0.543""]","[1,1,1,0]",0,31,31,31,1,1,0,,,0,FALSE,,,,,,,,,,,,,,,,,,,,,,,,,,,,,,
,Arath,001,2022-04-28_20h07.51.426,classification_task,2021.2.3,Win32,59.76571838,614a5c83c64e6a1364367daa,626b377229c10585ec392f89,626b3a3192155742cf028b31,,,,,,,,,,,,,,,,,,,,,,,l,0,1.5235,"[""0.170"",""0.356"",""0.868"",""0.443""]","[1,1,1,0]",0,32,32,32,1,0,1,,,0,FALSE,,,,,,,,,,,,,,,,,,,,,,,,,,,,,,
,Arath,001,2022-04-28_20h07.51.426,classification_task,2021.2.3,Win32,59.76571838,614a5c83c64e6a1364367daa,626b377229c10585ec392f89,626b3a3192155742cf028b31,,,,,,,,,,,,,,,,,,,,,,,a,1,2.0674,"[""0.304"",""0.389"",""0.554"",""0.939""]","[1,1,0,1]",0,33,33,33,1,0,0,,,0,FALSE,,,,,,,,,,,,,,,,,,,,,,,,,,,,,,
,Arath,001,2022-04-28_20h07.51.426,classification_task,2021.2.3,Win32,59.76571838,614a5c83c64e6a1364367daa,626b377229c10585ec392f89,626b3a3192155742cf028b31,,,,,,,,,,,,,,,,,,,,,,,a,0,2.4275,"[""0.126"",""0.206"",""0.035"",""0.720""]","[1,1,0,1]",0,34,34,34,1,1,0,,,0,FALSE,,,,,,,,,,,,,,,,,,,,,,,,,,,,,,
,Arath,001,2022-04-28_20h07.51.426,classification_task,2021.2.3,Win32,59.76571838,614a5c83c64e6a1364367daa,626b377229c10585ec392f89,626b3a3192155742cf028b31,,,,,,,,,,,,,,,,,,,,,,,a,1,1.3176,"[""0.170"",""0.356"",""0.459"",""0.973""]","[1,1,0,1]",0,35,35,35,1,0,1,,,0,FALSE,,,,,,,,,,,,,,,,,,,,,,,,,,,,,,
,Arath,001,2022-04-28_20h07.51.426,classification_task,2021.2.3,Win32,59.76571838,614a5c83c64e6a1364367daa,626b377229c10585ec392f89,626b3a3192155742cf028b31,,,,,,,,,,,,,,,,,,,,,,,l,1,1.0019,"[""0.554"",""0.267"",""0.597"",""0.805""]","[0,1,1,1]",0,36,36,36,1,1,1,,,0,FALSE,,,,,,,,,,,,,,,,,,,,,,,,,,,,,,
,Arath,001,2022-04-28_20h07.51.426,classification_task,2021.2.3,Win32,59.76571838,614a5c83c64e6a1364367daa,626b377229c10585ec392f89,626b3a3192155742cf028b31,,,,,,,,,,,,,,,,,,,,,,,a,1,1.8009,"[""0.304"",""0.660"",""0.763"",""0.939""]","[1,0,1,1]",0,37,37,37,1,0,0,,,0,FALSE,,,,,,,,,,,,,,,,,,,,,,,,,,,,,,
,Arath,001,2022-04-28_20h07.51.426,classification_task,2021.2.3,Win32,59.76571838,614a5c83c64e6a1364367daa,626b377229c10585ec392f89,626b3a3192155742cf028b31,,,,,,,,,,,,,,,,,,,,,,,l,1,1.6483,"[""0.089"",""0.267"",""0.462"",""0.805""]","[1,1,0,1]",0,38,38,38,1,1,1,,,0,FALSE,,,,,,,,,,,,,,,,,,,,,,,,,,,,,,
,Arath,001,2022-04-28_20h07.51.426,classification_task,2021.2.3,Win32,59.76571838,614a5c83c64e6a1364367daa,626b377229c10585ec392f89,626b3a3192155742cf028b31,,,,,,,,,,,,,,,,,,,,,,,l,0,1.1031,"[""0.441"",""0.389"",""0.763"",""0.939""]","[0,1,1,1]",0,39,39,39,1,0,0,,,0,FALSE,,,,,,,,,,,,,,,,,,,,,,,,,,,,,,
,Arath,001,2022-04-28_20h07.51.426,classification_task,2021.2.3,Win32,59.76571838,614a5c83c64e6a1364367daa,626b377229c10585ec392f89,626b3a3192155742cf028b31,,,,,,,,,,,,,,,,,,,,,,,a,1,1.302,"[""0.660"",""0.356"",""0.868"",""0.973""]","[0,1,1,1]",0,40,40,40,1,0,1,,,0,FALSE,,,,,,,,,,,,,,,,,,,,,,,,,,,,,,
,Arath,001,2022-04-28_20h07.51.426,classification_task,2021.2.3,Win32,59.76571838,614a5c83c64e6a1364367daa,626b377229c10585ec392f89,626b3a3192155742cf028b31,,,,,,,,,,,,,,,,,,,,,,,l,1,2.4515,"[""0.089"",""0.047"",""0.597"",""0.805""]","[1,0,1,1]",0,41,41,41,1,1,1,,,0,FALSE,,,,,,,,,,,,,,,,,,,,,,,,,,,,,,
,Arath,001,2022-04-28_20h07.51.426,classification_task,2021.2.3,Win32,59.76571838,614a5c83c64e6a1364367daa,626b377229c10585ec392f89,626b3a3192155742cf028b31,,,,,,,,,,,,,,,,,,,,,,,l,1,2.2858,"[""0.126"",""0.554"",""0.496"",""0.720""]","[1,0,1,1]",0,42,42,42,1,1,0,,,0,FALSE,,,,,,,,,,,,,,,,,,,,,,,,,,,,,,
,Arath,001,2022-04-28_20h07.51.426,classification_task,2021.2.3,Win32,59.76571838,614a5c83c64e6a1364367daa,626b377229c10585ec392f89,626b3a3192155742cf028b31,,,,,,,,,,,,,,,,,,,,,,,a,1,1.3413,"[""0.170"",""0.660"",""0.868"",""0.973""]","[1,0,1,1]",0,43,43,43,1,0,1,,,0,FALSE,,,,,,,,,,,,,,,,,,,,,,,,,,,,,,
,Arath,001,2022-04-28_20h07.51.426,classification_task,2021.2.3,Win32,59.76571838,614a5c83c64e6a1364367daa,626b377229c10585ec392f89,626b3a3192155742cf028b31,,,,,,,,,,,,,,,,,,,,,,,l,1,2.5716,"[""0.126"",""0.206"",""0.496"",""0.423""]","[1,1,1,0]",0,44,44,44,1,1,0,,,0,FALSE,,,,,,,,,,,,,,,,,,,,,,,,,,,,,,
,Arath,001,2022-04-28_20h07.51.426,classification_task,2021.2.3,Win32,59.76571838,614a5c83c64e6a1364367daa,626b377229c10585ec392f89,626b3a3192155742cf028b31,,,,,,,,,,,,,,,,,,,,,,,l,1,1.062,"[""0.443"",""0.206"",""0.496"",""0.720""]","[0,1,1,1]",0,45,45,45,1,1,0,,,0,FALSE,,,,,,,,,,,,,,,,,,,,,,,,,,,,,,
,Arath,001,2022-04-28_20h07.51.426,classification_task,2021.2.3,Win32,59.76571838,614a5c83c64e6a1364367daa,626b377229c10585ec392f89,626b3a3192155742cf028b31,,,,,,,,,,,,,,,,,,,,,,,a,0,1.1549,"[""0.089"",""0.267"",""0.597"",""0.035""]","[1,1,1,0]",0,46,46,46,1,1,1,,,0,FALSE,,,,,,,,,,,,,,,,,,,,,,,,,,,,,,
,Arath,001,2022-04-28_20h07.51.426,classification_task,2021.2.3,Win32,59.76571838,614a5c83c64e6a1364367daa,626b377229c10585ec392f89,626b3a3192155742cf028b31,,,,,,,,,,,,,,,,,,,,,,,l,0,0.9585,"[""0.304"",""0.389"",""0.763"",""0.682""]","[1,1,1,0]",0,47,47,47,1,0,0,,,0,FALSE,,,,,,,,,,,,,,,,,,,,,,,,,,,,,,
,Arath,001,2022-04-28_20h07.51.426,classification_task,2021.2.3,Win32,59.76571838,614a5c83c64e6a1364367daa,626b377229c10585ec392f89,626b3a3192155742cf028b31,,,,,,,,,,,,,,,,,,,,,,,a,0,1.301,"[""0.089"",""0.267"",""0.429"",""0.805""]","[1,1,0,1]",0,48,48,48,1,1,1,,,0,FALSE,,,,,,,,,,,,,,,,,,,,,,,,,,,,,,
,Arath,001,2022-04-28_20h07.51.426,classification_task,2021.2.3,Win32,59.76571838,614a5c83c64e6a1364367daa,626b377229c10585ec392f89,626b3a3192155742cf028b31,,,,,,,,,,,,,,,,,,,,,,,l,1,1.0036,"[""0.126"",""0.206"",""0.633"",""0.720""]","[1,1,0,1]",0,49,49,49,1,1,0,,,0,FALSE,,,,,,,,,,,,,,,,,,,,,,,,,,,,,,
,Arath,001,2022-04-28_20h07.51.426,classification_task,2021.2.3,Win32,59.76571838,614a5c83c64e6a1364367daa,626b377229c10585ec392f89,626b3a3192155742cf028b31,,,,,,,,,,,,,,,,,,,,,,,l,1,1.5011,"[""0.423"",""0.267"",""0.597"",""0.805""]","[0,1,1,1]",0,50,50,50,1,1,1,,,0,FALSE,,,,,,,,,,,,,,,,,,,,,,,,,,,,,,
,Arath,001,2022-04-28_20h07.51.426,classification_task,2021.2.3,Win32,59.76571838,614a5c83c64e6a1364367daa,626b377229c10585ec392f89,626b3a3192155742cf028b31,,,,,,,,,,,,,,,,,,,,,,,l,1,1.3841,"[""0.089"",""0.633"",""0.597"",""0.805""]","[1,0,1,1]",0,51,51,51,1,1,1,,,0,FALSE,,,,,,,,,,,,,,,,,,,,,,,,,,,,,,
,Arath,001,2022-04-28_20h07.51.426,classification_task,2021.2.3,Win32,59.76571838,614a5c83c64e6a1364367daa,626b377229c10585ec392f89,626b3a3192155742cf028b31,,,,,,,,,,,,,,,,,,,,,,,l,1,1.1146,"[""0.126"",""0.206"",""0.496"",""0.660""]","[1,1,1,0]",0,52,52,52,1,1,0,,,0,FALSE,,,,,,,,,,,,,,,,,,,,,,,,,,,,,,
,Arath,001,2022-04-28_20h07.51.426,classification_task,2021.2.3,Win32,59.76571838,614a5c83c64e6a1364367daa,626b377229c10585ec392f89,626b3a3192155742cf028b31,,,,,,,,,,,,,,,,,,,,,,,a,1,1.0542,"[""0.170"",""0.356"",""0.047"",""0.973""]","[1,1,0,1]",0,53,53,53,1,0,1,,,0,FALSE,,,,,,,,,,,,,,,,,,,,,,,,,,,,,,
,Arath,001,2022-04-28_20h07.51.426,classification_task,2021.2.3,Win32,59.76571838,614a5c83c64e6a1364367daa,626b377229c10585ec392f89,626b3a3192155742cf028b31,,,,,,,,,,,,,,,,,,,,,,,a,1,1.4579,"[""0.304"",""0.389"",""0.680"",""0.939""]","[1,1,0,1]",0,54,54,54,1,0,0,,,0,FALSE,,,,,,,,,,,,,,,,,,,,,,,,,,,,,,
,Arath,001,2022-04-28_20h07.51.426,classification_task,2021.2.3,Win32,59.76571838,614a5c83c64e6a1364367daa,626b377229c10585ec392f89,626b3a3192155742cf028b31,,,,,,,,,,,,,,,,,,,,,,,a,1,1.2343,"[""0.660"",""0.389"",""0.763"",""0.939""]","[0,1,1,1]",0,55,55,55,1,0,0,,,0,FALSE,,,,,,,,,,,,,,,,,,,,,,,,,,,,,,
,Arath,001,2022-04-28_20h07.51.426,classification_task,2021.2.3,Win32,59.76571838,614a5c83c64e6a1364367daa,626b377229c10585ec392f89,626b3a3192155742cf028b31,,,,,,,,,,,,,,,,,,,,,,,l,1,1.234,"[""0.126"",""0.459"",""0.496"",""0.720""]","[1,0,1,1]",0,56,56,56,1,1,0,,,0,FALSE,,,,,,,,,,,,,,,,,,,,,,,,,,,,,,
,Arath,001,2022-04-28_20h07.51.426,classification_task,2021.2.3,Win32,59.76571838,614a5c83c64e6a1364367daa,626b377229c10585ec392f89,626b3a3192155742cf028b31,,,,,,,,,,,,,,,,,,,,,,,a,1,0.7685,"[""0.047"",""0.356"",""0.868"",""0.973""]","[0,1,1,1]",0,57,57,57,1,0,1,,,0,FALSE,,,,,,,,,,,,,,,,,,,,,,,,,,,,,,
,Arath,001,2022-04-28_20h07.51.426,classification_task,2021.2.3,Win32,59.76571838,614a5c83c64e6a1364367daa,626b377229c10585ec392f89,626b3a3192155742cf028b31,,,,,,,,,,,,,,,,,,,,,,,l,1,0.7878,"[""0.537"",""0.206"",""0.496"",""0.720""]","[0,1,1,1]",0,58,58,58,1,1,0,,,0,FALSE,,,,,,,,,,,,,,,,,,,,,,,,,,,,,,
,Arath,001,2022-04-28_20h07.51.426,classification_task,2021.2.3,Win32,59.76571838,614a5c83c64e6a1364367daa,626b377229c10585ec392f89,626b3a3192155742cf028b31,,,,,,,,,,,,,,,,,,,,,,,a,1,0.837,"[""0.304"",""0.537"",""0.763"",""0.939""]","[1,0,1,1]",0,59,59,59,1,0,0,,,0,FALSE,,,,,,,,,,,,,,,,,,,,,,,,,,,,,,
,Arath,001,2022-04-28_20h07.51.426,classification_task,2021.2.3,Win32,59.76571838,614a5c83c64e6a1364367daa,626b377229c10585ec392f89,626b3a3192155742cf028b31,,,,,,,,,,,,,,,,,,,,,,,l,0,0.9562,"[""0.304"",""0.389"",""0.763"",""0.660""]","[1,1,1,0]",0,60,60,60,1,0,0,,,0,FALSE,,,,,,,,,,,,,,,,,,,,,,,,,,,,,,
,Arath,001,2022-04-28_20h07.51.426,classification_task,2021.2.3,Win32,59.76571838,614a5c83c64e6a1364367daa,626b377229c10585ec392f89,626b3a3192155742cf028b31,,,,,,,,,,,,,,,,,,,,,,,l,1,2.1843,"[""0.089"",""0.267"",""0.597"",""0.554""]","[1,1,1,0]",0,61,61,61,1,1,1,,,0,FALSE,,,,,,,,,,,,,,,,,,,,,,,,,,,,,,
,Arath,001,2022-04-28_20h07.51.426,classification_task,2021.2.3,Win32,59.76571838,614a5c83c64e6a1364367daa,626b377229c10585ec392f89,626b3a3192155742cf028b31,,,,,,,,,,,,,,,,,,,,,,,a,1,1.1877,"[""0.170"",""0.356"",""0.868"",""0.441""]","[1,1,1,0]",0,62,62,62,1,0,1,,,0,FALSE,,,,,,,,,,,,,,,,,,,,,,,,,,,,,,
,Arath,001,2022-04-28_20h07.51.426,classification_task,2021.2.3,Win32,59.76571838,614a5c83c64e6a1364367daa,626b377229c10585ec392f89,626b3a3192155742cf028b31,,,,,,,,,,,,,,,,,,,,,,,a,1,1.268,"[""0.170"",""0.429"",""0.868"",""0.973""]","[1,0,1,1]",0,63,63,63,1,0,1,,,0,FALSE,,,,,,,,,,,,,,,,,,,,,,,,,,,,,,
,Arath,001,2022-04-28_20h07.51.426,classification_task,2021.2.3,Win32,59.76571838,614a5c83c64e6a1364367daa,626b377229c10585ec392f89,626b3a3192155742cf028b31,,,,,,,,,,,,,,,,,,,,,,,,,,,,,,,,,,,,,,,0, ,,0,4.491721304,185.0761,0,2,2,2,1,2,3,,,,,,,,,,,,,,,,,
,Arath,001,2022-04-28_20h07.51.426,classification_task,2021.2.3,Win32,59.76571838,614a5c83c64e6a1364367daa,626b377229c10585ec392f89,626b3a3192155742cf028b31,,,,,,,,,,,,,,,,,,,,,,,,,,,,,,,,,,,,,,,1,  ,,0,8.141535513,194.9901,0,2,2,2,1,2,3,,,,,,,,,,,,,,,,,
,Arath,001,2022-04-28_20h07.51.426,classification_task,2021.2.3,Win32,59.76571838,614a5c83c64e6a1364367daa,626b377229c10585ec392f89,626b3a3192155742cf028b31,,,,,,,,,,,,,,,,,,,,,,,,,,,,,,,,,,,,,,,2,  ,,0,6.279884008,193.6731,0,2,2,2,1,2,3,,,,,,,,,,,,,,,,,
,Arath,001,2022-04-28_20h07.51.426,classification_task,2021.2.3,Win32,59.76571838,614a5c83c64e6a1364367daa,626b377229c10585ec392f89,626b3a3192155742cf028b31,,,,,,,,,,,,,,,,,,,,,,,,,,,,,,,,,,,,,,,,,,,,,0,2,2,2,1,,3,,,,,,,,,,,,,,,,,
,Arath,001,2022-04-28_20h07.51.426,classification_task,2021.2.3,Win32,59.76571838,614a5c83c64e6a1364367daa,626b377229c10585ec392f89,626b3a3192155742cf028b31,,,,,,,,,,,,,,,,,,,,,,,,,,,,,,,,,,,,,,,,,,,,,,,,,,,,,I believe the aid is a competent performer,,0.7,0,5,1003.2151,0,0,0,0,1,0,,,,
,Arath,001,2022-04-28_20h07.51.426,classification_task,2021.2.3,Win32,59.76571838,614a5c83c64e6a1364367daa,626b377229c10585ec392f89,626b3a3192155742cf028b31,,,,,,,,,,,,,,,,,,,,,,,,,,,,,,,,,,,,,,,,,,,,,,,,,,,,,I trust the aid,,0.7,0,5,1004.519,0,0,0,0,1,0,,,,
,Arath,001,2022-04-28_20h07.51.426,classification_task,2021.2.3,Win32,59.76571838,614a5c83c64e6a1364367daa,626b377229c10585ec392f89,626b3a3192155742cf028b31,,,,,,,,,,,,,,,,,,,,,,,,,,,,,,,,,,,,,,,,,,,,,,,,,,,,,I have confidence in the advice given by the aid,,0.7,0,5,1006.7502,0,0,0,0,1,0,,,,
,Arath,001,2022-04-28_20h07.51.426,classification_task,2021.2.3,Win32,59.76571838,614a5c83c64e6a1364367daa,626b377229c10585ec392f89,626b3a3192155742cf028b31,,,,,,,,,,,,,,,,,,,,,,,,,,,,,,,,,,,,,,,,,,,,,,,,,,,,,I can depend on the aid,,0.7,0,5,1008.8798,0,0,0,0,1,0,,,,
,Arath,001,2022-04-28_20h07.51.426,classification_task,2021.2.3,Win32,59.76571838,614a5c83c64e6a1364367daa,626b377229c10585ec392f89,626b3a3192155742cf028b31,,,,,,,,,,,,,,,,,,,,,,,,,,,,,,,,,,,,,,,,,,,,,,,,,,,,,I can rely on the aid to behave in consistent ways,,0.7,0,5,1012.4359,0,0,0,0,1,0,,,,
,Arath,001,2022-04-28_20h07.51.426,classification_task,2021.2.3,Win32,59.76571838,614a5c83c64e6a1364367daa,626b377229c10585ec392f89,626b3a3192155742cf028b31,,,,,,,,,,,,,,,,,,,,,,,,,,,,,,,,,,,,,,,,,,,,,,,,,,,,,I can rely on the aid to do its best every time I take its advice,,0.7,0,5,1017.4839,0,0,0,0,1,0,,,,
,Arath,001,2022-04-28_20h07.51.426,classification_task,2021.2.3,Win32,59.76571838,614a5c83c64e6a1364367daa,626b377229c10585ec392f89,626b3a3192155742cf028b31,,,,,,,,,,,,,,,,,,,,,,,,,,,,,,,,,,,,,,,,,,,,,,,,,,,,,"On trials you completed with assistance from the aid, how frequently did you think the aid was correct?",,0.7,0,100%,,0,0,0,0,1,0,,,,
,Arath,001,2022-04-28_20h07.51.426,classification_task,2021.2.3,Win32,59.76571838,614a5c83c64e6a1364367daa,626b377229c10585ec392f89,626b3a3192155742cf028b31,,,,,,,,,,,,,,,,,,,,,,,,,,,,,,,,,,,,,,,,,,,,,,,,,,,,,"On trials you completed without the aid, how frequently did you think you were correct?",,0.7,0,66%,,0,0,0,0,1,0,,,,
,Arath,001,2022-04-28_20h07.51.426,classification_task,2021.2.3,Win32,59.76571838,614a5c83c64e6a1364367daa,626b377229c10585ec392f89,626b3a3192155742cf028b31,,,,,,,,,,,,,,,,,,,,,,,,,,,,,,,,,,,,,,,,,,,,,,,,,,,,,,,,,,,0,0,0,0,1,,,,,
,Arath,001,2022-04-28_20h07.51.426,classification_task,2021.2.3,Win32,59.76571838,614a5c83c64e6a1364367daa,626b377229c10585ec392f89,626b3a3192155742cf028b31,,,,,,,,,,,,,,,,,,,,,,,,,,,,,,,,,,,,,,,,,,,,,,,,,,,,,,,,,,,,,,,,,space,14.6028,1067.123,
,Arath,001,2022-04-28_20h07.51.426,classification_task,2021.2.3,Win32,59.76571838,614a5c83c64e6a1364367daa,626b377229c10585ec392f89,626b3a3192155742cf028b31,,,,,,,,,,,,,,,,,,,,,,,,,,,,,,,,,,,,,,,,,,,,,,,,,,,,,,,,,,,,,,,,,,,,"Mozilla/5.0 (Windows NT 10.0; Win64; x64) AppleWebKit/537.36 (KHTML, like Gecko) Chrome/100.0.4896.75 Safari/537.36"
