usingWebGL,participant,session,date,expName,psychopyVersion,OS,frameRate,PROLIFIC_PID,STUDY_ID,SESSION_ID,signatures_friend,signatures_foe,band_ranges_top,band_ranges_bottom,formitemText,formtype,formundefined,formitemWidth,formindex,formresponse,formrt,key_resp_2.keys,key_resp_2.rt,tute_resp.keys,tute_resp.rt,tutorial.thisRepN,tutorial.thisTrialN,tutorial.thisN,tutorial.thisIndex,tutorial.ran,key_resp_4.keys,key_resp_4.rt,key_resp.keys,key_resp.corr,key_resp.rt,lines_presented,is_signal_presented,trials.thisRepN,trials.thisTrialN,trials.thisN,trials.thisIndex,trials.ran,vessel,active_band,lines,is_signal,supported_pos,catch_trial,debrief_formindex,debrief_formitemText,debrief_formtype,debrief_formitemWidth,debrief_formresponse,debrief_formrt,phases.thisRepN,phases.thisTrialN,phases.thisN,phases.thisIndex,phases.ran,phases.order,phase,key_resp_3.keys,trustitemText,trusttype,trustitemWidth,trustindex,trustresponse,trustrt,support_status.thisRepN,support_status.thisTrialN,support_status.thisN,support_status.thisIndex,support_status.ran,support_status.order,key_resp_5.keys,key_resp_5.rt,globalClockTime,userAgent
TRUE,Dawid,001,2022-04-29_03h03.55.462,classification_task,2021.2.3,Win32,145.5604076,601ef06dec317f3e2f1d48a5,626b377229c10585ec392f89,626b3a2248bfea07056a172c,,,,,,,,,,,,,,,,,,,,,,,,,,,,,,,,,,,,,,,,,,,,,,,,,,,,,,,,,,,,,,,,,,,,
,Dawid,001,2022-04-29_03h03.55.462,classification_task,2021.2.3,Win32,145.5604076,601ef06dec317f3e2f1d48a5,626b377229c10585ec392f89,626b3a2248bfea07056a172c,"[[""0.278"",""0.522"",""0.671"",""0.921""],[""0.169"",""0.479"",""0.877"",""0.968""]]","[[""0.069"",""0.363"",""0.633"",""0.799""],[""0.109"",""0.220"",""0.585"",""0.841""]]","[1,10]","[100,1000]",Video game experience,,,0.7,0,,,,,,,,,,,,,,,,,,,,,,,,,,,,,,,,,,,,,,,,,,,,,,,,,,,,,,,,,,,
,Dawid,001,2022-04-29_03h03.55.462,classification_task,2021.2.3,Win32,145.5604076,601ef06dec317f3e2f1d48a5,626b377229c10585ec392f89,626b3a2248bfea07056a172c,,,,,Approximately how many hours did you spend playing video games in the last week?,,,0.7,0,70+,,,,,,,,,,,,,,,,,,,,,,,,,,,,,,,,,,,,,,,,,,,,,,,,,,,,,,,,,,
,Dawid,001,2022-04-29_03h03.55.462,classification_task,2021.2.3,Win32,145.5604076,601ef06dec317f3e2f1d48a5,626b377229c10585ec392f89,626b3a2248bfea07056a172c,,,,,"Which game did you play the most this year? (Enter ""None"" if you didn't play any)",,,0.7,0,Rust,,,,,,,,,,,,,,,,,,,,,,,,,,,,,,,,,,,,,,,,,,,,,,,,,,,,,,,,,,
,Dawid,001,2022-04-29_03h03.55.462,classification_task,2021.2.3,Win32,145.5604076,601ef06dec317f3e2f1d48a5,626b377229c10585ec392f89,626b3a2248bfea07056a172c,,,,,Visual perception,,,0.7,0,,,,,,,,,,,,,,,,,,,,,,,,,,,,,,,,,,,,,,,,,,,,,,,,,,,,,,,,,,,
,Dawid,001,2022-04-29_03h03.55.462,classification_task,2021.2.3,Win32,145.5604076,601ef06dec317f3e2f1d48a5,626b377229c10585ec392f89,626b3a2248bfea07056a172c,,,,,Do you have any form of color blindness?,,,0.7,0,No,23.1185,,,,,,,,,,,,,,,,,,,,,,,,,,,,,,,,,,,,,,,,,,,,,,,,,,,,,,,,,
,Dawid,001,2022-04-29_03h03.55.462,classification_task,2021.2.3,Win32,145.5604076,601ef06dec317f3e2f1d48a5,626b377229c10585ec392f89,626b3a2248bfea07056a172c,,,,,Do you use software to change the colour temperature of your screen (e.g. f.lux)?,,,0.7,0,No,24.7413,,,,,,,,,,,,,,,,,,,,,,,,,,,,,,,,,,,,,,,,,,,,,,,,,,,,,,,,,
,Dawid,001,2022-04-29_03h03.55.462,classification_task,2021.2.3,Win32,145.5604076,601ef06dec317f3e2f1d48a5,626b377229c10585ec392f89,626b3a2248bfea07056a172c,,,,,,,,,,,,space,39.0994,space,8.0397,0,0,0,0,1,,,,,,,,,,,,,,,,,,,,,,,,,,,,,,,,,,,,,,,,,,,,,,,,
,Dawid,001,2022-04-29_03h03.55.462,classification_task,2021.2.3,Win32,145.5604076,601ef06dec317f3e2f1d48a5,626b377229c10585ec392f89,626b3a2248bfea07056a172c,,,,,,,,,,,,,,space,45.0836,1,0,1,0,1,,,,,,,,,,,,,,,,,,,,,,,,,,,,,,,,,,,,,,,,,,,,,,,,
,Dawid,001,2022-04-29_03h03.55.462,classification_task,2021.2.3,Win32,145.5604076,601ef06dec317f3e2f1d48a5,626b377229c10585ec392f89,626b3a2248bfea07056a172c,,,,,,,,,,,,,,space,22.7009,2,0,2,0,1,,,,,,,,,,,,,,,,,,,,,,,,,,,,,,,,,,,,,,,,,,,,,,,,
,Dawid,001,2022-04-29_03h03.55.462,classification_task,2021.2.3,Win32,145.5604076,601ef06dec317f3e2f1d48a5,626b377229c10585ec392f89,626b3a2248bfea07056a172c,,,,,,,,,,,,,,space,5.915,3,0,3,0,1,,,,,,,,,,,,,,,,,,,,,,,,,,,,,,,,,,,,,,,,,,,,,,,,
,Dawid,001,2022-04-29_03h03.55.462,classification_task,2021.2.3,Win32,145.5604076,601ef06dec317f3e2f1d48a5,626b377229c10585ec392f89,626b3a2248bfea07056a172c,,,,,,,,,,,,,,space,57.9387,4,0,4,0,1,,,,,,,,,,,,,,,,,,,,,,,,,,,,,,,,,,,,,,,,,,,,,,,,
,Dawid,001,2022-04-29_03h03.55.462,classification_task,2021.2.3,Win32,145.5604076,601ef06dec317f3e2f1d48a5,626b377229c10585ec392f89,626b3a2248bfea07056a172c,,,,,,,,,,,,,,,,,,,,,space,16.3236,a,1,5.2608,"[""0.169"",""0.479"",""0.877"",""0.406""]","[1,1,1,0]",0,0,0,0,1,0,1,,,0,FALSE,,,,,,,,,,,,,,,,,,,,,,,,,,,,,,
,Dawid,001,2022-04-29_03h03.55.462,classification_task,2021.2.3,Win32,145.5604076,601ef06dec317f3e2f1d48a5,626b377229c10585ec392f89,626b3a2248bfea07056a172c,,,,,,,,,,,,,,,,,,,,,,,l,1,2.5001,"[""0.109"",""0.432"",""0.585"",""0.841""]","[1,0,1,1]",0,1,1,1,1,1,1,,,0,FALSE,,,,,,,,,,,,,,,,,,,,,,,,,,,,,,
,Dawid,001,2022-04-29_03h03.55.462,classification_task,2021.2.3,Win32,145.5604076,601ef06dec317f3e2f1d48a5,626b377229c10585ec392f89,626b3a2248bfea07056a172c,,,,,,,,,,,,,,,,,,,,,,,a,1,3.3142,"[""0.278"",""0.740"",""0.671"",""0.921""]","[1,0,1,1]",0,2,2,2,1,0,0,,,0,FALSE,,,,,,,,,,,,,,,,,,,,,,,,,,,,,,
,Dawid,001,2022-04-29_03h03.55.462,classification_task,2021.2.3,Win32,145.5604076,601ef06dec317f3e2f1d48a5,626b377229c10585ec392f89,626b3a2248bfea07056a172c,,,,,,,,,,,,,,,,,,,,,,,a,1,1.8706,"[""0.169"",""0.714"",""0.877"",""0.968""]","[1,0,1,1]",0,3,3,3,1,0,1,,,0,FALSE,,,,,,,,,,,,,,,,,,,,,,,,,,,,,,
,Dawid,001,2022-04-29_03h03.55.462,classification_task,2021.2.3,Win32,145.5604076,601ef06dec317f3e2f1d48a5,626b377229c10585ec392f89,626b3a2248bfea07056a172c,,,,,,,,,,,,,,,,,,,,,,,a,1,1.5888,"[""0.278"",""0.522"",""0.714"",""0.921""]","[1,1,0,1]",0,4,4,4,1,0,0,,,0,FALSE,,,,,,,,,,,,,,,,,,,,,,,,,,,,,,
,Dawid,001,2022-04-29_03h03.55.462,classification_task,2021.2.3,Win32,145.5604076,601ef06dec317f3e2f1d48a5,626b377229c10585ec392f89,626b3a2248bfea07056a172c,,,,,,,,,,,,,,,,,,,,,,,l,1,1.4855,"[""0.069"",""0.363"",""0.737"",""0.799""]","[1,1,0,1]",0,5,5,5,1,1,0,,,0,FALSE,,,,,,,,,,,,,,,,,,,,,,,,,,,,,,
,Dawid,001,2022-04-29_03h03.55.462,classification_task,2021.2.3,Win32,145.5604076,601ef06dec317f3e2f1d48a5,626b377229c10585ec392f89,626b3a2248bfea07056a172c,,,,,,,,,,,,,,,,,,,,,,,a,1,1.6945,"[""0.169"",""0.479"",""0.398"",""0.968""]","[1,1,0,1]",0,6,6,6,1,0,1,,,0,FALSE,,,,,,,,,,,,,,,,,,,,,,,,,,,,,,
,Dawid,001,2022-04-29_03h03.55.462,classification_task,2021.2.3,Win32,145.5604076,601ef06dec317f3e2f1d48a5,626b377229c10585ec392f89,626b3a2248bfea07056a172c,,,,,,,,,,,,,,,,,,,,,,,a,1,3.2986,"[""0.278"",""0.522"",""0.671"",""0.405""]","[1,1,1,0]",0,7,7,7,1,0,0,,,0,FALSE,,,,,,,,,,,,,,,,,,,,,,,,,,,,,,
,Dawid,001,2022-04-29_03h03.55.462,classification_task,2021.2.3,Win32,145.5604076,601ef06dec317f3e2f1d48a5,626b377229c10585ec392f89,626b3a2248bfea07056a172c,,,,,,,,,,,,,,,,,,,,,,,l,1,1.3345,"[""0.069"",""0.439"",""0.633"",""0.799""]","[1,0,1,1]",0,8,8,8,1,1,0,,,0,FALSE,,,,,,,,,,,,,,,,,,,,,,,,,,,,,,
,Dawid,001,2022-04-29_03h03.55.462,classification_task,2021.2.3,Win32,145.5604076,601ef06dec317f3e2f1d48a5,626b377229c10585ec392f89,626b3a2248bfea07056a172c,,,,,,,,,,,,,,,,,,,,,,,l,1,2.3443,"[""0.109"",""0.220"",""0.432"",""0.841""]","[1,1,0,1]",0,9,9,9,1,1,1,,,0,FALSE,,,,,,,,,,,,,,,,,,,,,,,,,,,,,,
,Dawid,001,2022-04-29_03h03.55.462,classification_task,2021.2.3,Win32,145.5604076,601ef06dec317f3e2f1d48a5,626b377229c10585ec392f89,626b3a2248bfea07056a172c,,,,,,,,,,,,,,,,,,,,,,,l,1,2.3266,"[""0.439"",""0.363"",""0.633"",""0.799""]","[0,1,1,1]",0,10,10,10,1,1,0,,,0,FALSE,,,,,,,,,,,,,,,,,,,,,,,,,,,,,,
,Dawid,001,2022-04-29_03h03.55.462,classification_task,2021.2.3,Win32,145.5604076,601ef06dec317f3e2f1d48a5,626b377229c10585ec392f89,626b3a2248bfea07056a172c,,,,,,,,,,,,,,,,,,,,,,,,0,,"[""0.405"",""0.479"",""0.877"",""0.968""]","[0,1,1,1]",0,11,11,11,1,0,1,,,0,FALSE,,,,,,,,,,,,,,,,,,,,,,,,,,,,,,
,Dawid,001,2022-04-29_03h03.55.462,classification_task,2021.2.3,Win32,145.5604076,601ef06dec317f3e2f1d48a5,626b377229c10585ec392f89,626b3a2248bfea07056a172c,,,,,,,,,,,,,,,,,,,,,,,a,1,3.8584,"[""0.705"",""0.522"",""0.671"",""0.921""]","[0,1,1,1]",0,12,12,12,1,0,0,,,0,FALSE,,,,,,,,,,,,,,,,,,,,,,,,,,,,,,
,Dawid,001,2022-04-29_03h03.55.462,classification_task,2021.2.3,Win32,145.5604076,601ef06dec317f3e2f1d48a5,626b377229c10585ec392f89,626b3a2248bfea07056a172c,,,,,,,,,,,,,,,,,,,,,,,l,1,1.7039,"[""0.069"",""0.363"",""0.633"",""0.432""]","[1,1,1,0]",0,13,13,13,1,1,0,,,0,FALSE,,,,,,,,,,,,,,,,,,,,,,,,,,,,,,
,Dawid,001,2022-04-29_03h03.55.462,classification_task,2021.2.3,Win32,145.5604076,601ef06dec317f3e2f1d48a5,626b377229c10585ec392f89,626b3a2248bfea07056a172c,,,,,,,,,,,,,,,,,,,,,,,l,1,6.8365,"[""0.758"",""0.220"",""0.585"",""0.841""]","[0,1,1,1]",0,14,14,14,1,1,1,,,0,FALSE,,,,,,,,,,,,,,,,,,,,,,,,,,,,,,
,Dawid,001,2022-04-29_03h03.55.462,classification_task,2021.2.3,Win32,145.5604076,601ef06dec317f3e2f1d48a5,626b377229c10585ec392f89,626b3a2248bfea07056a172c,,,,,,,,,,,,,,,,,,,,,,,l,1,2.6813,"[""0.109"",""0.220"",""0.585"",""0.737""]","[1,1,1,0]",0,15,15,15,1,1,1,,,0,FALSE,,,,,,,,,,,,,,,,,,,,,,,,,,,,,,
,Dawid,001,2022-04-29_03h03.55.462,classification_task,2021.2.3,Win32,145.5604076,601ef06dec317f3e2f1d48a5,626b377229c10585ec392f89,626b3a2248bfea07056a172c,,,,,,,,,,,,,,,,,,,,,,,a,1,1.3666,"[""0.169"",""0.705"",""0.877"",""0.968""]","[1,0,1,1]",0,16,16,16,1,0,1,,,0,FALSE,,,,,,,,,,,,,,,,,,,,,,,,,,,,,,
,Dawid,001,2022-04-29_03h03.55.462,classification_task,2021.2.3,Win32,145.5604076,601ef06dec317f3e2f1d48a5,626b377229c10585ec392f89,626b3a2248bfea07056a172c,,,,,,,,,,,,,,,,,,,,,,,l,1,2.898,"[""0.109"",""0.220"",""0.585"",""0.327""]","[1,1,1,0]",0,17,17,17,1,1,1,,,0,FALSE,,,,,,,,,,,,,,,,,,,,,,,,,,,,,,
,Dawid,001,2022-04-29_03h03.55.462,classification_task,2021.2.3,Win32,145.5604076,601ef06dec317f3e2f1d48a5,626b377229c10585ec392f89,626b3a2248bfea07056a172c,,,,,,,,,,,,,,,,,,,,,,,l,1,3.3918,"[""0.109"",""0.220"",""0.758"",""0.841""]","[1,1,0,1]",0,18,18,18,1,1,1,,,0,FALSE,,,,,,,,,,,,,,,,,,,,,,,,,,,,,,
,Dawid,001,2022-04-29_03h03.55.462,classification_task,2021.2.3,Win32,145.5604076,601ef06dec317f3e2f1d48a5,626b377229c10585ec392f89,626b3a2248bfea07056a172c,,,,,,,,,,,,,,,,,,,,,,,a,1,1.9278,"[""0.278"",""0.522"",""0.671"",""0.432""]","[1,1,1,0]",0,19,19,19,1,0,0,,,0,FALSE,,,,,,,,,,,,,,,,,,,,,,,,,,,,,,
,Dawid,001,2022-04-29_03h03.55.462,classification_task,2021.2.3,Win32,145.5604076,601ef06dec317f3e2f1d48a5,626b377229c10585ec392f89,626b3a2248bfea07056a172c,,,,,,,,,,,,,,,,,,,,,,,l,1,3.4988,"[""0.439"",""0.363"",""0.633"",""0.799""]","[0,1,1,1]",0,20,20,20,1,1,0,,,0,FALSE,,,,,,,,,,,,,,,,,,,,,,,,,,,,,,
,Dawid,001,2022-04-29_03h03.55.462,classification_task,2021.2.3,Win32,145.5604076,601ef06dec317f3e2f1d48a5,626b377229c10585ec392f89,626b3a2248bfea07056a172c,,,,,,,,,,,,,,,,,,,,,,,l,0,1.5932,"[""0.723"",""0.522"",""0.671"",""0.921""]","[0,1,1,1]",0,21,21,21,1,0,0,,,0,FALSE,,,,,,,,,,,,,,,,,,,,,,,,,,,,,,
,Dawid,001,2022-04-29_03h03.55.462,classification_task,2021.2.3,Win32,145.5604076,601ef06dec317f3e2f1d48a5,626b377229c10585ec392f89,626b3a2248bfea07056a172c,,,,,,,,,,,,,,,,,,,,,,,l,1,4.4172,"[""0.069"",""0.363"",""0.705"",""0.799""]","[1,1,0,1]",0,22,22,22,1,1,0,,,0,FALSE,,,,,,,,,,,,,,,,,,,,,,,,,,,,,,
,Dawid,001,2022-04-29_03h03.55.462,classification_task,2021.2.3,Win32,145.5604076,601ef06dec317f3e2f1d48a5,626b377229c10585ec392f89,626b3a2248bfea07056a172c,,,,,,,,,,,,,,,,,,,,,,,l,0,4.2096,"[""0.432"",""0.479"",""0.877"",""0.968""]","[0,1,1,1]",0,23,23,23,1,0,1,,,0,FALSE,,,,,,,,,,,,,,,,,,,,,,,,,,,,,,
,Dawid,001,2022-04-29_03h03.55.462,classification_task,2021.2.3,Win32,145.5604076,601ef06dec317f3e2f1d48a5,626b377229c10585ec392f89,626b3a2248bfea07056a172c,,,,,,,,,,,,,,,,,,,,,,,l,1,4.8581,"[""0.069"",""0.363"",""0.633"",""0.325""]","[1,1,1,0]",0,24,24,24,1,1,0,,,0,FALSE,,,,,,,,,,,,,,,,,,,,,,,,,,,,,,
,Dawid,001,2022-04-29_03h03.55.462,classification_task,2021.2.3,Win32,145.5604076,601ef06dec317f3e2f1d48a5,626b377229c10585ec392f89,626b3a2248bfea07056a172c,,,,,,,,,,,,,,,,,,,,,,,a,1,1.8135,"[""0.169"",""0.479"",""0.714"",""0.968""]","[1,1,0,1]",0,25,25,25,1,0,1,,,0,FALSE,,,,,,,,,,,,,,,,,,,,,,,,,,,,,,
,Dawid,001,2022-04-29_03h03.55.462,classification_task,2021.2.3,Win32,145.5604076,601ef06dec317f3e2f1d48a5,626b377229c10585ec392f89,626b3a2248bfea07056a172c,,,,,,,,,,,,,,,,,,,,,,,a,1,1.9702,"[""0.169"",""0.479"",""0.877"",""0.723""]","[1,1,1,0]",0,26,26,26,1,0,1,,,0,FALSE,,,,,,,,,,,,,,,,,,,,,,,,,,,,,,
,Dawid,001,2022-04-29_03h03.55.462,classification_task,2021.2.3,Win32,145.5604076,601ef06dec317f3e2f1d48a5,626b377229c10585ec392f89,626b3a2248bfea07056a172c,,,,,,,,,,,,,,,,,,,,,,,a,1,1.706,"[""0.278"",""0.522"",""0.432"",""0.921""]","[1,1,0,1]",0,27,27,27,1,0,0,,,0,FALSE,,,,,,,,,,,,,,,,,,,,,,,,,,,,,,
,Dawid,001,2022-04-29_03h03.55.462,classification_task,2021.2.3,Win32,145.5604076,601ef06dec317f3e2f1d48a5,626b377229c10585ec392f89,626b3a2248bfea07056a172c,,,,,,,,,,,,,,,,,,,,,,,l,1,1.583,"[""0.109"",""0.329"",""0.585"",""0.841""]","[1,0,1,1]",0,28,28,28,1,1,1,,,0,FALSE,,,,,,,,,,,,,,,,,,,,,,,,,,,,,,
,Dawid,001,2022-04-29_03h03.55.462,classification_task,2021.2.3,Win32,145.5604076,601ef06dec317f3e2f1d48a5,626b377229c10585ec392f89,626b3a2248bfea07056a172c,,,,,,,,,,,,,,,,,,,,,,,l,1,2.1086,"[""0.069"",""0.432"",""0.633"",""0.799""]","[1,0,1,1]",0,29,29,29,1,1,0,,,0,FALSE,,,,,,,,,,,,,,,,,,,,,,,,,,,,,,
,Dawid,001,2022-04-29_03h03.55.462,classification_task,2021.2.3,Win32,145.5604076,601ef06dec317f3e2f1d48a5,626b377229c10585ec392f89,626b3a2248bfea07056a172c,,,,,,,,,,,,,,,,,,,,,,,a,1,6.6037,"[""0.278"",""0.325"",""0.671"",""0.921""]","[1,0,1,1]",0,30,30,30,1,0,0,,,0,FALSE,,,,,,,,,,,,,,,,,,,,,,,,,,,,,,
,Dawid,001,2022-04-29_03h03.55.462,classification_task,2021.2.3,Win32,145.5604076,601ef06dec317f3e2f1d48a5,626b377229c10585ec392f89,626b3a2248bfea07056a172c,,,,,,,,,,,,,,,,,,,,,,,l,1,2.5914,"[""0.723"",""0.220"",""0.585"",""0.841""]","[0,1,1,1]",0,31,31,31,1,1,1,,,0,FALSE,,,,,,,,,,,,,,,,,,,,,,,,,,,,,,
,Dawid,001,2022-04-29_03h03.55.462,classification_task,2021.2.3,Win32,145.5604076,601ef06dec317f3e2f1d48a5,626b377229c10585ec392f89,626b3a2248bfea07056a172c,,,,,,,,,,,,,,,,,,,,,,,l,1,1.6398,"[""0.716"",""0.220"",""0.585"",""0.841""]","[0,1,1,1]",0,32,32,32,1,1,1,,,0,FALSE,,,,,,,,,,,,,,,,,,,,,,,,,,,,,,
,Dawid,001,2022-04-29_03h03.55.462,classification_task,2021.2.3,Win32,145.5604076,601ef06dec317f3e2f1d48a5,626b377229c10585ec392f89,626b3a2248bfea07056a172c,,,,,,,,,,,,,,,,,,,,,,,a,1,1.4186,"[""0.169"",""0.479"",""0.877"",""0.439""]","[1,1,1,0]",0,33,33,33,1,0,1,,,0,FALSE,,,,,,,,,,,,,,,,,,,,,,,,,,,,,,
,Dawid,001,2022-04-29_03h03.55.462,classification_task,2021.2.3,Win32,145.5604076,601ef06dec317f3e2f1d48a5,626b377229c10585ec392f89,626b3a2248bfea07056a172c,,,,,,,,,,,,,,,,,,,,,,,l,1,2.7036,"[""0.109"",""0.220"",""0.585"",""0.405""]","[1,1,1,0]",0,34,34,34,1,1,1,,,0,FALSE,,,,,,,,,,,,,,,,,,,,,,,,,,,,,,
,Dawid,001,2022-04-29_03h03.55.462,classification_task,2021.2.3,Win32,145.5604076,601ef06dec317f3e2f1d48a5,626b377229c10585ec392f89,626b3a2248bfea07056a172c,,,,,,,,,,,,,,,,,,,,,,,l,1,1.5141,"[""0.109"",""0.220"",""0.705"",""0.841""]","[1,1,0,1]",0,35,35,35,1,1,1,,,0,FALSE,,,,,,,,,,,,,,,,,,,,,,,,,,,,,,
,Dawid,001,2022-04-29_03h03.55.462,classification_task,2021.2.3,Win32,145.5604076,601ef06dec317f3e2f1d48a5,626b377229c10585ec392f89,626b3a2248bfea07056a172c,,,,,,,,,,,,,,,,,,,,,,,l,1,1.7076,"[""0.069"",""0.363"",""0.633"",""0.740""]","[1,1,1,0]",0,36,36,36,1,1,0,,,0,FALSE,,,,,,,,,,,,,,,,,,,,,,,,,,,,,,
,Dawid,001,2022-04-29_03h03.55.462,classification_task,2021.2.3,Win32,145.5604076,601ef06dec317f3e2f1d48a5,626b377229c10585ec392f89,626b3a2248bfea07056a172c,,,,,,,,,,,,,,,,,,,,,,,a,1,2.0061,"[""0.329"",""0.479"",""0.877"",""0.968""]","[0,1,1,1]",0,37,37,37,1,0,1,,,0,FALSE,,,,,,,,,,,,,,,,,,,,,,,,,,,,,,
,Dawid,001,2022-04-29_03h03.55.462,classification_task,2021.2.3,Win32,145.5604076,601ef06dec317f3e2f1d48a5,626b377229c10585ec392f89,626b3a2248bfea07056a172c,,,,,,,,,,,,,,,,,,,,,,,a,1,1.7249,"[""0.169"",""0.479"",""0.432"",""0.968""]","[1,1,0,1]",0,38,38,38,1,0,1,,,0,FALSE,,,,,,,,,,,,,,,,,,,,,,,,,,,,,,
,Dawid,001,2022-04-29_03h03.55.462,classification_task,2021.2.3,Win32,145.5604076,601ef06dec317f3e2f1d48a5,626b377229c10585ec392f89,626b3a2248bfea07056a172c,,,,,,,,,,,,,,,,,,,,,,,l,1,1.0185,"[""0.109"",""0.705"",""0.585"",""0.841""]","[1,0,1,1]",0,39,39,39,1,1,1,,,0,FALSE,,,,,,,,,,,,,,,,,,,,,,,,,,,,,,
,Dawid,001,2022-04-29_03h03.55.462,classification_task,2021.2.3,Win32,145.5604076,601ef06dec317f3e2f1d48a5,626b377229c10585ec392f89,626b3a2248bfea07056a172c,,,,,,,,,,,,,,,,,,,,,,,a,1,1.2934,"[""0.169"",""0.406"",""0.877"",""0.968""]","[1,0,1,1]",0,40,40,40,1,0,1,,,0,FALSE,,,,,,,,,,,,,,,,,,,,,,,,,,,,,,
,Dawid,001,2022-04-29_03h03.55.462,classification_task,2021.2.3,Win32,145.5604076,601ef06dec317f3e2f1d48a5,626b377229c10585ec392f89,626b3a2248bfea07056a172c,,,,,,,,,,,,,,,,,,,,,,,l,1,1.1566,"[""0.069"",""0.363"",""0.740"",""0.799""]","[1,1,0,1]",0,41,41,41,1,1,0,,,0,FALSE,,,,,,,,,,,,,,,,,,,,,,,,,,,,,,
,Dawid,001,2022-04-29_03h03.55.462,classification_task,2021.2.3,Win32,145.5604076,601ef06dec317f3e2f1d48a5,626b377229c10585ec392f89,626b3a2248bfea07056a172c,,,,,,,,,,,,,,,,,,,,,,,l,1,1.9006,"[""0.329"",""0.363"",""0.633"",""0.799""]","[0,1,1,1]",0,42,42,42,1,1,0,,,0,FALSE,,,,,,,,,,,,,,,,,,,,,,,,,,,,,,
,Dawid,001,2022-04-29_03h03.55.462,classification_task,2021.2.3,Win32,145.5604076,601ef06dec317f3e2f1d48a5,626b377229c10585ec392f89,626b3a2248bfea07056a172c,,,,,,,,,,,,,,,,,,,,,,,a,1,1.0633,"[""0.278"",""0.522"",""0.671"",""0.758""]","[1,1,1,0]",0,43,43,43,1,0,0,,,0,FALSE,,,,,,,,,,,,,,,,,,,,,,,,,,,,,,
,Dawid,001,2022-04-29_03h03.55.462,classification_task,2021.2.3,Win32,145.5604076,601ef06dec317f3e2f1d48a5,626b377229c10585ec392f89,626b3a2248bfea07056a172c,,,,,,,,,,,,,,,,,,,,,,,l,0,2.4224,"[""0.737"",""0.522"",""0.671"",""0.921""]","[0,1,1,1]",0,44,44,44,1,0,0,,,0,FALSE,,,,,,,,,,,,,,,,,,,,,,,,,,,,,,
,Dawid,001,2022-04-29_03h03.55.462,classification_task,2021.2.3,Win32,145.5604076,601ef06dec317f3e2f1d48a5,626b377229c10585ec392f89,626b3a2248bfea07056a172c,,,,,,,,,,,,,,,,,,,,,,,l,1,1.0258,"[""0.069"",""0.398"",""0.633"",""0.799""]","[1,0,1,1]",0,45,45,45,1,1,0,,,0,FALSE,,,,,,,,,,,,,,,,,,,,,,,,,,,,,,
,Dawid,001,2022-04-29_03h03.55.462,classification_task,2021.2.3,Win32,145.5604076,601ef06dec317f3e2f1d48a5,626b377229c10585ec392f89,626b3a2248bfea07056a172c,,,,,,,,,,,,,,,,,,,,,,,a,1,1.2431,"[""0.278"",""0.522"",""0.398"",""0.921""]","[1,1,0,1]",0,46,46,46,1,0,0,,,0,FALSE,,,,,,,,,,,,,,,,,,,,,,,,,,,,,,
,Dawid,001,2022-04-29_03h03.55.462,classification_task,2021.2.3,Win32,145.5604076,601ef06dec317f3e2f1d48a5,626b377229c10585ec392f89,626b3a2248bfea07056a172c,,,,,,,,,,,,,,,,,,,,,,,a,1,1.6259,"[""0.278"",""0.432"",""0.671"",""0.921""]","[1,0,1,1]",0,47,47,47,1,0,0,,,0,FALSE,,,,,,,,,,,,,,,,,,,,,,,,,,,,,,
,Dawid,001,2022-04-29_03h03.55.462,classification_task,2021.2.3,Win32,145.5604076,601ef06dec317f3e2f1d48a5,626b377229c10585ec392f89,626b3a2248bfea07056a172c,,,,,,,,,,,,,,,,,,,,,,,a,1,1.917,"[""0.169"",""0.479"",""0.432"",""0.968""]","[1,1,0,1]",0,48,48,48,1,0,1,,,0,FALSE,,,,,,,,,,,,,,,,,,,,,,,,,,,,,,
,Dawid,001,2022-04-29_03h03.55.462,classification_task,2021.2.3,Win32,145.5604076,601ef06dec317f3e2f1d48a5,626b377229c10585ec392f89,626b3a2248bfea07056a172c,,,,,,,,,,,,,,,,,,,,,,,a,1,0.9654,"[""0.278"",""0.714"",""0.671"",""0.921""]","[1,0,1,1]",0,49,49,49,1,0,0,,,0,FALSE,,,,,,,,,,,,,,,,,,,,,,,,,,,,,,
,Dawid,001,2022-04-29_03h03.55.462,classification_task,2021.2.3,Win32,145.5604076,601ef06dec317f3e2f1d48a5,626b377229c10585ec392f89,626b3a2248bfea07056a172c,,,,,,,,,,,,,,,,,,,,,,,l,1,1.1417,"[""0.069"",""0.363"",""0.432"",""0.799""]","[1,1,0,1]",0,50,50,50,1,1,0,,,0,FALSE,,,,,,,,,,,,,,,,,,,,,,,,,,,,,,
,Dawid,001,2022-04-29_03h03.55.462,classification_task,2021.2.3,Win32,145.5604076,601ef06dec317f3e2f1d48a5,626b377229c10585ec392f89,626b3a2248bfea07056a172c,,,,,,,,,,,,,,,,,,,,,,,l,1,1.0548,"[""0.069"",""0.363"",""0.633"",""0.439""]","[1,1,1,0]",0,51,51,51,1,1,0,,,0,FALSE,,,,,,,,,,,,,,,,,,,,,,,,,,,,,,
,Dawid,001,2022-04-29_03h03.55.462,classification_task,2021.2.3,Win32,145.5604076,601ef06dec317f3e2f1d48a5,626b377229c10585ec392f89,626b3a2248bfea07056a172c,,,,,,,,,,,,,,,,,,,,,,,l,1,2.4928,"[""0.716"",""0.220"",""0.585"",""0.841""]","[0,1,1,1]",0,52,52,52,1,1,1,,,0,FALSE,,,,,,,,,,,,,,,,,,,,,,,,,,,,,,
,Dawid,001,2022-04-29_03h03.55.462,classification_task,2021.2.3,Win32,145.5604076,601ef06dec317f3e2f1d48a5,626b377229c10585ec392f89,626b3a2248bfea07056a172c,,,,,,,,,,,,,,,,,,,,,,,l,1,1.703,"[""0.109"",""0.220"",""0.737"",""0.841""]","[1,1,0,1]",0,53,53,53,1,1,1,,,0,FALSE,,,,,,,,,,,,,,,,,,,,,,,,,,,,,,
,Dawid,001,2022-04-29_03h03.55.462,classification_task,2021.2.3,Win32,145.5604076,601ef06dec317f3e2f1d48a5,626b377229c10585ec392f89,626b3a2248bfea07056a172c,,,,,,,,,,,,,,,,,,,,,,,a,1,1.5393,"[""0.737"",""0.522"",""0.671"",""0.921""]","[0,1,1,1]",0,54,54,54,1,0,0,,,0,FALSE,,,,,,,,,,,,,,,,,,,,,,,,,,,,,,
,Dawid,001,2022-04-29_03h03.55.462,classification_task,2021.2.3,Win32,145.5604076,601ef06dec317f3e2f1d48a5,626b377229c10585ec392f89,626b3a2248bfea07056a172c,,,,,,,,,,,,,,,,,,,,,,,a,1,2.3482,"[""0.278"",""0.522"",""0.671"",""0.327""]","[1,1,1,0]",0,55,55,55,1,0,0,,,0,FALSE,,,,,,,,,,,,,,,,,,,,,,,,,,,,,,
,Dawid,001,2022-04-29_03h03.55.462,classification_task,2021.2.3,Win32,145.5604076,601ef06dec317f3e2f1d48a5,626b377229c10585ec392f89,626b3a2248bfea07056a172c,,,,,,,,,,,,,,,,,,,,,,,a,1,1.487,"[""0.169"",""0.479"",""0.877"",""0.723""]","[1,1,1,0]",0,56,56,56,1,0,1,,,0,FALSE,,,,,,,,,,,,,,,,,,,,,,,,,,,,,,
,Dawid,001,2022-04-29_03h03.55.462,classification_task,2021.2.3,Win32,145.5604076,601ef06dec317f3e2f1d48a5,626b377229c10585ec392f89,626b3a2248bfea07056a172c,,,,,,,,,,,,,,,,,,,,,,,l,1,2.47,"[""0.439"",""0.363"",""0.633"",""0.799""]","[0,1,1,1]",0,57,57,57,1,1,0,,,0,FALSE,,,,,,,,,,,,,,,,,,,,,,,,,,,,,,
,Dawid,001,2022-04-29_03h03.55.462,classification_task,2021.2.3,Win32,145.5604076,601ef06dec317f3e2f1d48a5,626b377229c10585ec392f89,626b3a2248bfea07056a172c,,,,,,,,,,,,,,,,,,,,,,,l,1,2.7358,"[""0.109"",""0.220"",""0.585"",""0.398""]","[1,1,1,0]",0,58,58,58,1,1,1,,,0,FALSE,,,,,,,,,,,,,,,,,,,,,,,,,,,,,,
,Dawid,001,2022-04-29_03h03.55.462,classification_task,2021.2.3,Win32,145.5604076,601ef06dec317f3e2f1d48a5,626b377229c10585ec392f89,626b3a2248bfea07056a172c,,,,,,,,,,,,,,,,,,,,,,,a,1,1.3691,"[""0.278"",""0.522"",""0.737"",""0.921""]","[1,1,0,1]",0,59,59,59,1,0,0,,,0,FALSE,,,,,,,,,,,,,,,,,,,,,,,,,,,,,,
,Dawid,001,2022-04-29_03h03.55.462,classification_task,2021.2.3,Win32,145.5604076,601ef06dec317f3e2f1d48a5,626b377229c10585ec392f89,626b3a2248bfea07056a172c,,,,,,,,,,,,,,,,,,,,,,,l,1,1.3916,"[""0.109"",""0.325"",""0.585"",""0.841""]","[1,0,1,1]",0,60,60,60,1,1,1,,,0,FALSE,,,,,,,,,,,,,,,,,,,,,,,,,,,,,,
,Dawid,001,2022-04-29_03h03.55.462,classification_task,2021.2.3,Win32,145.5604076,601ef06dec317f3e2f1d48a5,626b377229c10585ec392f89,626b3a2248bfea07056a172c,,,,,,,,,,,,,,,,,,,,,,,a,1,3.3135,"[""0.327"",""0.479"",""0.877"",""0.968""]","[0,1,1,1]",0,61,61,61,1,0,1,,,0,FALSE,,,,,,,,,,,,,,,,,,,,,,,,,,,,,,
,Dawid,001,2022-04-29_03h03.55.462,classification_task,2021.2.3,Win32,145.5604076,601ef06dec317f3e2f1d48a5,626b377229c10585ec392f89,626b3a2248bfea07056a172c,,,,,,,,,,,,,,,,,,,,,,,a,1,1.6895,"[""0.169"",""0.432"",""0.877"",""0.968""]","[1,0,1,1]",0,62,62,62,1,0,1,,,0,FALSE,,,,,,,,,,,,,,,,,,,,,,,,,,,,,,
,Dawid,001,2022-04-29_03h03.55.462,classification_task,2021.2.3,Win32,145.5604076,601ef06dec317f3e2f1d48a5,626b377229c10585ec392f89,626b3a2248bfea07056a172c,,,,,,,,,,,,,,,,,,,,,,,l,1,1.0827,"[""0.069"",""0.432"",""0.633"",""0.799""]","[1,0,1,1]",0,63,63,63,1,1,0,,,0,FALSE,,,,,,,,,,,,,,,,,,,,,,,,,,,,,,
,Dawid,001,2022-04-29_03h03.55.462,classification_task,2021.2.3,Win32,145.5604076,601ef06dec317f3e2f1d48a5,626b377229c10585ec392f89,626b3a2248bfea07056a172c,,,,,,,,,,,,,,,,,,,,,,,,,,,,,,,,,,,,,,,0, ,,0,5.930825005,455.6433,0,0,0,0,1,2,1,,,,,,,,,,,,,,,,,
,Dawid,001,2022-04-29_03h03.55.462,classification_task,2021.2.3,Win32,145.5604076,601ef06dec317f3e2f1d48a5,626b377229c10585ec392f89,626b3a2248bfea07056a172c,,,,,,,,,,,,,,,,,,,,,,,,,,,,,,,,,,,,,,,1,  ,,0,7.008622379,461.7034,0,0,0,0,1,2,1,,,,,,,,,,,,,,,,,
,Dawid,001,2022-04-29_03h03.55.462,classification_task,2021.2.3,Win32,145.5604076,601ef06dec317f3e2f1d48a5,626b377229c10585ec392f89,626b3a2248bfea07056a172c,,,,,,,,,,,,,,,,,,,,,,,,,,,,,,,,,,,,,,,2,  ,,0,3.750734862,467.2955,0,0,0,0,1,2,1,,,,,,,,,,,,,,,,,
,Dawid,001,2022-04-29_03h03.55.462,classification_task,2021.2.3,Win32,145.5604076,601ef06dec317f3e2f1d48a5,626b377229c10585ec392f89,626b3a2248bfea07056a172c,,,,,,,,,,,,,,,,,,,,,,,,,,,,,,,,,,,,,,,,,,,,,0,0,0,0,1,,1,,,,,,,,,,,,,,,,,
,Dawid,001,2022-04-29_03h03.55.462,classification_task,2021.2.3,Win32,145.5604076,601ef06dec317f3e2f1d48a5,626b377229c10585ec392f89,626b3a2248bfea07056a172c,,,,,,,,,,,,,,,,,,,,,space,8.843,a,1,3.3424,"[""0.278"",""0.522"",""0.758"",""0.921""]","[1,1,0,1]",0,0,0,0,1,0,0,,,0,FALSE,,,,,,,,,,,,,,,,,,,,,,,,,,,,,,
,Dawid,001,2022-04-29_03h03.55.462,classification_task,2021.2.3,Win32,145.5604076,601ef06dec317f3e2f1d48a5,626b377229c10585ec392f89,626b3a2248bfea07056a172c,,,,,,,,,,,,,,,,,,,,,,,a,1,4.7527,"[""0.169"",""0.479"",""0.740"",""0.968""]","[1,1,0,1]",0,1,1,1,1,0,1,,,0,FALSE,,,,,,,,,,,,,,,,,,,,,,,,,,,,,,
,Dawid,001,2022-04-29_03h03.55.462,classification_task,2021.2.3,Win32,145.5604076,601ef06dec317f3e2f1d48a5,626b377229c10585ec392f89,626b3a2248bfea07056a172c,,,,,,,,,,,,,,,,,,,,,,,a,0,1.4146,"[""0.109"",""0.220"",""0.585"",""0.329""]","[1,1,1,0]",0,2,2,2,1,1,1,,,0,FALSE,,,,,,,,,,,,,,,,,,,,,,,,,,,,,,
,Dawid,001,2022-04-29_03h03.55.462,classification_task,2021.2.3,Win32,145.5604076,601ef06dec317f3e2f1d48a5,626b377229c10585ec392f89,626b3a2248bfea07056a172c,,,,,,,,,,,,,,,,,,,,,,,l,1,1.2125,"[""0.740"",""0.220"",""0.585"",""0.841""]","[0,1,1,1]",0,3,3,3,1,1,1,,,0,FALSE,,,,,,,,,,,,,,,,,,,,,,,,,,,,,,
,Dawid,001,2022-04-29_03h03.55.462,classification_task,2021.2.3,Win32,145.5604076,601ef06dec317f3e2f1d48a5,626b377229c10585ec392f89,626b3a2248bfea07056a172c,,,,,,,,,,,,,,,,,,,,,,,a,1,1.1568,"[""0.278"",""0.325"",""0.671"",""0.921""]","[1,0,1,1]",0,4,4,4,1,0,0,,,0,FALSE,,,,,,,,,,,,,,,,,,,,,,,,,,,,,,
,Dawid,001,2022-04-29_03h03.55.462,classification_task,2021.2.3,Win32,145.5604076,601ef06dec317f3e2f1d48a5,626b377229c10585ec392f89,626b3a2248bfea07056a172c,,,,,,,,,,,,,,,,,,,,,,,l,1,0.7739,"[""0.069"",""0.740"",""0.633"",""0.799""]","[1,0,1,1]",0,5,5,5,1,1,0,,,0,FALSE,,,,,,,,,,,,,,,,,,,,,,,,,,,,,,
,Dawid,001,2022-04-29_03h03.55.462,classification_task,2021.2.3,Win32,145.5604076,601ef06dec317f3e2f1d48a5,626b377229c10585ec392f89,626b3a2248bfea07056a172c,,,,,,,,,,,,,,,,,,,,,,,l,1,0.8655,"[""0.432"",""0.363"",""0.633"",""0.799""]","[0,1,1,1]",0,6,6,6,1,1,0,,,0,FALSE,,,,,,,,,,,,,,,,,,,,,,,,,,,,,,
,Dawid,001,2022-04-29_03h03.55.462,classification_task,2021.2.3,Win32,145.5604076,601ef06dec317f3e2f1d48a5,626b377229c10585ec392f89,626b3a2248bfea07056a172c,,,,,,,,,,,,,,,,,,,,,,,a,1,2.9876,"[""0.327"",""0.479"",""0.877"",""0.968""]","[0,1,1,1]",0,7,7,7,1,0,1,,,0,FALSE,,,,,,,,,,,,,,,,,,,,,,,,,,,,,,
,Dawid,001,2022-04-29_03h03.55.462,classification_task,2021.2.3,Win32,145.5604076,601ef06dec317f3e2f1d48a5,626b377229c10585ec392f89,626b3a2248bfea07056a172c,,,,,,,,,,,,,,,,,,,,,,,a,1,1.4965,"[""0.723"",""0.522"",""0.671"",""0.921""]","[0,1,1,1]",0,8,8,8,1,0,0,,,0,FALSE,,,,,,,,,,,,,,,,,,,,,,,,,,,,,,
,Dawid,001,2022-04-29_03h03.55.462,classification_task,2021.2.3,Win32,145.5604076,601ef06dec317f3e2f1d48a5,626b377229c10585ec392f89,626b3a2248bfea07056a172c,,,,,,,,,,,,,,,,,,,,,,,l,1,0.6771,"[""0.069"",""0.363"",""0.633"",""0.737""]","[1,1,1,0]",0,9,9,9,1,1,0,,,0,FALSE,,,,,,,,,,,,,,,,,,,,,,,,,,,,,,
,Dawid,001,2022-04-29_03h03.55.462,classification_task,2021.2.3,Win32,145.5604076,601ef06dec317f3e2f1d48a5,626b377229c10585ec392f89,626b3a2248bfea07056a172c,,,,,,,,,,,,,,,,,,,,,,,a,1,1.5963,"[""0.169"",""0.479"",""0.877"",""0.432""]","[1,1,1,0]",0,10,10,10,1,0,1,,,0,FALSE,,,,,,,,,,,,,,,,,,,,,,,,,,,,,,
,Dawid,001,2022-04-29_03h03.55.462,classification_task,2021.2.3,Win32,145.5604076,601ef06dec317f3e2f1d48a5,626b377229c10585ec392f89,626b3a2248bfea07056a172c,,,,,,,,,,,,,,,,,,,,,,,a,1,1.1395,"[""0.169"",""0.439"",""0.877"",""0.968""]","[1,0,1,1]",0,11,11,11,1,0,1,,,0,FALSE,,,,,,,,,,,,,,,,,,,,,,,,,,,,,,
,Dawid,001,2022-04-29_03h03.55.462,classification_task,2021.2.3,Win32,145.5604076,601ef06dec317f3e2f1d48a5,626b377229c10585ec392f89,626b3a2248bfea07056a172c,,,,,,,,,,,,,,,,,,,,,,,l,1,1.0705,"[""0.109"",""0.406"",""0.585"",""0.841""]","[1,0,1,1]",0,12,12,12,1,1,1,,,0,FALSE,,,,,,,,,,,,,,,,,,,,,,,,,,,,,,
,Dawid,001,2022-04-29_03h03.55.462,classification_task,2021.2.3,Win32,145.5604076,601ef06dec317f3e2f1d48a5,626b377229c10585ec392f89,626b3a2248bfea07056a172c,,,,,,,,,,,,,,,,,,,,,,,l,1,1.0067,"[""0.069"",""0.363"",""0.740"",""0.799""]","[1,1,0,1]",0,13,13,13,1,1,0,,,0,FALSE,,,,,,,,,,,,,,,,,,,,,,,,,,,,,,
,Dawid,001,2022-04-29_03h03.55.462,classification_task,2021.2.3,Win32,145.5604076,601ef06dec317f3e2f1d48a5,626b377229c10585ec392f89,626b3a2248bfea07056a172c,,,,,,,,,,,,,,,,,,,,,,,a,1,0.6023,"[""0.278"",""0.522"",""0.671"",""0.327""]","[1,1,1,0]",0,14,14,14,1,0,0,,,0,FALSE,,,,,,,,,,,,,,,,,,,,,,,,,,,,,,
,Dawid,001,2022-04-29_03h03.55.462,classification_task,2021.2.3,Win32,145.5604076,601ef06dec317f3e2f1d48a5,626b377229c10585ec392f89,626b3a2248bfea07056a172c,,,,,,,,,,,,,,,,,,,,,,,l,1,1.661,"[""0.109"",""0.220"",""0.327"",""0.841""]","[1,1,0,1]",0,15,15,15,1,1,1,,,0,FALSE,,,,,,,,,,,,,,,,,,,,,,,,,,,,,,
,Dawid,001,2022-04-29_03h03.55.462,classification_task,2021.2.3,Win32,145.5604076,601ef06dec317f3e2f1d48a5,626b377229c10585ec392f89,626b3a2248bfea07056a172c,,,,,,,,,,,,,,,,,,,,,,,a,1,1.863,"[""0.435"",""0.479"",""0.877"",""0.968""]","[0,1,1,1]",0,16,16,16,1,0,1,,,0,FALSE,,,,,,,,,,,,,,,,,,,,,,,,,,,,,,
,Dawid,001,2022-04-29_03h03.55.462,classification_task,2021.2.3,Win32,145.5604076,601ef06dec317f3e2f1d48a5,626b377229c10585ec392f89,626b3a2248bfea07056a172c,,,,,,,,,,,,,,,,,,,,,,,a,1,0.798,"[""0.278"",""0.522"",""0.671"",""0.705""]","[1,1,1,0]",0,17,17,17,1,0,0,,,0,FALSE,,,,,,,,,,,,,,,,,,,,,,,,,,,,,,
,Dawid,001,2022-04-29_03h03.55.462,classification_task,2021.2.3,Win32,145.5604076,601ef06dec317f3e2f1d48a5,626b377229c10585ec392f89,626b3a2248bfea07056a172c,,,,,,,,,,,,,,,,,,,,,,,a,1,1.095,"[""0.169"",""0.758"",""0.877"",""0.968""]","[1,0,1,1]",0,18,18,18,1,0,1,,,0,FALSE,,,,,,,,,,,,,,,,,,,,,,,,,,,,,,
,Dawid,001,2022-04-29_03h03.55.462,classification_task,2021.2.3,Win32,145.5604076,601ef06dec317f3e2f1d48a5,626b377229c10585ec392f89,626b3a2248bfea07056a172c,,,,,,,,,,,,,,,,,,,,,,,a,1,1.5154,"[""0.278"",""0.714"",""0.671"",""0.921""]","[1,0,1,1]",0,19,19,19,1,0,0,,,0,FALSE,,,,,,,,,,,,,,,,,,,,,,,,,,,,,,
,Dawid,001,2022-04-29_03h03.55.462,classification_task,2021.2.3,Win32,145.5604076,601ef06dec317f3e2f1d48a5,626b377229c10585ec392f89,626b3a2248bfea07056a172c,,,,,,,,,,,,,,,,,,,,,,,l,1,1.4677,"[""0.109"",""0.705"",""0.585"",""0.841""]","[1,0,1,1]",0,20,20,20,1,1,1,,,0,FALSE,,,,,,,,,,,,,,,,,,,,,,,,,,,,,,
,Dawid,001,2022-04-29_03h03.55.462,classification_task,2021.2.3,Win32,145.5604076,601ef06dec317f3e2f1d48a5,626b377229c10585ec392f89,626b3a2248bfea07056a172c,,,,,,,,,,,,,,,,,,,,,,,l,1,1.0497,"[""0.069"",""0.363"",""0.714"",""0.799""]","[1,1,0,1]",0,21,21,21,1,1,0,,,0,FALSE,,,,,,,,,,,,,,,,,,,,,,,,,,,,,,
,Dawid,001,2022-04-29_03h03.55.462,classification_task,2021.2.3,Win32,145.5604076,601ef06dec317f3e2f1d48a5,626b377229c10585ec392f89,626b3a2248bfea07056a172c,,,,,,,,,,,,,,,,,,,,,,,a,1,1.3839,"[""0.278"",""0.522"",""0.714"",""0.921""]","[1,1,0,1]",0,22,22,22,1,0,0,,,0,FALSE,,,,,,,,,,,,,,,,,,,,,,,,,,,,,,
,Dawid,001,2022-04-29_03h03.55.462,classification_task,2021.2.3,Win32,145.5604076,601ef06dec317f3e2f1d48a5,626b377229c10585ec392f89,626b3a2248bfea07056a172c,,,,,,,,,,,,,,,,,,,,,,,l,1,1.4176,"[""0.109"",""0.220"",""0.723"",""0.841""]","[1,1,0,1]",0,23,23,23,1,1,1,,,0,FALSE,,,,,,,,,,,,,,,,,,,,,,,,,,,,,,
,Dawid,001,2022-04-29_03h03.55.462,classification_task,2021.2.3,Win32,145.5604076,601ef06dec317f3e2f1d48a5,626b377229c10585ec392f89,626b3a2248bfea07056a172c,,,,,,,,,,,,,,,,,,,,,,,a,1,0.9727,"[""0.169"",""0.479"",""0.877"",""0.432""]","[1,1,1,0]",0,24,24,24,1,0,1,,,0,FALSE,,,,,,,,,,,,,,,,,,,,,,,,,,,,,,
,Dawid,001,2022-04-29_03h03.55.462,classification_task,2021.2.3,Win32,145.5604076,601ef06dec317f3e2f1d48a5,626b377229c10585ec392f89,626b3a2248bfea07056a172c,,,,,,,,,,,,,,,,,,,,,,,l,1,1.0826,"[""0.109"",""0.220"",""0.585"",""0.327""]","[1,1,1,0]",0,25,25,25,1,1,1,,,0,FALSE,,,,,,,,,,,,,,,,,,,,,,,,,,,,,,
,Dawid,001,2022-04-29_03h03.55.462,classification_task,2021.2.3,Win32,145.5604076,601ef06dec317f3e2f1d48a5,626b377229c10585ec392f89,626b3a2248bfea07056a172c,,,,,,,,,,,,,,,,,,,,,,,l,1,0.8273,"[""0.069"",""0.714"",""0.633"",""0.799""]","[1,0,1,1]",0,26,26,26,1,1,0,,,0,FALSE,,,,,,,,,,,,,,,,,,,,,,,,,,,,,,
,Dawid,001,2022-04-29_03h03.55.462,classification_task,2021.2.3,Win32,145.5604076,601ef06dec317f3e2f1d48a5,626b377229c10585ec392f89,626b3a2248bfea07056a172c,,,,,,,,,,,,,,,,,,,,,,,a,1,1.0823,"[""0.169"",""0.479"",""0.435"",""0.968""]","[1,1,0,1]",0,27,27,27,1,0,1,,,0,FALSE,,,,,,,,,,,,,,,,,,,,,,,,,,,,,,
,Dawid,001,2022-04-29_03h03.55.462,classification_task,2021.2.3,Win32,145.5604076,601ef06dec317f3e2f1d48a5,626b377229c10585ec392f89,626b3a2248bfea07056a172c,,,,,,,,,,,,,,,,,,,,,,,l,1,2.7306,"[""0.405"",""0.220"",""0.585"",""0.841""]","[0,1,1,1]",0,28,28,28,1,1,1,,,0,FALSE,,,,,,,,,,,,,,,,,,,,,,,,,,,,,,
,Dawid,001,2022-04-29_03h03.55.462,classification_task,2021.2.3,Win32,145.5604076,601ef06dec317f3e2f1d48a5,626b377229c10585ec392f89,626b3a2248bfea07056a172c,,,,,,,,,,,,,,,,,,,,,,,l,1,0.8259,"[""0.069"",""0.363"",""0.633"",""0.327""]","[1,1,1,0]",0,29,29,29,1,1,0,,,0,FALSE,,,,,,,,,,,,,,,,,,,,,,,,,,,,,,
,Dawid,001,2022-04-29_03h03.55.462,classification_task,2021.2.3,Win32,145.5604076,601ef06dec317f3e2f1d48a5,626b377229c10585ec392f89,626b3a2248bfea07056a172c,,,,,,,,,,,,,,,,,,,,,,,a,1,0.5208,"[""0.439"",""0.522"",""0.671"",""0.921""]","[0,1,1,1]",0,30,30,30,1,0,0,,,0,FALSE,,,,,,,,,,,,,,,,,,,,,,,,,,,,,,
,Dawid,001,2022-04-29_03h03.55.462,classification_task,2021.2.3,Win32,145.5604076,601ef06dec317f3e2f1d48a5,626b377229c10585ec392f89,626b3a2248bfea07056a172c,,,,,,,,,,,,,,,,,,,,,,,l,1,0.6672,"[""0.439"",""0.363"",""0.633"",""0.799""]","[0,1,1,1]",0,31,31,31,1,1,0,,,0,FALSE,,,,,,,,,,,,,,,,,,,,,,,,,,,,,,
,Dawid,001,2022-04-29_03h03.55.462,classification_task,2021.2.3,Win32,145.5604076,601ef06dec317f3e2f1d48a5,626b377229c10585ec392f89,626b3a2248bfea07056a172c,,,,,,,,,,,,,,,,,,,,,,,l,1,1.1154,"[""0.329"",""0.363"",""0.633"",""0.799""]","[0,1,1,1]",0,32,32,32,1,1,0,,,0,FALSE,,,,,,,,,,,,,,,,,,,,,,,,,,,,,,
,Dawid,001,2022-04-29_03h03.55.462,classification_task,2021.2.3,Win32,145.5604076,601ef06dec317f3e2f1d48a5,626b377229c10585ec392f89,626b3a2248bfea07056a172c,,,,,,,,,,,,,,,,,,,,,,,a,1,0.6609,"[""0.278"",""0.522"",""0.671"",""0.737""]","[1,1,1,0]",0,33,33,33,1,0,0,,,0,FALSE,,,,,,,,,,,,,,,,,,,,,,,,,,,,,,
,Dawid,001,2022-04-29_03h03.55.462,classification_task,2021.2.3,Win32,145.5604076,601ef06dec317f3e2f1d48a5,626b377229c10585ec392f89,626b3a2248bfea07056a172c,,,,,,,,,,,,,,,,,,,,,,,a,1,0.5709,"[""0.278"",""0.723"",""0.671"",""0.921""]","[1,0,1,1]",0,34,34,34,1,0,0,,,0,FALSE,,,,,,,,,,,,,,,,,,,,,,,,,,,,,,
,Dawid,001,2022-04-29_03h03.55.462,classification_task,2021.2.3,Win32,145.5604076,601ef06dec317f3e2f1d48a5,626b377229c10585ec392f89,626b3a2248bfea07056a172c,,,,,,,,,,,,,,,,,,,,,,,l,1,1.3082,"[""0.109"",""0.220"",""0.585"",""0.723""]","[1,1,1,0]",0,35,35,35,1,1,1,,,0,FALSE,,,,,,,,,,,,,,,,,,,,,,,,,,,,,,
,Dawid,001,2022-04-29_03h03.55.462,classification_task,2021.2.3,Win32,145.5604076,601ef06dec317f3e2f1d48a5,626b377229c10585ec392f89,626b3a2248bfea07056a172c,,,,,,,,,,,,,,,,,,,,,,,l,1,1.2977,"[""0.329"",""0.220"",""0.585"",""0.841""]","[0,1,1,1]",0,36,36,36,1,1,1,,,0,FALSE,,,,,,,,,,,,,,,,,,,,,,,,,,,,,,
,Dawid,001,2022-04-29_03h03.55.462,classification_task,2021.2.3,Win32,145.5604076,601ef06dec317f3e2f1d48a5,626b377229c10585ec392f89,626b3a2248bfea07056a172c,,,,,,,,,,,,,,,,,,,,,,,l,1,1.0401,"[""0.069"",""0.363"",""0.705"",""0.799""]","[1,1,0,1]",0,37,37,37,1,1,0,,,0,FALSE,,,,,,,,,,,,,,,,,,,,,,,,,,,,,,
,Dawid,001,2022-04-29_03h03.55.462,classification_task,2021.2.3,Win32,145.5604076,601ef06dec317f3e2f1d48a5,626b377229c10585ec392f89,626b3a2248bfea07056a172c,,,,,,,,,,,,,,,,,,,,,,,a,1,1.411,"[""0.169"",""0.479"",""0.877"",""0.740""]","[1,1,1,0]",0,38,38,38,1,0,1,,,0,FALSE,,,,,,,,,,,,,,,,,,,,,,,,,,,,,,
,Dawid,001,2022-04-29_03h03.55.462,classification_task,2021.2.3,Win32,145.5604076,601ef06dec317f3e2f1d48a5,626b377229c10585ec392f89,626b3a2248bfea07056a172c,,,,,,,,,,,,,,,,,,,,,,,l,1,1.676,"[""0.109"",""0.329"",""0.585"",""0.841""]","[1,0,1,1]",0,39,39,39,1,1,1,,,0,FALSE,,,,,,,,,,,,,,,,,,,,,,,,,,,,,,
,Dawid,001,2022-04-29_03h03.55.462,classification_task,2021.2.3,Win32,145.5604076,601ef06dec317f3e2f1d48a5,626b377229c10585ec392f89,626b3a2248bfea07056a172c,,,,,,,,,,,,,,,,,,,,,,,l,1,1.1192,"[""0.069"",""0.705"",""0.633"",""0.799""]","[1,0,1,1]",0,40,40,40,1,1,0,,,0,FALSE,,,,,,,,,,,,,,,,,,,,,,,,,,,,,,
,Dawid,001,2022-04-29_03h03.55.462,classification_task,2021.2.3,Win32,145.5604076,601ef06dec317f3e2f1d48a5,626b377229c10585ec392f89,626b3a2248bfea07056a172c,,,,,,,,,,,,,,,,,,,,,,,l,1,1.4889,"[""0.109"",""0.220"",""0.432"",""0.841""]","[1,1,0,1]",0,41,41,41,1,1,1,,,0,FALSE,,,,,,,,,,,,,,,,,,,,,,,,,,,,,,
,Dawid,001,2022-04-29_03h03.55.462,classification_task,2021.2.3,Win32,145.5604076,601ef06dec317f3e2f1d48a5,626b377229c10585ec392f89,626b3a2248bfea07056a172c,,,,,,,,,,,,,,,,,,,,,,,a,1,1.0352,"[""0.705"",""0.522"",""0.671"",""0.921""]","[0,1,1,1]",0,42,42,42,1,0,0,,,0,FALSE,,,,,,,,,,,,,,,,,,,,,,,,,,,,,,
,Dawid,001,2022-04-29_03h03.55.462,classification_task,2021.2.3,Win32,145.5604076,601ef06dec317f3e2f1d48a5,626b377229c10585ec392f89,626b3a2248bfea07056a172c,,,,,,,,,,,,,,,,,,,,,,,a,1,2.5364,"[""0.327"",""0.479"",""0.877"",""0.968""]","[0,1,1,1]",0,43,43,43,1,0,1,,,0,FALSE,,,,,,,,,,,,,,,,,,,,,,,,,,,,,,
,Dawid,001,2022-04-29_03h03.55.462,classification_task,2021.2.3,Win32,145.5604076,601ef06dec317f3e2f1d48a5,626b377229c10585ec392f89,626b3a2248bfea07056a172c,,,,,,,,,,,,,,,,,,,,,,,a,1,0.7783,"[""0.278"",""0.522"",""0.439"",""0.921""]","[1,1,0,1]",0,44,44,44,1,0,0,,,0,FALSE,,,,,,,,,,,,,,,,,,,,,,,,,,,,,,
,Dawid,001,2022-04-29_03h03.55.462,classification_task,2021.2.3,Win32,145.5604076,601ef06dec317f3e2f1d48a5,626b377229c10585ec392f89,626b3a2248bfea07056a172c,,,,,,,,,,,,,,,,,,,,,,,l,1,0.7744,"[""0.069"",""0.363"",""0.633"",""0.398""]","[1,1,1,0]",0,45,45,45,1,1,0,,,0,FALSE,,,,,,,,,,,,,,,,,,,,,,,,,,,,,,
,Dawid,001,2022-04-29_03h03.55.462,classification_task,2021.2.3,Win32,145.5604076,601ef06dec317f3e2f1d48a5,626b377229c10585ec392f89,626b3a2248bfea07056a172c,,,,,,,,,,,,,,,,,,,,,,,a,1,0.9701,"[""0.169"",""0.327"",""0.877"",""0.968""]","[1,0,1,1]",0,46,46,46,1,0,1,,,0,FALSE,,,,,,,,,,,,,,,,,,,,,,,,,,,,,,
,Dawid,001,2022-04-29_03h03.55.462,classification_task,2021.2.3,Win32,145.5604076,601ef06dec317f3e2f1d48a5,626b377229c10585ec392f89,626b3a2248bfea07056a172c,,,,,,,,,,,,,,,,,,,,,,,a,1,0.8334,"[""0.169"",""0.479"",""0.329"",""0.968""]","[1,1,0,1]",0,47,47,47,1,0,1,,,0,FALSE,,,,,,,,,,,,,,,,,,,,,,,,,,,,,,
,Dawid,001,2022-04-29_03h03.55.462,classification_task,2021.2.3,Win32,145.5604076,601ef06dec317f3e2f1d48a5,626b377229c10585ec392f89,626b3a2248bfea07056a172c,,,,,,,,,,,,,,,,,,,,,,,l,1,0.781,"[""0.109"",""0.405"",""0.585"",""0.841""]","[1,0,1,1]",0,48,48,48,1,1,1,,,0,FALSE,,,,,,,,,,,,,,,,,,,,,,,,,,,,,,
,Dawid,001,2022-04-29_03h03.55.462,classification_task,2021.2.3,Win32,145.5604076,601ef06dec317f3e2f1d48a5,626b377229c10585ec392f89,626b3a2248bfea07056a172c,,,,,,,,,,,,,,,,,,,,,,,a,1,3.2651,"[""0.705"",""0.522"",""0.671"",""0.921""]","[0,1,1,1]",0,49,49,49,1,0,0,,,0,FALSE,,,,,,,,,,,,,,,,,,,,,,,,,,,,,,
,Dawid,001,2022-04-29_03h03.55.462,classification_task,2021.2.3,Win32,145.5604076,601ef06dec317f3e2f1d48a5,626b377229c10585ec392f89,626b3a2248bfea07056a172c,,,,,,,,,,,,,,,,,,,,,,,a,1,1.1519,"[""0.169"",""0.758"",""0.877"",""0.968""]","[1,0,1,1]",0,50,50,50,1,0,1,,,0,FALSE,,,,,,,,,,,,,,,,,,,,,,,,,,,,,,
,Dawid,001,2022-04-29_03h03.55.462,classification_task,2021.2.3,Win32,145.5604076,601ef06dec317f3e2f1d48a5,626b377229c10585ec392f89,626b3a2248bfea07056a172c,,,,,,,,,,,,,,,,,,,,,,,a,1,2.2276,"[""0.714"",""0.479"",""0.877"",""0.968""]","[0,1,1,1]",0,51,51,51,1,0,1,,,0,FALSE,,,,,,,,,,,,,,,,,,,,,,,,,,,,,,
,Dawid,001,2022-04-29_03h03.55.462,classification_task,2021.2.3,Win32,145.5604076,601ef06dec317f3e2f1d48a5,626b377229c10585ec392f89,626b3a2248bfea07056a172c,,,,,,,,,,,,,,,,,,,,,,,a,1,1.1243,"[""0.278"",""0.522"",""0.671"",""0.405""]","[1,1,1,0]",0,52,52,52,1,0,0,,,0,FALSE,,,,,,,,,,,,,,,,,,,,,,,,,,,,,,
,Dawid,001,2022-04-29_03h03.55.462,classification_task,2021.2.3,Win32,145.5604076,601ef06dec317f3e2f1d48a5,626b377229c10585ec392f89,626b3a2248bfea07056a172c,,,,,,,,,,,,,,,,,,,,,,,a,1,0.7662,"[""0.278"",""0.522"",""0.758"",""0.921""]","[1,1,0,1]",0,53,53,53,1,0,0,,,0,FALSE,,,,,,,,,,,,,,,,,,,,,,,,,,,,,,
,Dawid,001,2022-04-29_03h03.55.462,classification_task,2021.2.3,Win32,145.5604076,601ef06dec317f3e2f1d48a5,626b377229c10585ec392f89,626b3a2248bfea07056a172c,,,,,,,,,,,,,,,,,,,,,,,a,1,0.7513,"[""0.278"",""0.405"",""0.671"",""0.921""]","[1,0,1,1]",0,54,54,54,1,0,0,,,0,FALSE,,,,,,,,,,,,,,,,,,,,,,,,,,,,,,
,Dawid,001,2022-04-29_03h03.55.462,classification_task,2021.2.3,Win32,145.5604076,601ef06dec317f3e2f1d48a5,626b377229c10585ec392f89,626b3a2248bfea07056a172c,,,,,,,,,,,,,,,,,,,,,,,a,1,1.0889,"[""0.169"",""0.479"",""0.877"",""0.435""]","[1,1,1,0]",0,55,55,55,1,0,1,,,0,FALSE,,,,,,,,,,,,,,,,,,,,,,,,,,,,,,
,Dawid,001,2022-04-29_03h03.55.462,classification_task,2021.2.3,Win32,145.5604076,601ef06dec317f3e2f1d48a5,626b377229c10585ec392f89,626b3a2248bfea07056a172c,,,,,,,,,,,,,,,,,,,,,,,l,1,1.1568,"[""0.069"",""0.363"",""0.633"",""0.723""]","[1,1,1,0]",0,56,56,56,1,1,0,,,0,FALSE,,,,,,,,,,,,,,,,,,,,,,,,,,,,,,
,Dawid,001,2022-04-29_03h03.55.462,classification_task,2021.2.3,Win32,145.5604076,601ef06dec317f3e2f1d48a5,626b377229c10585ec392f89,626b3a2248bfea07056a172c,,,,,,,,,,,,,,,,,,,,,,,l,1,3.3785,"[""0.329"",""0.363"",""0.633"",""0.799""]","[0,1,1,1]",0,57,57,57,1,1,0,,,0,FALSE,,,,,,,,,,,,,,,,,,,,,,,,,,,,,,
,Dawid,001,2022-04-29_03h03.55.462,classification_task,2021.2.3,Win32,145.5604076,601ef06dec317f3e2f1d48a5,626b377229c10585ec392f89,626b3a2248bfea07056a172c,,,,,,,,,,,,,,,,,,,,,,,l,1,2.1539,"[""0.714"",""0.220"",""0.585"",""0.841""]","[0,1,1,1]",0,58,58,58,1,1,1,,,0,FALSE,,,,,,,,,,,,,,,,,,,,,,,,,,,,,,
,Dawid,001,2022-04-29_03h03.55.462,classification_task,2021.2.3,Win32,145.5604076,601ef06dec317f3e2f1d48a5,626b377229c10585ec392f89,626b3a2248bfea07056a172c,,,,,,,,,,,,,,,,,,,,,,,l,1,1.1604,"[""0.069"",""0.405"",""0.633"",""0.799""]","[1,0,1,1]",0,59,59,59,1,1,0,,,0,FALSE,,,,,,,,,,,,,,,,,,,,,,,,,,,,,,
,Dawid,001,2022-04-29_03h03.55.462,classification_task,2021.2.3,Win32,145.5604076,601ef06dec317f3e2f1d48a5,626b377229c10585ec392f89,626b3a2248bfea07056a172c,,,,,,,,,,,,,,,,,,,,,,,l,1,1.6502,"[""0.109"",""0.220"",""0.439"",""0.841""]","[1,1,0,1]",0,60,60,60,1,1,1,,,0,FALSE,,,,,,,,,,,,,,,,,,,,,,,,,,,,,,
,Dawid,001,2022-04-29_03h03.55.462,classification_task,2021.2.3,Win32,145.5604076,601ef06dec317f3e2f1d48a5,626b377229c10585ec392f89,626b3a2248bfea07056a172c,,,,,,,,,,,,,,,,,,,,,,,l,1,2.0924,"[""0.069"",""0.363"",""0.435"",""0.799""]","[1,1,0,1]",0,61,61,61,1,1,0,,,0,FALSE,,,,,,,,,,,,,,,,,,,,,,,,,,,,,,
,Dawid,001,2022-04-29_03h03.55.462,classification_task,2021.2.3,Win32,145.5604076,601ef06dec317f3e2f1d48a5,626b377229c10585ec392f89,626b3a2248bfea07056a172c,,,,,,,,,,,,,,,,,,,,,,,a,1,0.9911,"[""0.169"",""0.479"",""0.758"",""0.968""]","[1,1,0,1]",0,62,62,62,1,0,1,,,0,FALSE,,,,,,,,,,,,,,,,,,,,,,,,,,,,,,
,Dawid,001,2022-04-29_03h03.55.462,classification_task,2021.2.3,Win32,145.5604076,601ef06dec317f3e2f1d48a5,626b377229c10585ec392f89,626b3a2248bfea07056a172c,,,,,,,,,,,,,,,,,,,,,,,l,1,1.5979,"[""0.109"",""0.220"",""0.585"",""0.716""]","[1,1,1,0]",0,63,63,63,1,1,1,,,0,FALSE,,,,,,,,,,,,,,,,,,,,,,,,,,,,,,
,Dawid,001,2022-04-29_03h03.55.462,classification_task,2021.2.3,Win32,145.5604076,601ef06dec317f3e2f1d48a5,626b377229c10585ec392f89,626b3a2248bfea07056a172c,,,,,,,,,,,,,,,,,,,,,,,,,,,,,,,,,,,,,,,0, ,,0,0.443856555,188.8413,0,1,1,1,1,2,2,,,,,,,,,,,,,,,,,
,Dawid,001,2022-04-29_03h03.55.462,classification_task,2021.2.3,Win32,145.5604076,601ef06dec317f3e2f1d48a5,626b377229c10585ec392f89,626b3a2248bfea07056a172c,,,,,,,,,,,,,,,,,,,,,,,,,,,,,,,,,,,,,,,1,  ,,0,1.252204586,193.7706,0,1,1,1,1,2,2,,,,,,,,,,,,,,,,,
,Dawid,001,2022-04-29_03h03.55.462,classification_task,2021.2.3,Win32,145.5604076,601ef06dec317f3e2f1d48a5,626b377229c10585ec392f89,626b3a2248bfea07056a172c,,,,,,,,,,,,,,,,,,,,,,,,,,,,,,,,,,,,,,,2,  ,,0,0.909269057,195.6186,0,1,1,1,1,2,2,,,,,,,,,,,,,,,,,
,Dawid,001,2022-04-29_03h03.55.462,classification_task,2021.2.3,Win32,145.5604076,601ef06dec317f3e2f1d48a5,626b377229c10585ec392f89,626b3a2248bfea07056a172c,,,,,,,,,,,,,,,,,,,,,,,,,,,,,,,,,,,,,,,,,,,,,0,1,1,1,1,,2,,,,,,,,,,,,,,,,,
,Dawid,001,2022-04-29_03h03.55.462,classification_task,2021.2.3,Win32,145.5604076,601ef06dec317f3e2f1d48a5,626b377229c10585ec392f89,626b3a2248bfea07056a172c,,,,,,,,,,,,,,,,,,,,,space,6.5066,l,1,1.5626,"[""0.758"",""0.220"",""0.585"",""0.841""]","[0,1,1,1]",0,0,0,0,1,1,1,,,0,FALSE,,,,,,,,,,,,,,,,,,,,,,,,,,,,,,
,Dawid,001,2022-04-29_03h03.55.462,classification_task,2021.2.3,Win32,145.5604076,601ef06dec317f3e2f1d48a5,626b377229c10585ec392f89,626b3a2248bfea07056a172c,,,,,,,,,,,,,,,,,,,,,,,l,1,2.4228,"[""0.406"",""0.363"",""0.633"",""0.799""]","[0,1,1,1]",0,1,1,1,1,1,0,,,0,FALSE,,,,,,,,,,,,,,,,,,,,,,,,,,,,,,
,Dawid,001,2022-04-29_03h03.55.462,classification_task,2021.2.3,Win32,145.5604076,601ef06dec317f3e2f1d48a5,626b377229c10585ec392f89,626b3a2248bfea07056a172c,,,,,,,,,,,,,,,,,,,,,,,l,1,1.1159,"[""0.069"",""0.740"",""0.633"",""0.799""]","[1,0,1,1]",0,2,2,2,1,1,0,,,0,FALSE,,,,,,,,,,,,,,,,,,,,,,,,,,,,,,
,Dawid,001,2022-04-29_03h03.55.462,classification_task,2021.2.3,Win32,145.5604076,601ef06dec317f3e2f1d48a5,626b377229c10585ec392f89,626b3a2248bfea07056a172c,,,,,,,,,,,,,,,,,,,,,,,l,1,1.9085,"[""0.109"",""0.220"",""0.714"",""0.841""]","[1,1,0,1]",0,3,3,3,1,1,1,,,0,FALSE,,,,,,,,,,,,,,,,,,,,,,,,,,,,,,
,Dawid,001,2022-04-29_03h03.55.462,classification_task,2021.2.3,Win32,145.5604076,601ef06dec317f3e2f1d48a5,626b377229c10585ec392f89,626b3a2248bfea07056a172c,,,,,,,,,,,,,,,,,,,,,,,l,1,1.3164,"[""0.069"",""0.363"",""0.633"",""0.406""]","[1,1,1,0]",0,4,4,4,1,1,0,,,0,FALSE,,,,,,,,,,,,,,,,,,,,,,,,,,,,,,
,Dawid,001,2022-04-29_03h03.55.462,classification_task,2021.2.3,Win32,145.5604076,601ef06dec317f3e2f1d48a5,626b377229c10585ec392f89,626b3a2248bfea07056a172c,,,,,,,,,,,,,,,,,,,,,,,a,1,0.8279,"[""0.278"",""0.439"",""0.671"",""0.921""]","[1,0,1,1]",0,5,5,5,1,0,0,,,0,FALSE,,,,,,,,,,,,,,,,,,,,,,,,,,,,,,
,Dawid,001,2022-04-29_03h03.55.462,classification_task,2021.2.3,Win32,145.5604076,601ef06dec317f3e2f1d48a5,626b377229c10585ec392f89,626b3a2248bfea07056a172c,,,,,,,,,,,,,,,,,,,,,,,l,1,1.248,"[""0.109"",""0.220"",""0.585"",""0.758""]","[1,1,1,0]",0,6,6,6,1,1,1,,,0,FALSE,,,,,,,,,,,,,,,,,,,,,,,,,,,,,,
,Dawid,001,2022-04-29_03h03.55.462,classification_task,2021.2.3,Win32,145.5604076,601ef06dec317f3e2f1d48a5,626b377229c10585ec392f89,626b3a2248bfea07056a172c,,,,,,,,,,,,,,,,,,,,,,,a,1,2.4999,"[""0.327"",""0.522"",""0.671"",""0.921""]","[0,1,1,1]",0,7,7,7,1,0,0,,,0,FALSE,,,,,,,,,,,,,,,,,,,,,,,,,,,,,,
,Dawid,001,2022-04-29_03h03.55.462,classification_task,2021.2.3,Win32,145.5604076,601ef06dec317f3e2f1d48a5,626b377229c10585ec392f89,626b3a2248bfea07056a172c,,,,,,,,,,,,,,,,,,,,,,,a,1,2.4506,"[""0.740"",""0.479"",""0.877"",""0.968""]","[0,1,1,1]",0,8,8,8,1,0,1,,,0,FALSE,,,,,,,,,,,,,,,,,,,,,,,,,,,,,,
,Dawid,001,2022-04-29_03h03.55.462,classification_task,2021.2.3,Win32,145.5604076,601ef06dec317f3e2f1d48a5,626b377229c10585ec392f89,626b3a2248bfea07056a172c,,,,,,,,,,,,,,,,,,,,,,,a,1,1.3859,"[""0.169"",""0.479"",""0.877"",""0.327""]","[1,1,1,0]",0,9,9,9,1,0,1,,,0,FALSE,,,,,,,,,,,,,,,,,,,,,,,,,,,,,,
,Dawid,001,2022-04-29_03h03.55.462,classification_task,2021.2.3,Win32,145.5604076,601ef06dec317f3e2f1d48a5,626b377229c10585ec392f89,626b3a2248bfea07056a172c,,,,,,,,,,,,,,,,,,,,,,,l,1,1.0072,"[""0.069"",""0.363"",""0.432"",""0.799""]","[1,1,0,1]",0,10,10,10,1,1,0,,,0,FALSE,,,,,,,,,,,,,,,,,,,,,,,,,,,,,,
,Dawid,001,2022-04-29_03h03.55.462,classification_task,2021.2.3,Win32,145.5604076,601ef06dec317f3e2f1d48a5,626b377229c10585ec392f89,626b3a2248bfea07056a172c,,,,,,,,,,,,,,,,,,,,,,,a,1,0.854,"[""0.278"",""0.522"",""0.671"",""0.740""]","[1,1,1,0]",0,11,11,11,1,0,0,,,0,FALSE,,,,,,,,,,,,,,,,,,,,,,,,,,,,,,
,Dawid,001,2022-04-29_03h03.55.462,classification_task,2021.2.3,Win32,145.5604076,601ef06dec317f3e2f1d48a5,626b377229c10585ec392f89,626b3a2248bfea07056a172c,,,,,,,,,,,,,,,,,,,,,,,l,1,1.1295,"[""0.109"",""0.740"",""0.585"",""0.841""]","[1,0,1,1]",0,12,12,12,1,1,1,,,0,FALSE,,,,,,,,,,,,,,,,,,,,,,,,,,,,,,
,Dawid,001,2022-04-29_03h03.55.462,classification_task,2021.2.3,Win32,145.5604076,601ef06dec317f3e2f1d48a5,626b377229c10585ec392f89,626b3a2248bfea07056a172c,,,,,,,,,,,,,,,,,,,,,,,a,1,1.0441,"[""0.169"",""0.723"",""0.877"",""0.968""]","[1,0,1,1]",0,13,13,13,1,0,1,,,0,FALSE,,,,,,,,,,,,,,,,,,,,,,,,,,,,,,
,Dawid,001,2022-04-29_03h03.55.462,classification_task,2021.2.3,Win32,145.5604076,601ef06dec317f3e2f1d48a5,626b377229c10585ec392f89,626b3a2248bfea07056a172c,,,,,,,,,,,,,,,,,,,,,,,a,1,1.3781,"[""0.278"",""0.522"",""0.439"",""0.921""]","[1,1,0,1]",0,14,14,14,1,0,0,,,0,FALSE,,,,,,,,,,,,,,,,,,,,,,,,,,,,,,
,Dawid,001,2022-04-29_03h03.55.462,classification_task,2021.2.3,Win32,145.5604076,601ef06dec317f3e2f1d48a5,626b377229c10585ec392f89,626b3a2248bfea07056a172c,,,,,,,,,,,,,,,,,,,,,,,a,1,1.05,"[""0.169"",""0.479"",""0.758"",""0.968""]","[1,1,0,1]",0,15,15,15,1,0,1,,,0,FALSE,,,,,,,,,,,,,,,,,,,,,,,,,,,,,,
,Dawid,001,2022-04-29_03h03.55.462,classification_task,2021.2.3,Win32,145.5604076,601ef06dec317f3e2f1d48a5,626b377229c10585ec392f89,626b3a2248bfea07056a172c,,,,,,,,,,,,,,,,,,,,,,,l,1,1.2087,"[""0.435"",""0.220"",""0.585"",""0.841""]","[0,1,1,1]",0,16,16,16,1,1,1,,,0,FALSE,,,,,,,,,,,,,,,,,,,,,,,,,,,,,,
,Dawid,001,2022-04-29_03h03.55.462,classification_task,2021.2.3,Win32,145.5604076,601ef06dec317f3e2f1d48a5,626b377229c10585ec392f89,626b3a2248bfea07056a172c,,,,,,,,,,,,,,,,,,,,,,,l,1,1.3038,"[""0.069"",""0.432"",""0.633"",""0.799""]","[1,0,1,1]",0,17,17,17,1,1,0,,,0,FALSE,,,,,,,,,,,,,,,,,,,,,,,,,,,,,,
,Dawid,001,2022-04-29_03h03.55.462,classification_task,2021.2.3,Win32,145.5604076,601ef06dec317f3e2f1d48a5,626b377229c10585ec392f89,626b3a2248bfea07056a172c,,,,,,,,,,,,,,,,,,,,,,,a,1,2.7355,"[""0.405"",""0.522"",""0.671"",""0.921""]","[0,1,1,1]",0,18,18,18,1,0,0,,,0,FALSE,,,,,,,,,,,,,,,,,,,,,,,,,,,,,,
,Dawid,001,2022-04-29_03h03.55.462,classification_task,2021.2.3,Win32,145.5604076,601ef06dec317f3e2f1d48a5,626b377229c10585ec392f89,626b3a2248bfea07056a172c,,,,,,,,,,,,,,,,,,,,,,,l,1,1.1902,"[""0.109"",""0.435"",""0.585"",""0.841""]","[1,0,1,1]",0,19,19,19,1,1,1,,,0,FALSE,,,,,,,,,,,,,,,,,,,,,,,,,,,,,,
,Dawid,001,2022-04-29_03h03.55.462,classification_task,2021.2.3,Win32,145.5604076,601ef06dec317f3e2f1d48a5,626b377229c10585ec392f89,626b3a2248bfea07056a172c,,,,,,,,,,,,,,,,,,,,,,,a,1,1.2101,"[""0.169"",""0.479"",""0.325"",""0.968""]","[1,1,0,1]",0,20,20,20,1,0,1,,,0,FALSE,,,,,,,,,,,,,,,,,,,,,,,,,,,,,,
,Dawid,001,2022-04-29_03h03.55.462,classification_task,2021.2.3,Win32,145.5604076,601ef06dec317f3e2f1d48a5,626b377229c10585ec392f89,626b3a2248bfea07056a172c,,,,,,,,,,,,,,,,,,,,,,,l,1,1.353,"[""0.109"",""0.220"",""0.716"",""0.841""]","[1,1,0,1]",0,21,21,21,1,1,1,,,0,FALSE,,,,,,,,,,,,,,,,,,,,,,,,,,,,,,
,Dawid,001,2022-04-29_03h03.55.462,classification_task,2021.2.3,Win32,145.5604076,601ef06dec317f3e2f1d48a5,626b377229c10585ec392f89,626b3a2248bfea07056a172c,,,,,,,,,,,,,,,,,,,,,,,l,1,1.2783,"[""0.069"",""0.363"",""0.737"",""0.799""]","[1,1,0,1]",0,22,22,22,1,1,0,,,0,FALSE,,,,,,,,,,,,,,,,,,,,,,,,,,,,,,
,Dawid,001,2022-04-29_03h03.55.462,classification_task,2021.2.3,Win32,145.5604076,601ef06dec317f3e2f1d48a5,626b377229c10585ec392f89,626b3a2248bfea07056a172c,,,,,,,,,,,,,,,,,,,,,,,l,1,0.8527,"[""0.069"",""0.363"",""0.633"",""0.435""]","[1,1,1,0]",0,23,23,23,1,1,0,,,0,FALSE,,,,,,,,,,,,,,,,,,,,,,,,,,,,,,
,Dawid,001,2022-04-29_03h03.55.462,classification_task,2021.2.3,Win32,145.5604076,601ef06dec317f3e2f1d48a5,626b377229c10585ec392f89,626b3a2248bfea07056a172c,,,,,,,,,,,,,,,,,,,,,,,a,1,1.6189,"[""0.716"",""0.479"",""0.877"",""0.968""]","[0,1,1,1]",0,24,24,24,1,0,1,,,0,FALSE,,,,,,,,,,,,,,,,,,,,,,,,,,,,,,
,Dawid,001,2022-04-29_03h03.55.462,classification_task,2021.2.3,Win32,145.5604076,601ef06dec317f3e2f1d48a5,626b377229c10585ec392f89,626b3a2248bfea07056a172c,,,,,,,,,,,,,,,,,,,,,,,a,1,1.0745,"[""0.169"",""0.479"",""0.877"",""0.737""]","[1,1,1,0]",0,25,25,25,1,0,1,,,0,FALSE,,,,,,,,,,,,,,,,,,,,,,,,,,,,,,
,Dawid,001,2022-04-29_03h03.55.462,classification_task,2021.2.3,Win32,145.5604076,601ef06dec317f3e2f1d48a5,626b377229c10585ec392f89,626b3a2248bfea07056a172c,,,,,,,,,,,,,,,,,,,,,,,a,0,3.5521,"[""0.406"",""0.363"",""0.633"",""0.799""]","[0,1,1,1]",0,26,26,26,1,1,0,,,0,FALSE,,,,,,,,,,,,,,,,,,,,,,,,,,,,,,
,Dawid,001,2022-04-29_03h03.55.462,classification_task,2021.2.3,Win32,145.5604076,601ef06dec317f3e2f1d48a5,626b377229c10585ec392f89,626b3a2248bfea07056a172c,,,,,,,,,,,,,,,,,,,,,,,a,1,1.146,"[""0.169"",""0.740"",""0.877"",""0.968""]","[1,0,1,1]",0,27,27,27,1,0,1,,,0,FALSE,,,,,,,,,,,,,,,,,,,,,,,,,,,,,,
,Dawid,001,2022-04-29_03h03.55.462,classification_task,2021.2.3,Win32,145.5604076,601ef06dec317f3e2f1d48a5,626b377229c10585ec392f89,626b3a2248bfea07056a172c,,,,,,,,,,,,,,,,,,,,,,,a,1,0.92,"[""0.278"",""0.439"",""0.671"",""0.921""]","[1,0,1,1]",0,28,28,28,1,0,0,,,0,FALSE,,,,,,,,,,,,,,,,,,,,,,,,,,,,,,
,Dawid,001,2022-04-29_03h03.55.462,classification_task,2021.2.3,Win32,145.5604076,601ef06dec317f3e2f1d48a5,626b377229c10585ec392f89,626b3a2248bfea07056a172c,,,,,,,,,,,,,,,,,,,,,,,a,1,0.6689,"[""0.278"",""0.522"",""0.671"",""0.439""]","[1,1,1,0]",0,29,29,29,1,0,0,,,0,FALSE,,,,,,,,,,,,,,,,,,,,,,,,,,,,,,
,Dawid,001,2022-04-29_03h03.55.462,classification_task,2021.2.3,Win32,145.5604076,601ef06dec317f3e2f1d48a5,626b377229c10585ec392f89,626b3a2248bfea07056a172c,,,,,,,,,,,,,,,,,,,,,,,a,1,0.6,"[""0.278"",""0.522"",""0.329"",""0.921""]","[1,1,0,1]",0,30,30,30,1,0,0,,,0,FALSE,,,,,,,,,,,,,,,,,,,,,,,,,,,,,,
,Dawid,001,2022-04-29_03h03.55.462,classification_task,2021.2.3,Win32,145.5604076,601ef06dec317f3e2f1d48a5,626b377229c10585ec392f89,626b3a2248bfea07056a172c,,,,,,,,,,,,,,,,,,,,,,,l,1,1.4105,"[""0.109"",""0.220"",""0.585"",""0.716""]","[1,1,1,0]",0,31,31,31,1,1,1,,,0,FALSE,,,,,,,,,,,,,,,,,,,,,,,,,,,,,,
,Dawid,001,2022-04-29_03h03.55.462,classification_task,2021.2.3,Win32,145.5604076,601ef06dec317f3e2f1d48a5,626b377229c10585ec392f89,626b3a2248bfea07056a172c,,,,,,,,,,,,,,,,,,,,,,,l,1,1.1464,"[""0.069"",""0.363"",""0.325"",""0.799""]","[1,1,0,1]",0,32,32,32,1,1,0,,,0,FALSE,,,,,,,,,,,,,,,,,,,,,,,,,,,,,,
,Dawid,001,2022-04-29_03h03.55.462,classification_task,2021.2.3,Win32,145.5604076,601ef06dec317f3e2f1d48a5,626b377229c10585ec392f89,626b3a2248bfea07056a172c,,,,,,,,,,,,,,,,,,,,,,,a,1,2.2849,"[""0.169"",""0.758"",""0.877"",""0.968""]","[1,0,1,1]",0,33,33,33,1,0,1,,,0,FALSE,,,,,,,,,,,,,,,,,,,,,,,,,,,,,,
,Dawid,001,2022-04-29_03h03.55.462,classification_task,2021.2.3,Win32,145.5604076,601ef06dec317f3e2f1d48a5,626b377229c10585ec392f89,626b3a2248bfea07056a172c,,,,,,,,,,,,,,,,,,,,,,,a,1,2.2261,"[""0.327"",""0.479"",""0.877"",""0.968""]","[0,1,1,1]",0,34,34,34,1,0,1,,,0,FALSE,,,,,,,,,,,,,,,,,,,,,,,,,,,,,,
,Dawid,001,2022-04-29_03h03.55.462,classification_task,2021.2.3,Win32,145.5604076,601ef06dec317f3e2f1d48a5,626b377229c10585ec392f89,626b3a2248bfea07056a172c,,,,,,,,,,,,,,,,,,,,,,,l,1,3.7766,"[""0.406"",""0.220"",""0.585"",""0.841""]","[0,1,1,1]",0,35,35,35,1,1,1,,,0,FALSE,,,,,,,,,,,,,,,,,,,,,,,,,,,,,,
,Dawid,001,2022-04-29_03h03.55.462,classification_task,2021.2.3,Win32,145.5604076,601ef06dec317f3e2f1d48a5,626b377229c10585ec392f89,626b3a2248bfea07056a172c,,,,,,,,,,,,,,,,,,,,,,,a,1,1.2047,"[""0.278"",""0.522"",""0.671"",""0.325""]","[1,1,1,0]",0,36,36,36,1,0,0,,,0,FALSE,,,,,,,,,,,,,,,,,,,,,,,,,,,,,,
,Dawid,001,2022-04-29_03h03.55.462,classification_task,2021.2.3,Win32,145.5604076,601ef06dec317f3e2f1d48a5,626b377229c10585ec392f89,626b3a2248bfea07056a172c,,,,,,,,,,,,,,,,,,,,,,,a,1,1.0855,"[""0.169"",""0.479"",""0.877"",""0.435""]","[1,1,1,0]",0,37,37,37,1,0,1,,,0,FALSE,,,,,,,,,,,,,,,,,,,,,,,,,,,,,,
,Dawid,001,2022-04-29_03h03.55.462,classification_task,2021.2.3,Win32,145.5604076,601ef06dec317f3e2f1d48a5,626b377229c10585ec392f89,626b3a2248bfea07056a172c,,,,,,,,,,,,,,,,,,,,,,,l,1,1.4448,"[""0.109"",""0.220"",""0.439"",""0.841""]","[1,1,0,1]",0,38,38,38,1,1,1,,,0,FALSE,,,,,,,,,,,,,,,,,,,,,,,,,,,,,,
,Dawid,001,2022-04-29_03h03.55.462,classification_task,2021.2.3,Win32,145.5604076,601ef06dec317f3e2f1d48a5,626b377229c10585ec392f89,626b3a2248bfea07056a172c,,,,,,,,,,,,,,,,,,,,,,,l,1,0.9328,"[""0.069"",""0.405"",""0.633"",""0.799""]","[1,0,1,1]",0,39,39,39,1,1,0,,,0,FALSE,,,,,,,,,,,,,,,,,,,,,,,,,,,,,,
,Dawid,001,2022-04-29_03h03.55.462,classification_task,2021.2.3,Win32,145.5604076,601ef06dec317f3e2f1d48a5,626b377229c10585ec392f89,626b3a2248bfea07056a172c,,,,,,,,,,,,,,,,,,,,,,,a,1,1.0864,"[""0.278"",""0.522"",""0.398"",""0.921""]","[1,1,0,1]",0,40,40,40,1,0,0,,,0,FALSE,,,,,,,,,,,,,,,,,,,,,,,,,,,,,,
,Dawid,001,2022-04-29_03h03.55.462,classification_task,2021.2.3,Win32,145.5604076,601ef06dec317f3e2f1d48a5,626b377229c10585ec392f89,626b3a2248bfea07056a172c,,,,,,,,,,,,,,,,,,,,,,,l,1,0.9163,"[""0.069"",""0.363"",""0.633"",""0.435""]","[1,1,1,0]",0,41,41,41,1,1,0,,,0,FALSE,,,,,,,,,,,,,,,,,,,,,,,,,,,,,,
,Dawid,001,2022-04-29_03h03.55.462,classification_task,2021.2.3,Win32,145.5604076,601ef06dec317f3e2f1d48a5,626b377229c10585ec392f89,626b3a2248bfea07056a172c,,,,,,,,,,,,,,,,,,,,,,,a,1,3.0193,"[""0.714"",""0.522"",""0.671"",""0.921""]","[0,1,1,1]",0,42,42,42,1,0,0,,,0,FALSE,,,,,,,,,,,,,,,,,,,,,,,,,,,,,,
,Dawid,001,2022-04-29_03h03.55.462,classification_task,2021.2.3,Win32,145.5604076,601ef06dec317f3e2f1d48a5,626b377229c10585ec392f89,626b3a2248bfea07056a172c,,,,,,,,,,,,,,,,,,,,,,,l,1,1.7091,"[""0.406"",""0.363"",""0.633"",""0.799""]","[0,1,1,1]",0,43,43,43,1,1,0,,,0,FALSE,,,,,,,,,,,,,,,,,,,,,,,,,,,,,,
,Dawid,001,2022-04-29_03h03.55.462,classification_task,2021.2.3,Win32,145.5604076,601ef06dec317f3e2f1d48a5,626b377229c10585ec392f89,626b3a2248bfea07056a172c,,,,,,,,,,,,,,,,,,,,,,,a,1,1.125,"[""0.169"",""0.479"",""0.716"",""0.968""]","[1,1,0,1]",0,44,44,44,1,0,1,,,0,FALSE,,,,,,,,,,,,,,,,,,,,,,,,,,,,,,
,Dawid,001,2022-04-29_03h03.55.462,classification_task,2021.2.3,Win32,145.5604076,601ef06dec317f3e2f1d48a5,626b377229c10585ec392f89,626b3a2248bfea07056a172c,,,,,,,,,,,,,,,,,,,,,,,a,1,1.0044,"[""0.278"",""0.435"",""0.671"",""0.921""]","[1,0,1,1]",0,45,45,45,1,0,0,,,0,FALSE,,,,,,,,,,,,,,,,,,,,,,,,,,,,,,
,Dawid,001,2022-04-29_03h03.55.462,classification_task,2021.2.3,Win32,145.5604076,601ef06dec317f3e2f1d48a5,626b377229c10585ec392f89,626b3a2248bfea07056a172c,,,,,,,,,,,,,,,,,,,,,,,l,1,1.375,"[""0.109"",""0.220"",""0.585"",""0.758""]","[1,1,1,0]",0,46,46,46,1,1,1,,,0,FALSE,,,,,,,,,,,,,,,,,,,,,,,,,,,,,,
,Dawid,001,2022-04-29_03h03.55.462,classification_task,2021.2.3,Win32,145.5604076,601ef06dec317f3e2f1d48a5,626b377229c10585ec392f89,626b3a2248bfea07056a172c,,,,,,,,,,,,,,,,,,,,,,,l,1,2.0088,"[""0.109"",""0.327"",""0.585"",""0.841""]","[1,0,1,1]",0,47,47,47,1,1,1,,,0,FALSE,,,,,,,,,,,,,,,,,,,,,,,,,,,,,,
,Dawid,001,2022-04-29_03h03.55.462,classification_task,2021.2.3,Win32,145.5604076,601ef06dec317f3e2f1d48a5,626b377229c10585ec392f89,626b3a2248bfea07056a172c,,,,,,,,,,,,,,,,,,,,,,,a,1,2.6636,"[""0.169"",""0.758"",""0.877"",""0.968""]","[1,0,1,1]",0,48,48,48,1,0,1,,,0,FALSE,,,,,,,,,,,,,,,,,,,,,,,,,,,,,,
,Dawid,001,2022-04-29_03h03.55.462,classification_task,2021.2.3,Win32,145.5604076,601ef06dec317f3e2f1d48a5,626b377229c10585ec392f89,626b3a2248bfea07056a172c,,,,,,,,,,,,,,,,,,,,,,,l,1,2.8096,"[""0.714"",""0.220"",""0.585"",""0.841""]","[0,1,1,1]",0,49,49,49,1,1,1,,,0,FALSE,,,,,,,,,,,,,,,,,,,,,,,,,,,,,,
,Dawid,001,2022-04-29_03h03.55.462,classification_task,2021.2.3,Win32,145.5604076,601ef06dec317f3e2f1d48a5,626b377229c10585ec392f89,626b3a2248bfea07056a172c,,,,,,,,,,,,,,,,,,,,,,,l,1,1.396,"[""0.069"",""0.363"",""0.633"",""0.405""]","[1,1,1,0]",0,50,50,50,1,1,0,,,0,FALSE,,,,,,,,,,,,,,,,,,,,,,,,,,,,,,
,Dawid,001,2022-04-29_03h03.55.462,classification_task,2021.2.3,Win32,145.5604076,601ef06dec317f3e2f1d48a5,626b377229c10585ec392f89,626b3a2248bfea07056a172c,,,,,,,,,,,,,,,,,,,,,,,l,1,2.4097,"[""0.325"",""0.363"",""0.633"",""0.799""]","[0,1,1,1]",0,51,51,51,1,1,0,,,0,FALSE,,,,,,,,,,,,,,,,,,,,,,,,,,,,,,
,Dawid,001,2022-04-29_03h03.55.462,classification_task,2021.2.3,Win32,145.5604076,601ef06dec317f3e2f1d48a5,626b377229c10585ec392f89,626b3a2248bfea07056a172c,,,,,,,,,,,,,,,,,,,,,,,a,1,1.126,"[""0.169"",""0.479"",""0.877"",""0.406""]","[1,1,1,0]",0,52,52,52,1,0,1,,,0,FALSE,,,,,,,,,,,,,,,,,,,,,,,,,,,,,,
,Dawid,001,2022-04-29_03h03.55.462,classification_task,2021.2.3,Win32,145.5604076,601ef06dec317f3e2f1d48a5,626b377229c10585ec392f89,626b3a2248bfea07056a172c,,,,,,,,,,,,,,,,,,,,,,,a,1,0.9016,"[""0.278"",""0.522"",""0.435"",""0.921""]","[1,1,0,1]",0,53,53,53,1,0,0,,,0,FALSE,,,,,,,,,,,,,,,,,,,,,,,,,,,,,,
,Dawid,001,2022-04-29_03h03.55.462,classification_task,2021.2.3,Win32,145.5604076,601ef06dec317f3e2f1d48a5,626b377229c10585ec392f89,626b3a2248bfea07056a172c,,,,,,,,,,,,,,,,,,,,,,,l,1,1.0978,"[""0.069"",""0.363"",""0.432"",""0.799""]","[1,1,0,1]",0,54,54,54,1,1,0,,,0,FALSE,,,,,,,,,,,,,,,,,,,,,,,,,,,,,,
,Dawid,001,2022-04-29_03h03.55.462,classification_task,2021.2.3,Win32,145.5604076,601ef06dec317f3e2f1d48a5,626b377229c10585ec392f89,626b3a2248bfea07056a172c,,,,,,,,,,,,,,,,,,,,,,,l,1,1.1451,"[""0.109"",""0.220"",""0.585"",""0.439""]","[1,1,1,0]",0,55,55,55,1,1,1,,,0,FALSE,,,,,,,,,,,,,,,,,,,,,,,,,,,,,,
,Dawid,001,2022-04-29_03h03.55.462,classification_task,2021.2.3,Win32,145.5604076,601ef06dec317f3e2f1d48a5,626b377229c10585ec392f89,626b3a2248bfea07056a172c,,,,,,,,,,,,,,,,,,,,,,,a,1,1.5359,"[""0.737"",""0.479"",""0.877"",""0.968""]","[0,1,1,1]",0,56,56,56,1,0,1,,,0,FALSE,,,,,,,,,,,,,,,,,,,,,,,,,,,,,,
,Dawid,001,2022-04-29_03h03.55.462,classification_task,2021.2.3,Win32,145.5604076,601ef06dec317f3e2f1d48a5,626b377229c10585ec392f89,626b3a2248bfea07056a172c,,,,,,,,,,,,,,,,,,,,,,,a,1,0.9645,"[""0.278"",""0.522"",""0.671"",""0.740""]","[1,1,1,0]",0,57,57,57,1,0,0,,,0,FALSE,,,,,,,,,,,,,,,,,,,,,,,,,,,,,,
,Dawid,001,2022-04-29_03h03.55.462,classification_task,2021.2.3,Win32,145.5604076,601ef06dec317f3e2f1d48a5,626b377229c10585ec392f89,626b3a2248bfea07056a172c,,,,,,,,,,,,,,,,,,,,,,,l,1,1.2274,"[""0.109"",""0.220"",""0.716"",""0.841""]","[1,1,0,1]",0,58,58,58,1,1,1,,,0,FALSE,,,,,,,,,,,,,,,,,,,,,,,,,,,,,,
,Dawid,001,2022-04-29_03h03.55.462,classification_task,2021.2.3,Win32,145.5604076,601ef06dec317f3e2f1d48a5,626b377229c10585ec392f89,626b3a2248bfea07056a172c,,,,,,,,,,,,,,,,,,,,,,,l,1,1.114,"[""0.069"",""0.758"",""0.633"",""0.799""]","[1,0,1,1]",0,59,59,59,1,1,0,,,0,FALSE,,,,,,,,,,,,,,,,,,,,,,,,,,,,,,
,Dawid,001,2022-04-29_03h03.55.462,classification_task,2021.2.3,Win32,145.5604076,601ef06dec317f3e2f1d48a5,626b377229c10585ec392f89,626b3a2248bfea07056a172c,,,,,,,,,,,,,,,,,,,,,,,a,1,2.2985,"[""0.325"",""0.522"",""0.671"",""0.921""]","[0,1,1,1]",0,60,60,60,1,0,0,,,0,FALSE,,,,,,,,,,,,,,,,,,,,,,,,,,,,,,
,Dawid,001,2022-04-29_03h03.55.462,classification_task,2021.2.3,Win32,145.5604076,601ef06dec317f3e2f1d48a5,626b377229c10585ec392f89,626b3a2248bfea07056a172c,,,,,,,,,,,,,,,,,,,,,,,l,1,1.4012,"[""0.109"",""0.714"",""0.585"",""0.841""]","[1,0,1,1]",0,61,61,61,1,1,1,,,0,FALSE,,,,,,,,,,,,,,,,,,,,,,,,,,,,,,
,Dawid,001,2022-04-29_03h03.55.462,classification_task,2021.2.3,Win32,145.5604076,601ef06dec317f3e2f1d48a5,626b377229c10585ec392f89,626b3a2248bfea07056a172c,,,,,,,,,,,,,,,,,,,,,,,a,1,1.5627,"[""0.169"",""0.479"",""0.325"",""0.968""]","[1,1,0,1]",0,62,62,62,1,0,1,,,0,FALSE,,,,,,,,,,,,,,,,,,,,,,,,,,,,,,
,Dawid,001,2022-04-29_03h03.55.462,classification_task,2021.2.3,Win32,145.5604076,601ef06dec317f3e2f1d48a5,626b377229c10585ec392f89,626b3a2248bfea07056a172c,,,,,,,,,,,,,,,,,,,,,,,a,1,1.4165,"[""0.278"",""0.327"",""0.671"",""0.921""]","[1,0,1,1]",0,63,63,63,1,0,0,,,0,FALSE,,,,,,,,,,,,,,,,,,,,,,,,,,,,,,
,Dawid,001,2022-04-29_03h03.55.462,classification_task,2021.2.3,Win32,145.5604076,601ef06dec317f3e2f1d48a5,626b377229c10585ec392f89,626b3a2248bfea07056a172c,,,,,,,,,,,,,,,,,,,,,,,,,,,,,,,,,,,,,,,0, ,,0,5.587889477,172.3576,0,2,2,2,1,2,3,,,,,,,,,,,,,,,,,
,Dawid,001,2022-04-29_03h03.55.462,classification_task,2021.2.3,Win32,145.5604076,601ef06dec317f3e2f1d48a5,626b377229c10585ec392f89,626b3a2248bfea07056a172c,,,,,,,,,,,,,,,,,,,,,,,,,,,,,,,,,,,,,,,1,  ,,0,8.796786204,175.5785,0,2,2,2,1,2,3,,,,,,,,,,,,,,,,,
,Dawid,001,2022-04-29_03h03.55.462,classification_task,2021.2.3,Win32,145.5604076,601ef06dec317f3e2f1d48a5,626b377229c10585ec392f89,626b3a2248bfea07056a172c,,,,,,,,,,,,,,,,,,,,,,,,,,,,,,,,,,,,,,,2,  ,,0,8.159905938,177.0521,0,2,2,2,1,2,3,,,,,,,,,,,,,,,,,
,Dawid,001,2022-04-29_03h03.55.462,classification_task,2021.2.3,Win32,145.5604076,601ef06dec317f3e2f1d48a5,626b377229c10585ec392f89,626b3a2248bfea07056a172c,,,,,,,,,,,,,,,,,,,,,,,,,,,,,,,,,,,,,,,,,,,,,0,2,2,2,1,,3,,,,,,,,,,,,,,,,,
,Dawid,001,2022-04-29_03h03.55.462,classification_task,2021.2.3,Win32,145.5604076,601ef06dec317f3e2f1d48a5,626b377229c10585ec392f89,626b3a2248bfea07056a172c,,,,,,,,,,,,,,,,,,,,,,,,,,,,,,,,,,,,,,,,,,,,,,,,,,,,,I believe the aid is a competent performer,,0.7,0,5,891.3657,0,0,0,0,1,0,,,,
,Dawid,001,2022-04-29_03h03.55.462,classification_task,2021.2.3,Win32,145.5604076,601ef06dec317f3e2f1d48a5,626b377229c10585ec392f89,626b3a2248bfea07056a172c,,,,,,,,,,,,,,,,,,,,,,,,,,,,,,,,,,,,,,,,,,,,,,,,,,,,,I trust the aid,,0.7,0,5,881.2731,0,0,0,0,1,0,,,,
,Dawid,001,2022-04-29_03h03.55.462,classification_task,2021.2.3,Win32,145.5604076,601ef06dec317f3e2f1d48a5,626b377229c10585ec392f89,626b3a2248bfea07056a172c,,,,,,,,,,,,,,,,,,,,,,,,,,,,,,,,,,,,,,,,,,,,,,,,,,,,,I have confidence in the advice given by the aid,,0.7,0,5,883.3549,0,0,0,0,1,0,,,,
,Dawid,001,2022-04-29_03h03.55.462,classification_task,2021.2.3,Win32,145.5604076,601ef06dec317f3e2f1d48a5,626b377229c10585ec392f89,626b3a2248bfea07056a172c,,,,,,,,,,,,,,,,,,,,,,,,,,,,,,,,,,,,,,,,,,,,,,,,,,,,,I can depend on the aid,,0.7,0,5,884.6907,0,0,0,0,1,0,,,,
,Dawid,001,2022-04-29_03h03.55.462,classification_task,2021.2.3,Win32,145.5604076,601ef06dec317f3e2f1d48a5,626b377229c10585ec392f89,626b3a2248bfea07056a172c,,,,,,,,,,,,,,,,,,,,,,,,,,,,,,,,,,,,,,,,,,,,,,,,,,,,,I can rely on the aid to behave in consistent ways,,0.7,0,3,897.8749,0,0,0,0,1,0,,,,
,Dawid,001,2022-04-29_03h03.55.462,classification_task,2021.2.3,Win32,145.5604076,601ef06dec317f3e2f1d48a5,626b377229c10585ec392f89,626b3a2248bfea07056a172c,,,,,,,,,,,,,,,,,,,,,,,,,,,,,,,,,,,,,,,,,,,,,,,,,,,,,I can rely on the aid to do its best every time I take its advice,,0.7,0,5,906.0244,0,0,0,0,1,0,,,,
,Dawid,001,2022-04-29_03h03.55.462,classification_task,2021.2.3,Win32,145.5604076,601ef06dec317f3e2f1d48a5,626b377229c10585ec392f89,626b3a2248bfea07056a172c,,,,,,,,,,,,,,,,,,,,,,,,,,,,,,,,,,,,,,,,,,,,,,,,,,,,,"On trials you completed with assistance from the aid, how frequently did you think the aid was correct?",,0.7,0,100%,,0,0,0,0,1,0,,,,
,Dawid,001,2022-04-29_03h03.55.462,classification_task,2021.2.3,Win32,145.5604076,601ef06dec317f3e2f1d48a5,626b377229c10585ec392f89,626b3a2248bfea07056a172c,,,,,,,,,,,,,,,,,,,,,,,,,,,,,,,,,,,,,,,,,,,,,,,,,,,,,"On trials you completed without the aid, how frequently did you think you were correct?",,0.7,0,95%,,0,0,0,0,1,0,,,,
,Dawid,001,2022-04-29_03h03.55.462,classification_task,2021.2.3,Win32,145.5604076,601ef06dec317f3e2f1d48a5,626b377229c10585ec392f89,626b3a2248bfea07056a172c,,,,,,,,,,,,,,,,,,,,,,,,,,,,,,,,,,,,,,,,,,,,,,,,,,,,,,,,,,,0,0,0,0,1,,,,,
,Dawid,001,2022-04-29_03h03.55.462,classification_task,2021.2.3,Win32,145.5604076,601ef06dec317f3e2f1d48a5,626b377229c10585ec392f89,626b3a2248bfea07056a172c,,,,,,,,,,,,,,,,,,,,,,,,,,,,,,,,,,,,,,,,,,,,,,,,,,,,,,,,,,,,,,,,,space,11.5111,934.0895,
,Dawid,001,2022-04-29_03h03.55.462,classification_task,2021.2.3,Win32,145.5604076,601ef06dec317f3e2f1d48a5,626b377229c10585ec392f89,626b3a2248bfea07056a172c,,,,,,,,,,,,,,,,,,,,,,,,,,,,,,,,,,,,,,,,,,,,,,,,,,,,,,,,,,,,,,,,,,,,"Mozilla/5.0 (Windows NT 10.0; Win64; x64) AppleWebKit/537.36 (KHTML, like Gecko) Chrome/100.0.4896.127 Safari/537.36"
