usingWebGL,participant,session,date,expName,psychopyVersion,OS,frameRate,PROLIFIC_PID,STUDY_ID,SESSION_ID,signatures_friend,signatures_foe,band_ranges_top,band_ranges_bottom,formitemText,formtype,formundefined,formitemWidth,formindex,formresponse,formrt,key_resp_2.keys,key_resp_2.rt,tute_resp.keys,tute_resp.rt,tutorial.thisRepN,tutorial.thisTrialN,tutorial.thisN,tutorial.thisIndex,tutorial.ran,key_resp_4.keys,key_resp_4.rt,key_resp.keys,key_resp.corr,lines_presented,is_signal_presented,trials.thisRepN,trials.thisTrialN,trials.thisN,trials.thisIndex,trials.ran,vessel,active_band,lines,is_signal,supported_pos,catch_trial,key_resp.rt,debrief_formindex,debrief_formitemText,debrief_formtype,debrief_formitemWidth,debrief_formresponse,debrief_formrt,phases.thisRepN,phases.thisTrialN,phases.thisN,phases.thisIndex,phases.ran,phases.order,phase,key_resp_3.keys,trustitemText,trusttype,trustitemWidth,trustindex,trustresponse,trustrt,support_status.thisRepN,support_status.thisTrialN,support_status.thisN,support_status.thisIndex,support_status.ran,support_status.order,key_resp_5.keys,key_resp_5.rt,globalClockTime,userAgent
TRUE,Fany,001,2022-04-28_21h00.52.431,classification_task,2021.2.3,Win32,59.89099838,613ce1a3742f46925fc7290d,626b377229c10585ec392f8a,626b463f03d05b958b50b179,,,,,,,,,,,,,,,,,,,,,,,,,,,,,,,,,,,,,,,,,,,,,,,,,,,,,,,,,,,,,,,,,,,,
,Fany,001,2022-04-28_21h00.52.431,classification_task,2021.2.3,Win32,59.89099838,613ce1a3742f46925fc7290d,626b377229c10585ec392f8a,626b463f03d05b958b50b179,"[[""0.241"",""0.557"",""0.866"",""0.900""],[""0.304"",""0.362"",""0.609"",""0.960""]]","[[""0.097"",""0.188"",""0.444"",""0.719""],[""0.044"",""0.149"",""0.482"",""0.819""]]","[1,10]","[100,1000]",Video game experience,,,0.7,0,,,,,,,,,,,,,,,,,,,,,,,,,,,,,,,,,,,,,,,,,,,,,,,,,,,,,,,,,,,
,Fany,001,2022-04-28_21h00.52.431,classification_task,2021.2.3,Win32,59.89099838,613ce1a3742f46925fc7290d,626b377229c10585ec392f8a,626b463f03d05b958b50b179,,,,,Approximately how many hours did you spend playing video games in the last week?,,,0.7,0,3,,,,,,,,,,,,,,,,,,,,,,,,,,,,,,,,,,,,,,,,,,,,,,,,,,,,,,,,,,
,Fany,001,2022-04-28_21h00.52.431,classification_task,2021.2.3,Win32,59.89099838,613ce1a3742f46925fc7290d,626b377229c10585ec392f8a,626b463f03d05b958b50b179,,,,,"Which game did you play the most this year? (Enter ""None"" if you didn't play any)",,,0.7,0,4,,,,,,,,,,,,,,,,,,,,,,,,,,,,,,,,,,,,,,,,,,,,,,,,,,,,,,,,,,
,Fany,001,2022-04-28_21h00.52.431,classification_task,2021.2.3,Win32,59.89099838,613ce1a3742f46925fc7290d,626b377229c10585ec392f8a,626b463f03d05b958b50b179,,,,,Visual perception,,,0.7,0,,,,,,,,,,,,,,,,,,,,,,,,,,,,,,,,,,,,,,,,,,,,,,,,,,,,,,,,,,,
,Fany,001,2022-04-28_21h00.52.431,classification_task,2021.2.3,Win32,59.89099838,613ce1a3742f46925fc7290d,626b377229c10585ec392f8a,626b463f03d05b958b50b179,,,,,Do you have any form of color blindness?,,,0.7,0,No,105.1001,,,,,,,,,,,,,,,,,,,,,,,,,,,,,,,,,,,,,,,,,,,,,,,,,,,,,,,,,
,Fany,001,2022-04-28_21h00.52.431,classification_task,2021.2.3,Win32,59.89099838,613ce1a3742f46925fc7290d,626b377229c10585ec392f8a,626b463f03d05b958b50b179,,,,,Do you use software to change the colour temperature of your screen (e.g. f.lux)?,,,0.7,0,No,150.5022,,,,,,,,,,,,,,,,,,,,,,,,,,,,,,,,,,,,,,,,,,,,,,,,,,,,,,,,,
,Fany,001,2022-04-28_21h00.52.431,classification_task,2021.2.3,Win32,59.89099838,613ce1a3742f46925fc7290d,626b377229c10585ec392f8a,626b463f03d05b958b50b179,,,,,,,,,,,,space,60.8045,space,20.6758,0,0,0,0,1,,,,,,,,,,,,,,,,,,,,,,,,,,,,,,,,,,,,,,,,,,,,,,,,
,Fany,001,2022-04-28_21h00.52.431,classification_task,2021.2.3,Win32,59.89099838,613ce1a3742f46925fc7290d,626b377229c10585ec392f8a,626b463f03d05b958b50b179,,,,,,,,,,,,,,space,14.187,1,0,1,0,1,,,,,,,,,,,,,,,,,,,,,,,,,,,,,,,,,,,,,,,,,,,,,,,,
,Fany,001,2022-04-28_21h00.52.431,classification_task,2021.2.3,Win32,59.89099838,613ce1a3742f46925fc7290d,626b377229c10585ec392f8a,626b463f03d05b958b50b179,,,,,,,,,,,,,,space,25.5368,2,0,2,0,1,,,,,,,,,,,,,,,,,,,,,,,,,,,,,,,,,,,,,,,,,,,,,,,,
,Fany,001,2022-04-28_21h00.52.431,classification_task,2021.2.3,Win32,59.89099838,613ce1a3742f46925fc7290d,626b377229c10585ec392f8a,626b463f03d05b958b50b179,,,,,,,,,,,,,,space,10.0304,3,0,3,0,1,,,,,,,,,,,,,,,,,,,,,,,,,,,,,,,,,,,,,,,,,,,,,,,,
,Fany,001,2022-04-28_21h00.52.431,classification_task,2021.2.3,Win32,59.89099838,613ce1a3742f46925fc7290d,626b377229c10585ec392f8a,626b463f03d05b958b50b179,,,,,,,,,,,,,,space,30.4376,4,0,4,0,1,,,,,,,,,,,,,,,,,,,,,,,,,,,,,,,,,,,,,,,,,,,,,,,,
,Fany,001,2022-04-28_21h00.52.431,classification_task,2021.2.3,Win32,59.89099838,613ce1a3742f46925fc7290d,626b377229c10585ec392f8a,626b463f03d05b958b50b179,,,,,,,,,,,,,,,,,,,,,space,22.1719,,0,"[""0.241"",""0.557"",""0.755"",""0.900""]","[1,1,0,1]",0,0,0,0,1,0,0,,,0,FALSE,,,,,,,,,,,,,,,,,,,,,,,,,,,,,,,
,Fany,001,2022-04-28_21h00.52.431,classification_task,2021.2.3,Win32,59.89099838,613ce1a3742f46925fc7290d,626b377229c10585ec392f8a,626b463f03d05b958b50b179,,,,,,,,,,,,,,,,,,,,,,,l,1,"[""0.097"",""0.755"",""0.444"",""0.719""]","[1,0,1,1]",0,1,1,1,1,1,0,,,0,FALSE,6.261,,,,,,,,,,,,,,,,,,,,,,,,,,,,,,
,Fany,001,2022-04-28_21h00.52.431,classification_task,2021.2.3,Win32,59.89099838,613ce1a3742f46925fc7290d,626b377229c10585ec392f8a,626b463f03d05b958b50b179,,,,,,,,,,,,,,,,,,,,,,,a,1,"[""0.304"",""0.651"",""0.609"",""0.960""]","[1,0,1,1]",0,2,2,2,1,0,1,,,0,FALSE,7.7805,,,,,,,,,,,,,,,,,,,,,,,,,,,,,,
,Fany,001,2022-04-28_21h00.52.431,classification_task,2021.2.3,Win32,59.89099838,613ce1a3742f46925fc7290d,626b377229c10585ec392f8a,626b463f03d05b958b50b179,,,,,,,,,,,,,,,,,,,,,,,l,0,"[""0.241"",""0.557"",""0.866"",""0.651""]","[1,1,1,0]",0,3,3,3,1,0,0,,,0,FALSE,5.2699,,,,,,,,,,,,,,,,,,,,,,,,,,,,,,
,Fany,001,2022-04-28_21h00.52.431,classification_task,2021.2.3,Win32,59.89099838,613ce1a3742f46925fc7290d,626b377229c10585ec392f8a,626b463f03d05b958b50b179,,,,,,,,,,,,,,,,,,,,,,,l,1,"[""0.403"",""0.188"",""0.444"",""0.719""]","[0,1,1,1]",0,4,4,4,1,1,0,,,0,FALSE,8.9698,,,,,,,,,,,,,,,,,,,,,,,,,,,,,,
,Fany,001,2022-04-28_21h00.52.431,classification_task,2021.2.3,Win32,59.89099838,613ce1a3742f46925fc7290d,626b377229c10585ec392f8a,626b463f03d05b958b50b179,,,,,,,,,,,,,,,,,,,,,,,l,1,"[""0.044"",""0.149"",""0.645"",""0.819""]","[1,1,0,1]",0,5,5,5,1,1,1,,,0,FALSE,5.1585,,,,,,,,,,,,,,,,,,,,,,,,,,,,,,
,Fany,001,2022-04-28_21h00.52.431,classification_task,2021.2.3,Win32,59.89099838,613ce1a3742f46925fc7290d,626b377229c10585ec392f8a,626b463f03d05b958b50b179,,,,,,,,,,,,,,,,,,,,,,,l,1,"[""0.672"",""0.149"",""0.482"",""0.819""]","[0,1,1,1]",0,6,6,6,1,1,1,,,0,FALSE,4.8082,,,,,,,,,,,,,,,,,,,,,,,,,,,,,,
,Fany,001,2022-04-28_21h00.52.431,classification_task,2021.2.3,Win32,59.89099838,613ce1a3742f46925fc7290d,626b377229c10585ec392f8a,626b463f03d05b958b50b179,,,,,,,,,,,,,,,,,,,,,,,a,1,"[""0.682"",""0.557"",""0.866"",""0.900""]","[0,1,1,1]",0,7,7,7,1,0,0,,,0,FALSE,3.899,,,,,,,,,,,,,,,,,,,,,,,,,,,,,,
,Fany,001,2022-04-28_21h00.52.431,classification_task,2021.2.3,Win32,59.89099838,613ce1a3742f46925fc7290d,626b377229c10585ec392f8a,626b463f03d05b958b50b179,,,,,,,,,,,,,,,,,,,,,,,l,0,"[""0.304"",""0.362"",""0.609"",""0.755""]","[1,1,1,0]",0,8,8,8,1,0,1,,,0,FALSE,7.0684,,,,,,,,,,,,,,,,,,,,,,,,,,,,,,
,Fany,001,2022-04-28_21h00.52.431,classification_task,2021.2.3,Win32,59.89099838,613ce1a3742f46925fc7290d,626b377229c10585ec392f8a,626b463f03d05b958b50b179,,,,,,,,,,,,,,,,,,,,,,,a,1,"[""0.241"",""0.781"",""0.866"",""0.900""]","[1,0,1,1]",0,9,9,9,1,0,0,,,0,FALSE,4.2862,,,,,,,,,,,,,,,,,,,,,,,,,,,,,,
,Fany,001,2022-04-28_21h00.52.431,classification_task,2021.2.3,Win32,59.89099838,613ce1a3742f46925fc7290d,626b377229c10585ec392f8a,626b463f03d05b958b50b179,,,,,,,,,,,,,,,,,,,,,,,l,1,"[""0.097"",""0.188"",""0.444"",""0.783""]","[1,1,1,0]",0,10,10,10,1,1,0,,,0,FALSE,5.2495,,,,,,,,,,,,,,,,,,,,,,,,,,,,,,
,Fany,001,2022-04-28_21h00.52.431,classification_task,2021.2.3,Win32,59.89099838,613ce1a3742f46925fc7290d,626b377229c10585ec392f8a,626b463f03d05b958b50b179,,,,,,,,,,,,,,,,,,,,,,,l,1,"[""0.044"",""0.672"",""0.482"",""0.819""]","[1,0,1,1]",0,11,11,11,1,1,1,,,0,FALSE,4.8137,,,,,,,,,,,,,,,,,,,,,,,,,,,,,,
,Fany,001,2022-04-28_21h00.52.431,classification_task,2021.2.3,Win32,59.89099838,613ce1a3742f46925fc7290d,626b377229c10585ec392f8a,626b463f03d05b958b50b179,,,,,,,,,,,,,,,,,,,,,,,l,1,"[""0.044"",""0.149"",""0.482"",""0.765""]","[1,1,1,0]",0,12,12,12,1,1,1,,,0,FALSE,3.5766,,,,,,,,,,,,,,,,,,,,,,,,,,,,,,
,Fany,001,2022-04-28_21h00.52.431,classification_task,2021.2.3,Win32,59.89099838,613ce1a3742f46925fc7290d,626b377229c10585ec392f8a,626b463f03d05b958b50b179,,,,,,,,,,,,,,,,,,,,,,,a,1,"[""0.304"",""0.362"",""0.660"",""0.960""]","[1,1,0,1]",0,13,13,13,1,0,1,,,0,FALSE,3.1628,,,,,,,,,,,,,,,,,,,,,,,,,,,,,,
,Fany,001,2022-04-28_21h00.52.431,classification_task,2021.2.3,Win32,59.89099838,613ce1a3742f46925fc7290d,626b377229c10585ec392f8a,626b463f03d05b958b50b179,,,,,,,,,,,,,,,,,,,,,,,a,1,"[""0.682"",""0.362"",""0.609"",""0.960""]","[0,1,1,1]",0,14,14,14,1,0,1,,,0,FALSE,2.9799,,,,,,,,,,,,,,,,,,,,,,,,,,,,,,
,Fany,001,2022-04-28_21h00.52.431,classification_task,2021.2.3,Win32,59.89099838,613ce1a3742f46925fc7290d,626b377229c10585ec392f8a,626b463f03d05b958b50b179,,,,,,,,,,,,,,,,,,,,,,,l,1,"[""0.097"",""0.188"",""0.755"",""0.719""]","[1,1,0,1]",0,15,15,15,1,1,0,,,0,FALSE,3.3082,,,,,,,,,,,,,,,,,,,,,,,,,,,,,,
,Fany,001,2022-04-28_21h00.52.431,classification_task,2021.2.3,Win32,59.89099838,613ce1a3742f46925fc7290d,626b377229c10585ec392f8a,626b463f03d05b958b50b179,,,,,,,,,,,,,,,,,,,,,,,l,1,"[""0.044"",""0.149"",""0.755"",""0.819""]","[1,1,0,1]",0,16,16,16,1,1,1,,,0,FALSE,2.652,,,,,,,,,,,,,,,,,,,,,,,,,,,,,,
,Fany,001,2022-04-28_21h00.52.431,classification_task,2021.2.3,Win32,59.89099838,613ce1a3742f46925fc7290d,626b377229c10585ec392f8a,626b463f03d05b958b50b179,,,,,,,,,,,,,,,,,,,,,,,a,1,"[""0.304"",""0.362"",""0.644"",""0.960""]","[1,1,0,1]",0,17,17,17,1,0,1,,,0,FALSE,2.5949,,,,,,,,,,,,,,,,,,,,,,,,,,,,,,
,Fany,001,2022-04-28_21h00.52.431,classification_task,2021.2.3,Win32,59.89099838,613ce1a3742f46925fc7290d,626b377229c10585ec392f8a,626b463f03d05b958b50b179,,,,,,,,,,,,,,,,,,,,,,,a,1,"[""0.644"",""0.362"",""0.609"",""0.960""]","[0,1,1,1]",0,18,18,18,1,0,1,,,0,FALSE,2.8864,,,,,,,,,,,,,,,,,,,,,,,,,,,,,,
,Fany,001,2022-04-28_21h00.52.431,classification_task,2021.2.3,Win32,59.89099838,613ce1a3742f46925fc7290d,626b377229c10585ec392f8a,626b463f03d05b958b50b179,,,,,,,,,,,,,,,,,,,,,,,l,1,"[""0.097"",""0.188"",""0.765"",""0.719""]","[1,1,0,1]",0,19,19,19,1,1,0,,,0,FALSE,2.6041,,,,,,,,,,,,,,,,,,,,,,,,,,,,,,
,Fany,001,2022-04-28_21h00.52.431,classification_task,2021.2.3,Win32,59.89099838,613ce1a3742f46925fc7290d,626b377229c10585ec392f8a,626b463f03d05b958b50b179,,,,,,,,,,,,,,,,,,,,,,,l,1,"[""0.097"",""0.682"",""0.444"",""0.719""]","[1,0,1,1]",0,20,20,20,1,1,0,,,0,FALSE,3.3251,,,,,,,,,,,,,,,,,,,,,,,,,,,,,,
,Fany,001,2022-04-28_21h00.52.431,classification_task,2021.2.3,Win32,59.89099838,613ce1a3742f46925fc7290d,626b377229c10585ec392f8a,626b463f03d05b958b50b179,,,,,,,,,,,,,,,,,,,,,,,a,1,"[""0.304"",""0.651"",""0.609"",""0.960""]","[1,0,1,1]",0,21,21,21,1,0,1,,,0,FALSE,3.059,,,,,,,,,,,,,,,,,,,,,,,,,,,,,,
,Fany,001,2022-04-28_21h00.52.431,classification_task,2021.2.3,Win32,59.89099838,613ce1a3742f46925fc7290d,626b377229c10585ec392f8a,626b463f03d05b958b50b179,,,,,,,,,,,,,,,,,,,,,,,l,1,"[""0.672"",""0.149"",""0.482"",""0.819""]","[0,1,1,1]",0,22,22,22,1,1,1,,,0,FALSE,2.0973,,,,,,,,,,,,,,,,,,,,,,,,,,,,,,
,Fany,001,2022-04-28_21h00.52.431,classification_task,2021.2.3,Win32,59.89099838,613ce1a3742f46925fc7290d,626b377229c10585ec392f8a,626b463f03d05b958b50b179,,,,,,,,,,,,,,,,,,,,,,,l,1,"[""0.044"",""0.149"",""0.482"",""0.645""]","[1,1,1,0]",0,23,23,23,1,1,1,,,0,FALSE,3.289,,,,,,,,,,,,,,,,,,,,,,,,,,,,,,
,Fany,001,2022-04-28_21h00.52.431,classification_task,2021.2.3,Win32,59.89099838,613ce1a3742f46925fc7290d,626b377229c10585ec392f8a,626b463f03d05b958b50b179,,,,,,,,,,,,,,,,,,,,,,,a,1,"[""0.241"",""0.681"",""0.866"",""0.900""]","[1,0,1,1]",0,24,24,24,1,0,0,,,0,FALSE,2.4871,,,,,,,,,,,,,,,,,,,,,,,,,,,,,,
,Fany,001,2022-04-28_21h00.52.431,classification_task,2021.2.3,Win32,59.89099838,613ce1a3742f46925fc7290d,626b377229c10585ec392f8a,626b463f03d05b958b50b179,,,,,,,,,,,,,,,,,,,,,,,a,1,"[""0.781"",""0.557"",""0.866"",""0.900""]","[0,1,1,1]",0,25,25,25,1,0,0,,,0,FALSE,2.3982,,,,,,,,,,,,,,,,,,,,,,,,,,,,,,
,Fany,001,2022-04-28_21h00.52.431,classification_task,2021.2.3,Win32,59.89099838,613ce1a3742f46925fc7290d,626b377229c10585ec392f8a,626b463f03d05b958b50b179,,,,,,,,,,,,,,,,,,,,,,,a,1,"[""0.241"",""0.557"",""0.681"",""0.900""]","[1,1,0,1]",0,26,26,26,1,0,0,,,0,FALSE,2.3815,,,,,,,,,,,,,,,,,,,,,,,,,,,,,,
,Fany,001,2022-04-28_21h00.52.431,classification_task,2021.2.3,Win32,59.89099838,613ce1a3742f46925fc7290d,626b377229c10585ec392f8a,626b463f03d05b958b50b179,,,,,,,,,,,,,,,,,,,,,,,l,0,"[""0.241"",""0.557"",""0.866"",""0.783""]","[1,1,1,0]",0,27,27,27,1,0,0,,,0,FALSE,3.166,,,,,,,,,,,,,,,,,,,,,,,,,,,,,,
,Fany,001,2022-04-28_21h00.52.431,classification_task,2021.2.3,Win32,59.89099838,613ce1a3742f46925fc7290d,626b377229c10585ec392f8a,626b463f03d05b958b50b179,,,,,,,,,,,,,,,,,,,,,,,l,0,"[""0.304"",""0.362"",""0.609"",""0.645""]","[1,1,1,0]",0,28,28,28,1,0,1,,,0,FALSE,3.5199,,,,,,,,,,,,,,,,,,,,,,,,,,,,,,
,Fany,001,2022-04-28_21h00.52.431,classification_task,2021.2.3,Win32,59.89099838,613ce1a3742f46925fc7290d,626b377229c10585ec392f8a,626b463f03d05b958b50b179,,,,,,,,,,,,,,,,,,,,,,,l,1,"[""0.644"",""0.188"",""0.444"",""0.719""]","[0,1,1,1]",0,29,29,29,1,1,0,,,0,FALSE,2.9461,,,,,,,,,,,,,,,,,,,,,,,,,,,,,,
,Fany,001,2022-04-28_21h00.52.431,classification_task,2021.2.3,Win32,59.89099838,613ce1a3742f46925fc7290d,626b377229c10585ec392f8a,626b463f03d05b958b50b179,,,,,,,,,,,,,,,,,,,,,,,l,1,"[""0.044"",""0.672"",""0.482"",""0.819""]","[1,0,1,1]",0,30,30,30,1,1,1,,,0,FALSE,2.0159,,,,,,,,,,,,,,,,,,,,,,,,,,,,,,
,Fany,001,2022-04-28_21h00.52.431,classification_task,2021.2.3,Win32,59.89099838,613ce1a3742f46925fc7290d,626b377229c10585ec392f8a,626b463f03d05b958b50b179,,,,,,,,,,,,,,,,,,,,,,,l,1,"[""0.097"",""0.188"",""0.444"",""0.681""]","[1,1,1,0]",0,31,31,31,1,1,0,,,0,FALSE,1.9231,,,,,,,,,,,,,,,,,,,,,,,,,,,,,,
,Fany,001,2022-04-28_21h00.52.431,classification_task,2021.2.3,Win32,59.89099838,613ce1a3742f46925fc7290d,626b377229c10585ec392f8a,626b463f03d05b958b50b179,,,,,,,,,,,,,,,,,,,,,,,l,1,"[""0.044"",""0.149"",""0.651"",""0.819""]","[1,1,0,1]",0,32,32,32,1,1,1,,,0,FALSE,5.1797,,,,,,,,,,,,,,,,,,,,,,,,,,,,,,
,Fany,001,2022-04-28_21h00.52.431,classification_task,2021.2.3,Win32,59.89099838,613ce1a3742f46925fc7290d,626b377229c10585ec392f8a,626b463f03d05b958b50b179,,,,,,,,,,,,,,,,,,,,,,,l,1,"[""0.097"",""0.755"",""0.444"",""0.719""]","[1,0,1,1]",0,33,33,33,1,1,0,,,0,FALSE,2.3437,,,,,,,,,,,,,,,,,,,,,,,,,,,,,,
,Fany,001,2022-04-28_21h00.52.431,classification_task,2021.2.3,Win32,59.89099838,613ce1a3742f46925fc7290d,626b377229c10585ec392f8a,626b463f03d05b958b50b179,,,,,,,,,,,,,,,,,,,,,,,l,1,"[""0.097"",""0.188"",""0.682"",""0.719""]","[1,1,0,1]",0,34,34,34,1,1,0,,,0,FALSE,1.7012,,,,,,,,,,,,,,,,,,,,,,,,,,,,,,
,Fany,001,2022-04-28_21h00.52.431,classification_task,2021.2.3,Win32,59.89099838,613ce1a3742f46925fc7290d,626b377229c10585ec392f8a,626b463f03d05b958b50b179,,,,,,,,,,,,,,,,,,,,,,,l,0,"[""0.304"",""0.362"",""0.609"",""0.781""]","[1,1,1,0]",0,35,35,35,1,0,1,,,0,FALSE,1.9804,,,,,,,,,,,,,,,,,,,,,,,,,,,,,,
,Fany,001,2022-04-28_21h00.52.431,classification_task,2021.2.3,Win32,59.89099838,613ce1a3742f46925fc7290d,626b377229c10585ec392f8a,626b463f03d05b958b50b179,,,,,,,,,,,,,,,,,,,,,,,a,1,"[""0.241"",""0.557"",""0.765"",""0.900""]","[1,1,0,1]",0,36,36,36,1,0,0,,,0,FALSE,1.7753,,,,,,,,,,,,,,,,,,,,,,,,,,,,,,
,Fany,001,2022-04-28_21h00.52.431,classification_task,2021.2.3,Win32,59.89099838,613ce1a3742f46925fc7290d,626b377229c10585ec392f8a,626b463f03d05b958b50b179,,,,,,,,,,,,,,,,,,,,,,,a,1,"[""0.304"",""0.362"",""0.672"",""0.960""]","[1,1,0,1]",0,37,37,37,1,0,1,,,0,FALSE,1.6061,,,,,,,,,,,,,,,,,,,,,,,,,,,,,,
,Fany,001,2022-04-28_21h00.52.431,classification_task,2021.2.3,Win32,59.89099838,613ce1a3742f46925fc7290d,626b377229c10585ec392f8a,626b463f03d05b958b50b179,,,,,,,,,,,,,,,,,,,,,,,a,1,"[""0.304"",""0.775"",""0.609"",""0.960""]","[1,0,1,1]",0,38,38,38,1,0,1,,,0,FALSE,1.796,,,,,,,,,,,,,,,,,,,,,,,,,,,,,,
,Fany,001,2022-04-28_21h00.52.431,classification_task,2021.2.3,Win32,59.89099838,613ce1a3742f46925fc7290d,626b377229c10585ec392f8a,626b463f03d05b958b50b179,,,,,,,,,,,,,,,,,,,,,,,l,1,"[""0.097"",""0.188"",""0.444"",""0.644""]","[1,1,1,0]",0,39,39,39,1,1,0,,,0,FALSE,1.3324,,,,,,,,,,,,,,,,,,,,,,,,,,,,,,
,Fany,001,2022-04-28_21h00.52.431,classification_task,2021.2.3,Win32,59.89099838,613ce1a3742f46925fc7290d,626b377229c10585ec392f8a,626b463f03d05b958b50b179,,,,,,,,,,,,,,,,,,,,,,,a,0,"[""0.044"",""0.660"",""0.482"",""0.819""]","[1,0,1,1]",0,40,40,40,1,1,1,,,0,FALSE,2.4651,,,,,,,,,,,,,,,,,,,,,,,,,,,,,,
,Fany,001,2022-04-28_21h00.52.431,classification_task,2021.2.3,Win32,59.89099838,613ce1a3742f46925fc7290d,626b377229c10585ec392f8a,626b463f03d05b958b50b179,,,,,,,,,,,,,,,,,,,,,,,l,1,"[""0.765"",""0.188"",""0.444"",""0.719""]","[0,1,1,1]",0,41,41,41,1,1,0,,,0,FALSE,1.9608,,,,,,,,,,,,,,,,,,,,,,,,,,,,,,
,Fany,001,2022-04-28_21h00.52.431,classification_task,2021.2.3,Win32,59.89099838,613ce1a3742f46925fc7290d,626b377229c10585ec392f8a,626b463f03d05b958b50b179,,,,,,,,,,,,,,,,,,,,,,,l,0,"[""0.241"",""0.557"",""0.866"",""0.403""]","[1,1,1,0]",0,42,42,42,1,0,0,,,0,FALSE,1.785,,,,,,,,,,,,,,,,,,,,,,,,,,,,,,
,Fany,001,2022-04-28_21h00.52.431,classification_task,2021.2.3,Win32,59.89099838,613ce1a3742f46925fc7290d,626b377229c10585ec392f8a,626b463f03d05b958b50b179,,,,,,,,,,,,,,,,,,,,,,,a,1,"[""0.672"",""0.557"",""0.866"",""0.900""]","[0,1,1,1]",0,43,43,43,1,0,0,,,0,FALSE,1.61,,,,,,,,,,,,,,,,,,,,,,,,,,,,,,
,Fany,001,2022-04-28_21h00.52.431,classification_task,2021.2.3,Win32,59.89099838,613ce1a3742f46925fc7290d,626b377229c10585ec392f8a,626b463f03d05b958b50b179,,,,,,,,,,,,,,,,,,,,,,,l,1,"[""0.765"",""0.149"",""0.482"",""0.819""]","[0,1,1,1]",0,44,44,44,1,1,1,,,0,FALSE,1.7592,,,,,,,,,,,,,,,,,,,,,,,,,,,,,,
,Fany,001,2022-04-28_21h00.52.431,classification_task,2021.2.3,Win32,59.89099838,613ce1a3742f46925fc7290d,626b377229c10585ec392f8a,626b463f03d05b958b50b179,,,,,,,,,,,,,,,,,,,,,,,a,1,"[""0.241"",""0.663"",""0.866"",""0.900""]","[1,0,1,1]",0,45,45,45,1,0,0,,,0,FALSE,1.6889,,,,,,,,,,,,,,,,,,,,,,,,,,,,,,
,Fany,001,2022-04-28_21h00.52.431,classification_task,2021.2.3,Win32,59.89099838,613ce1a3742f46925fc7290d,626b377229c10585ec392f8a,626b463f03d05b958b50b179,,,,,,,,,,,,,,,,,,,,,,,l,1,"[""0.044"",""0.149"",""0.482"",""0.681""]","[1,1,1,0]",0,46,46,46,1,1,1,,,0,FALSE,1.7034,,,,,,,,,,,,,,,,,,,,,,,,,,,,,,
,Fany,001,2022-04-28_21h00.52.431,classification_task,2021.2.3,Win32,59.89099838,613ce1a3742f46925fc7290d,626b377229c10585ec392f8a,626b463f03d05b958b50b179,,,,,,,,,,,,,,,,,,,,,,,a,1,"[""0.775"",""0.362"",""0.609"",""0.960""]","[0,1,1,1]",0,47,47,47,1,0,1,,,0,FALSE,1.4036,,,,,,,,,,,,,,,,,,,,,,,,,,,,,,
,Fany,001,2022-04-28_21h00.52.431,classification_task,2021.2.3,Win32,59.89099838,613ce1a3742f46925fc7290d,626b377229c10585ec392f8a,626b463f03d05b958b50b179,,,,,,,,,,,,,,,,,,,,,,,l,0,"[""0.304"",""0.362"",""0.609"",""0.644""]","[1,1,1,0]",0,48,48,48,1,0,1,,,0,FALSE,2.8166,,,,,,,,,,,,,,,,,,,,,,,,,,,,,,
,Fany,001,2022-04-28_21h00.52.431,classification_task,2021.2.3,Win32,59.89099838,613ce1a3742f46925fc7290d,626b377229c10585ec392f8a,626b463f03d05b958b50b179,,,,,,,,,,,,,,,,,,,,,,,l,1,"[""0.044"",""0.681"",""0.482"",""0.819""]","[1,0,1,1]",0,49,49,49,1,1,1,,,0,FALSE,1.4072,,,,,,,,,,,,,,,,,,,,,,,,,,,,,,
,Fany,001,2022-04-28_21h00.52.431,classification_task,2021.2.3,Win32,59.89099838,613ce1a3742f46925fc7290d,626b377229c10585ec392f8a,626b463f03d05b958b50b179,,,,,,,,,,,,,,,,,,,,,,,l,1,"[""0.097"",""0.188"",""0.444"",""0.765""]","[1,1,1,0]",0,50,50,50,1,1,0,,,0,FALSE,1.9816,,,,,,,,,,,,,,,,,,,,,,,,,,,,,,
,Fany,001,2022-04-28_21h00.52.431,classification_task,2021.2.3,Win32,59.89099838,613ce1a3742f46925fc7290d,626b377229c10585ec392f8a,626b463f03d05b958b50b179,,,,,,,,,,,,,,,,,,,,,,,l,1,"[""0.672"",""0.188"",""0.444"",""0.719""]","[0,1,1,1]",0,51,51,51,1,1,0,,,0,FALSE,1.0418,,,,,,,,,,,,,,,,,,,,,,,,,,,,,,
,Fany,001,2022-04-28_21h00.52.431,classification_task,2021.2.3,Win32,59.89099838,613ce1a3742f46925fc7290d,626b377229c10585ec392f8a,626b463f03d05b958b50b179,,,,,,,,,,,,,,,,,,,,,,,a,1,"[""0.241"",""0.557"",""0.681"",""0.900""]","[1,1,0,1]",0,52,52,52,1,0,0,,,0,FALSE,1.3272,,,,,,,,,,,,,,,,,,,,,,,,,,,,,,
,Fany,001,2022-04-28_21h00.52.431,classification_task,2021.2.3,Win32,59.89099838,613ce1a3742f46925fc7290d,626b377229c10585ec392f8a,626b463f03d05b958b50b179,,,,,,,,,,,,,,,,,,,,,,,a,1,"[""0.304"",""0.362"",""0.755"",""0.960""]","[1,1,0,1]",0,53,53,53,1,0,1,,,0,FALSE,1.4136,,,,,,,,,,,,,,,,,,,,,,,,,,,,,,
,Fany,001,2022-04-28_21h00.52.431,classification_task,2021.2.3,Win32,59.89099838,613ce1a3742f46925fc7290d,626b377229c10585ec392f8a,626b463f03d05b958b50b179,,,,,,,,,,,,,,,,,,,,,,,a,1,"[""0.304"",""0.652"",""0.609"",""0.960""]","[1,0,1,1]",0,54,54,54,1,0,1,,,0,FALSE,1.1421,,,,,,,,,,,,,,,,,,,,,,,,,,,,,,
,Fany,001,2022-04-28_21h00.52.431,classification_task,2021.2.3,Win32,59.89099838,613ce1a3742f46925fc7290d,626b377229c10585ec392f8a,626b463f03d05b958b50b179,,,,,,,,,,,,,,,,,,,,,,,a,1,"[""0.241"",""0.557"",""0.866"",""0.781""]","[1,1,1,0]",0,55,55,55,1,0,0,,,0,FALSE,3.0977,,,,,,,,,,,,,,,,,,,,,,,,,,,,,,
,Fany,001,2022-04-28_21h00.52.431,classification_task,2021.2.3,Win32,59.89099838,613ce1a3742f46925fc7290d,626b377229c10585ec392f8a,626b463f03d05b958b50b179,,,,,,,,,,,,,,,,,,,,,,,a,1,"[""0.660"",""0.557"",""0.866"",""0.900""]","[0,1,1,1]",0,56,56,56,1,0,0,,,0,FALSE,1.2191,,,,,,,,,,,,,,,,,,,,,,,,,,,,,,
,Fany,001,2022-04-28_21h00.52.431,classification_task,2021.2.3,Win32,59.89099838,613ce1a3742f46925fc7290d,626b377229c10585ec392f8a,626b463f03d05b958b50b179,,,,,,,,,,,,,,,,,,,,,,,l,1,"[""0.044"",""0.149"",""0.682"",""0.819""]","[1,1,0,1]",0,57,57,57,1,1,1,,,0,FALSE,2.5513,,,,,,,,,,,,,,,,,,,,,,,,,,,,,,
,Fany,001,2022-04-28_21h00.52.431,classification_task,2021.2.3,Win32,59.89099838,613ce1a3742f46925fc7290d,626b377229c10585ec392f8a,626b463f03d05b958b50b179,,,,,,,,,,,,,,,,,,,,,,,l,1,"[""0.097"",""0.672"",""0.444"",""0.719""]","[1,0,1,1]",0,58,58,58,1,1,0,,,0,FALSE,1.0381,,,,,,,,,,,,,,,,,,,,,,,,,,,,,,
,Fany,001,2022-04-28_21h00.52.431,classification_task,2021.2.3,Win32,59.89099838,613ce1a3742f46925fc7290d,626b377229c10585ec392f8a,626b463f03d05b958b50b179,,,,,,,,,,,,,,,,,,,,,,,l,1,"[""0.097"",""0.188"",""0.681"",""0.719""]","[1,1,0,1]",0,59,59,59,1,1,0,,,0,FALSE,0.8658,,,,,,,,,,,,,,,,,,,,,,,,,,,,,,
,Fany,001,2022-04-28_21h00.52.431,classification_task,2021.2.3,Win32,59.89099838,613ce1a3742f46925fc7290d,626b377229c10585ec392f8a,626b463f03d05b958b50b179,,,,,,,,,,,,,,,,,,,,,,,l,1,"[""0.644"",""0.149"",""0.482"",""0.819""]","[0,1,1,1]",0,60,60,60,1,1,1,,,0,FALSE,1.3331,,,,,,,,,,,,,,,,,,,,,,,,,,,,,,
,Fany,001,2022-04-28_21h00.52.431,classification_task,2021.2.3,Win32,59.89099838,613ce1a3742f46925fc7290d,626b377229c10585ec392f8a,626b463f03d05b958b50b179,,,,,,,,,,,,,,,,,,,,,,,a,1,"[""0.663"",""0.362"",""0.609"",""0.960""]","[0,1,1,1]",0,61,61,61,1,0,1,,,0,FALSE,1.1532,,,,,,,,,,,,,,,,,,,,,,,,,,,,,,
,Fany,001,2022-04-28_21h00.52.431,classification_task,2021.2.3,Win32,59.89099838,613ce1a3742f46925fc7290d,626b377229c10585ec392f8a,626b463f03d05b958b50b179,,,,,,,,,,,,,,,,,,,,,,,l,1,"[""0.044"",""0.149"",""0.482"",""0.682""]","[1,1,1,0]",0,62,62,62,1,1,1,,,0,FALSE,1.4443,,,,,,,,,,,,,,,,,,,,,,,,,,,,,,
,Fany,001,2022-04-28_21h00.52.431,classification_task,2021.2.3,Win32,59.89099838,613ce1a3742f46925fc7290d,626b377229c10585ec392f8a,626b463f03d05b958b50b179,,,,,,,,,,,,,,,,,,,,,,,a,1,"[""0.241"",""0.652"",""0.866"",""0.900""]","[1,0,1,1]",0,63,63,63,1,0,0,,,0,FALSE,1.4987,,,,,,,,,,,,,,,,,,,,,,,,,,,,,,
,Fany,001,2022-04-28_21h00.52.431,classification_task,2021.2.3,Win32,59.89099838,613ce1a3742f46925fc7290d,626b377229c10585ec392f8a,626b463f03d05b958b50b179,,,,,,,,,,,,,,,,,,,,,,,,,,,,,,,,,,,,,,,0, ,,0,3.312114198,608.985,0,0,0,0,1,2,1,,,,,,,,,,,,,,,,,
,Fany,001,2022-04-28_21h00.52.431,classification_task,2021.2.3,Win32,59.89099838,613ce1a3742f46925fc7290d,626b377229c10585ec392f8a,626b463f03d05b958b50b179,,,,,,,,,,,,,,,,,,,,,,,,,,,,,,,,,,,,,,,1,  ,,0,5.930059524,614.5256,0,0,0,0,1,2,1,,,,,,,,,,,,,,,,,
,Fany,001,2022-04-28_21h00.52.431,classification_task,2021.2.3,Win32,59.89099838,613ce1a3742f46925fc7290d,626b377229c10585ec392f8a,626b463f03d05b958b50b179,,,,,,,,,,,,,,,,,,,,,,,,,,,,,,,,,,,,,,,2,  ,,0,0.935295414,620.5235,0,0,0,0,1,2,1,,,,,,,,,,,,,,,,,
,Fany,001,2022-04-28_21h00.52.431,classification_task,2021.2.3,Win32,59.89099838,613ce1a3742f46925fc7290d,626b377229c10585ec392f8a,626b463f03d05b958b50b179,,,,,,,,,,,,,,,,,,,,,,,,,,,,,,,,,,,,,,,,,,,,,0,0,0,0,1,,1,,,,,,,,,,,,,,,,,
,Fany,001,2022-04-28_21h00.52.431,classification_task,2021.2.3,Win32,59.89099838,613ce1a3742f46925fc7290d,626b377229c10585ec392f8a,626b463f03d05b958b50b179,,,,,,,,,,,,,,,,,,,,,space,141.6113,l,0,"[""0.241"",""0.557"",""0.755"",""0.900""]","[1,1,0,1]",0,0,0,0,1,0,0,,,0,FALSE,3.9535,,,,,,,,,,,,,,,,,,,,,,,,,,,,,,
,Fany,001,2022-04-28_21h00.52.431,classification_task,2021.2.3,Win32,59.89099838,613ce1a3742f46925fc7290d,626b377229c10585ec392f8a,626b463f03d05b958b50b179,,,,,,,,,,,,,,,,,,,,,,,l,1,"[""0.044"",""0.149"",""0.482"",""0.403""]","[1,1,1,0]",0,1,1,1,1,1,1,,,0,FALSE,3.489,,,,,,,,,,,,,,,,,,,,,,,,,,,,,,
,Fany,001,2022-04-28_21h00.52.431,classification_task,2021.2.3,Win32,59.89099838,613ce1a3742f46925fc7290d,626b377229c10585ec392f8a,626b463f03d05b958b50b179,,,,,,,,,,,,,,,,,,,,,,,a,1,"[""0.241"",""0.557"",""0.866"",""0.403""]","[1,1,1,0]",0,2,2,2,1,0,0,,,0,FALSE,1.4481,,,,,,,,,,,,,,,,,,,,,,,,,,,,,,
,Fany,001,2022-04-28_21h00.52.431,classification_task,2021.2.3,Win32,59.89099838,613ce1a3742f46925fc7290d,626b377229c10585ec392f8a,626b463f03d05b958b50b179,,,,,,,,,,,,,,,,,,,,,,,a,1,"[""0.241"",""0.651"",""0.866"",""0.900""]","[1,0,1,1]",0,3,3,3,1,0,0,,,0,FALSE,1.7698,,,,,,,,,,,,,,,,,,,,,,,,,,,,,,
,Fany,001,2022-04-28_21h00.52.431,classification_task,2021.2.3,Win32,59.89099838,613ce1a3742f46925fc7290d,626b377229c10585ec392f8a,626b463f03d05b958b50b179,,,,,,,,,,,,,,,,,,,,,,,l,1,"[""0.097"",""0.775"",""0.444"",""0.719""]","[1,0,1,1]",0,4,4,4,1,1,0,,,0,FALSE,2.427,,,,,,,,,,,,,,,,,,,,,,,,,,,,,,
,Fany,001,2022-04-28_21h00.52.431,classification_task,2021.2.3,Win32,59.89099838,613ce1a3742f46925fc7290d,626b377229c10585ec392f8a,626b463f03d05b958b50b179,,,,,,,,,,,,,,,,,,,,,,,a,1,"[""0.304"",""0.783"",""0.609"",""0.960""]","[1,0,1,1]",0,5,5,5,1,0,1,,,0,FALSE,1.497,,,,,,,,,,,,,,,,,,,,,,,,,,,,,,
,Fany,001,2022-04-28_21h00.52.431,classification_task,2021.2.3,Win32,59.89099838,613ce1a3742f46925fc7290d,626b377229c10585ec392f8a,626b463f03d05b958b50b179,,,,,,,,,,,,,,,,,,,,,,,l,1,"[""0.044"",""0.781"",""0.482"",""0.819""]","[1,0,1,1]",0,6,6,6,1,1,1,,,0,FALSE,1.8538,,,,,,,,,,,,,,,,,,,,,,,,,,,,,,
,Fany,001,2022-04-28_21h00.52.431,classification_task,2021.2.3,Win32,59.89099838,613ce1a3742f46925fc7290d,626b377229c10585ec392f8a,626b463f03d05b958b50b179,,,,,,,,,,,,,,,,,,,,,,,l,1,"[""0.097"",""0.188"",""0.775"",""0.719""]","[1,1,0,1]",0,7,7,7,1,1,0,,,0,FALSE,1.3434,,,,,,,,,,,,,,,,,,,,,,,,,,,,,,
,Fany,001,2022-04-28_21h00.52.431,classification_task,2021.2.3,Win32,59.89099838,613ce1a3742f46925fc7290d,626b377229c10585ec392f8a,626b463f03d05b958b50b179,,,,,,,,,,,,,,,,,,,,,,,a,1,"[""0.652"",""0.362"",""0.609"",""0.960""]","[0,1,1,1]",0,8,8,8,1,0,1,,,0,FALSE,1.426,,,,,,,,,,,,,,,,,,,,,,,,,,,,,,
,Fany,001,2022-04-28_21h00.52.431,classification_task,2021.2.3,Win32,59.89099838,613ce1a3742f46925fc7290d,626b377229c10585ec392f8a,626b463f03d05b958b50b179,,,,,,,,,,,,,,,,,,,,,,,l,0,"[""0.304"",""0.362"",""0.609"",""0.403""]","[1,1,1,0]",0,9,9,9,1,0,1,,,0,FALSE,1.6015,,,,,,,,,,,,,,,,,,,,,,,,,,,,,,
,Fany,001,2022-04-28_21h00.52.431,classification_task,2021.2.3,Win32,59.89099838,613ce1a3742f46925fc7290d,626b377229c10585ec392f8a,626b463f03d05b958b50b179,,,,,,,,,,,,,,,,,,,,,,,l,1,"[""0.097"",""0.188"",""0.444"",""0.645""]","[1,1,1,0]",0,10,10,10,1,1,0,,,0,FALSE,1.0226,,,,,,,,,,,,,,,,,,,,,,,,,,,,,,
,Fany,001,2022-04-28_21h00.52.431,classification_task,2021.2.3,Win32,59.89099838,613ce1a3742f46925fc7290d,626b377229c10585ec392f8a,626b463f03d05b958b50b179,,,,,,,,,,,,,,,,,,,,,,,a,1,"[""0.755"",""0.557"",""0.866"",""0.900""]","[0,1,1,1]",0,11,11,11,1,0,0,,,0,FALSE,1.63,,,,,,,,,,,,,,,,,,,,,,,,,,,,,,
,Fany,001,2022-04-28_21h00.52.431,classification_task,2021.2.3,Win32,59.89099838,613ce1a3742f46925fc7290d,626b377229c10585ec392f8a,626b463f03d05b958b50b179,,,,,,,,,,,,,,,,,,,,,,,a,0,"[""0.765"",""0.188"",""0.444"",""0.719""]","[0,1,1,1]",0,12,12,12,1,1,0,,,0,FALSE,1.8425,,,,,,,,,,,,,,,,,,,,,,,,,,,,,,
,Fany,001,2022-04-28_21h00.52.431,classification_task,2021.2.3,Win32,59.89099838,613ce1a3742f46925fc7290d,626b377229c10585ec392f8a,626b463f03d05b958b50b179,,,,,,,,,,,,,,,,,,,,,,,l,1,"[""0.044"",""0.149"",""0.775"",""0.819""]","[1,1,0,1]",0,13,13,13,1,1,1,,,0,FALSE,1.769,,,,,,,,,,,,,,,,,,,,,,,,,,,,,,
,Fany,001,2022-04-28_21h00.52.431,classification_task,2021.2.3,Win32,59.89099838,613ce1a3742f46925fc7290d,626b377229c10585ec392f8a,626b463f03d05b958b50b179,,,,,,,,,,,,,,,,,,,,,,,a,1,"[""0.304"",""0.362"",""0.652"",""0.960""]","[1,1,0,1]",0,14,14,14,1,0,1,,,0,FALSE,1.3398,,,,,,,,,,,,,,,,,,,,,,,,,,,,,,
,Fany,001,2022-04-28_21h00.52.431,classification_task,2021.2.3,Win32,59.89099838,613ce1a3742f46925fc7290d,626b377229c10585ec392f8a,626b463f03d05b958b50b179,,,,,,,,,,,,,,,,,,,,,,,a,0,"[""0.765"",""0.149"",""0.482"",""0.819""]","[0,1,1,1]",0,15,15,15,1,1,1,,,0,FALSE,1.7679,,,,,,,,,,,,,,,,,,,,,,,,,,,,,,
,Fany,001,2022-04-28_21h00.52.431,classification_task,2021.2.3,Win32,59.89099838,613ce1a3742f46925fc7290d,626b377229c10585ec392f8a,626b463f03d05b958b50b179,,,,,,,,,,,,,,,,,,,,,,,l,1,"[""0.097"",""0.188"",""0.444"",""0.660""]","[1,1,1,0]",0,16,16,16,1,1,0,,,0,FALSE,1.5996,,,,,,,,,,,,,,,,,,,,,,,,,,,,,,
,Fany,001,2022-04-28_21h00.52.431,classification_task,2021.2.3,Win32,59.89099838,613ce1a3742f46925fc7290d,626b377229c10585ec392f8a,626b463f03d05b958b50b179,,,,,,,,,,,,,,,,,,,,,,,l,1,"[""0.097"",""0.681"",""0.444"",""0.719""]","[1,0,1,1]",0,17,17,17,1,1,0,,,0,FALSE,1.181,,,,,,,,,,,,,,,,,,,,,,,,,,,,,,
,Fany,001,2022-04-28_21h00.52.431,classification_task,2021.2.3,Win32,59.89099838,613ce1a3742f46925fc7290d,626b377229c10585ec392f8a,626b463f03d05b958b50b179,,,,,,,,,,,,,,,,,,,,,,,a,1,"[""0.241"",""0.557"",""0.682"",""0.900""]","[1,1,0,1]",0,18,18,18,1,0,0,,,0,FALSE,1.7648,,,,,,,,,,,,,,,,,,,,,,,,,,,,,,
,Fany,001,2022-04-28_21h00.52.431,classification_task,2021.2.3,Win32,59.89099838,613ce1a3742f46925fc7290d,626b377229c10585ec392f8a,626b463f03d05b958b50b179,,,,,,,,,,,,,,,,,,,,,,,l,1,"[""0.044"",""0.149"",""0.482"",""0.660""]","[1,1,1,0]",0,19,19,19,1,1,1,,,0,FALSE,1.4508,,,,,,,,,,,,,,,,,,,,,,,,,,,,,,
,Fany,001,2022-04-28_21h00.52.431,classification_task,2021.2.3,Win32,59.89099838,613ce1a3742f46925fc7290d,626b377229c10585ec392f8a,626b463f03d05b958b50b179,,,,,,,,,,,,,,,,,,,,,,,a,1,"[""0.755"",""0.362"",""0.609"",""0.960""]","[0,1,1,1]",0,20,20,20,1,0,1,,,0,FALSE,1.4632,,,,,,,,,,,,,,,,,,,,,,,,,,,,,,
,Fany,001,2022-04-28_21h00.52.431,classification_task,2021.2.3,Win32,59.89099838,613ce1a3742f46925fc7290d,626b377229c10585ec392f8a,626b463f03d05b958b50b179,,,,,,,,,,,,,,,,,,,,,,,l,0,"[""0.241"",""0.557"",""0.866"",""0.672""]","[1,1,1,0]",0,21,21,21,1,0,0,,,0,FALSE,1.7001,,,,,,,,,,,,,,,,,,,,,,,,,,,,,,
,Fany,001,2022-04-28_21h00.52.431,classification_task,2021.2.3,Win32,59.89099838,613ce1a3742f46925fc7290d,626b377229c10585ec392f8a,626b463f03d05b958b50b179,,,,,,,,,,,,,,,,,,,,,,,l,0,"[""0.304"",""0.362"",""0.609"",""0.765""]","[1,1,1,0]",0,22,22,22,1,0,1,,,0,FALSE,1.8538,,,,,,,,,,,,,,,,,,,,,,,,,,,,,,
,Fany,001,2022-04-28_21h00.52.431,classification_task,2021.2.3,Win32,59.89099838,613ce1a3742f46925fc7290d,626b377229c10585ec392f8a,626b463f03d05b958b50b179,,,,,,,,,,,,,,,,,,,,,,,l,1,"[""0.663"",""0.188"",""0.444"",""0.719""]","[0,1,1,1]",0,23,23,23,1,1,0,,,0,FALSE,0.9263,,,,,,,,,,,,,,,,,,,,,,,,,,,,,,
,Fany,001,2022-04-28_21h00.52.431,classification_task,2021.2.3,Win32,59.89099838,613ce1a3742f46925fc7290d,626b377229c10585ec392f8a,626b463f03d05b958b50b179,,,,,,,,,,,,,,,,,,,,,,,a,1,"[""0.681"",""0.557"",""0.866"",""0.900""]","[0,1,1,1]",0,24,24,24,1,0,0,,,0,FALSE,1.4268,,,,,,,,,,,,,,,,,,,,,,,,,,,,,,
,Fany,001,2022-04-28_21h00.52.431,classification_task,2021.2.3,Win32,59.89099838,613ce1a3742f46925fc7290d,626b377229c10585ec392f8a,626b463f03d05b958b50b179,,,,,,,,,,,,,,,,,,,,,,,l,1,"[""0.044"",""0.149"",""0.672"",""0.819""]","[1,1,0,1]",0,25,25,25,1,1,1,,,0,FALSE,2.5006,,,,,,,,,,,,,,,,,,,,,,,,,,,,,,
,Fany,001,2022-04-28_21h00.52.431,classification_task,2021.2.3,Win32,59.89099838,613ce1a3742f46925fc7290d,626b377229c10585ec392f8a,626b463f03d05b958b50b179,,,,,,,,,,,,,,,,,,,,,,,l,1,"[""0.044"",""0.681"",""0.482"",""0.819""]","[1,0,1,1]",0,26,26,26,1,1,1,,,0,FALSE,1.188,,,,,,,,,,,,,,,,,,,,,,,,,,,,,,
,Fany,001,2022-04-28_21h00.52.431,classification_task,2021.2.3,Win32,59.89099838,613ce1a3742f46925fc7290d,626b377229c10585ec392f8a,626b463f03d05b958b50b179,,,,,,,,,,,,,,,,,,,,,,,l,1,"[""0.765"",""0.149"",""0.482"",""0.819""]","[0,1,1,1]",0,27,27,27,1,1,1,,,0,FALSE,1.1852,,,,,,,,,,,,,,,,,,,,,,,,,,,,,,
,Fany,001,2022-04-28_21h00.52.431,classification_task,2021.2.3,Win32,59.89099838,613ce1a3742f46925fc7290d,626b377229c10585ec392f8a,626b463f03d05b958b50b179,,,,,,,,,,,,,,,,,,,,,,,l,1,"[""0.097"",""0.188"",""0.403"",""0.719""]","[1,1,0,1]",0,28,28,28,1,1,0,,,0,FALSE,1.0052,,,,,,,,,,,,,,,,,,,,,,,,,,,,,,
,Fany,001,2022-04-28_21h00.52.431,classification_task,2021.2.3,Win32,59.89099838,613ce1a3742f46925fc7290d,626b377229c10585ec392f8a,626b463f03d05b958b50b179,,,,,,,,,,,,,,,,,,,,,,,a,1,"[""0.304"",""0.651"",""0.609"",""0.960""]","[1,0,1,1]",0,29,29,29,1,0,1,,,0,FALSE,1.5116,,,,,,,,,,,,,,,,,,,,,,,,,,,,,,
,Fany,001,2022-04-28_21h00.52.431,classification_task,2021.2.3,Win32,59.89099838,613ce1a3742f46925fc7290d,626b377229c10585ec392f8a,626b463f03d05b958b50b179,,,,,,,,,,,,,,,,,,,,,,,l,0,"[""0.241"",""0.783"",""0.866"",""0.900""]","[1,0,1,1]",0,30,30,30,1,0,0,,,0,FALSE,1.7797,,,,,,,,,,,,,,,,,,,,,,,,,,,,,,
,Fany,001,2022-04-28_21h00.52.431,classification_task,2021.2.3,Win32,59.89099838,613ce1a3742f46925fc7290d,626b377229c10585ec392f8a,626b463f03d05b958b50b179,,,,,,,,,,,,,,,,,,,,,,,a,1,"[""0.304"",""0.362"",""0.755"",""0.960""]","[1,1,0,1]",0,31,31,31,1,0,1,,,0,FALSE,1.4344,,,,,,,,,,,,,,,,,,,,,,,,,,,,,,
,Fany,001,2022-04-28_21h00.52.431,classification_task,2021.2.3,Win32,59.89099838,613ce1a3742f46925fc7290d,626b377229c10585ec392f8a,626b463f03d05b958b50b179,,,,,,,,,,,,,,,,,,,,,,,l,0,"[""0.304"",""0.362"",""0.609"",""0.660""]","[1,1,1,0]",0,32,32,32,1,0,1,,,0,FALSE,1.6894,,,,,,,,,,,,,,,,,,,,,,,,,,,,,,
,Fany,001,2022-04-28_21h00.52.431,classification_task,2021.2.3,Win32,59.89099838,613ce1a3742f46925fc7290d,626b377229c10585ec392f8a,626b463f03d05b958b50b179,,,,,,,,,,,,,,,,,,,,,,,l,1,"[""0.097"",""0.188"",""0.444"",""0.645""]","[1,1,1,0]",0,33,33,33,1,1,0,,,0,FALSE,1.4386,,,,,,,,,,,,,,,,,,,,,,,,,,,,,,
,Fany,001,2022-04-28_21h00.52.431,classification_task,2021.2.3,Win32,59.89099838,613ce1a3742f46925fc7290d,626b377229c10585ec392f8a,626b463f03d05b958b50b179,,,,,,,,,,,,,,,,,,,,,,,a,1,"[""0.241"",""0.403"",""0.866"",""0.900""]","[1,0,1,1]",0,34,34,34,1,0,0,,,0,FALSE,1.3579,,,,,,,,,,,,,,,,,,,,,,,,,,,,,,
,Fany,001,2022-04-28_21h00.52.431,classification_task,2021.2.3,Win32,59.89099838,613ce1a3742f46925fc7290d,626b377229c10585ec392f8a,626b463f03d05b958b50b179,,,,,,,,,,,,,,,,,,,,,,,a,1,"[""0.775"",""0.557"",""0.866"",""0.900""]","[0,1,1,1]",0,35,35,35,1,0,0,,,0,FALSE,1.5199,,,,,,,,,,,,,,,,,,,,,,,,,,,,,,
,Fany,001,2022-04-28_21h00.52.431,classification_task,2021.2.3,Win32,59.89099838,613ce1a3742f46925fc7290d,626b377229c10585ec392f8a,626b463f03d05b958b50b179,,,,,,,,,,,,,,,,,,,,,,,a,1,"[""0.241"",""0.557"",""0.663"",""0.900""]","[1,1,0,1]",0,36,36,36,1,0,0,,,0,FALSE,2.5827,,,,,,,,,,,,,,,,,,,,,,,,,,,,,,
,Fany,001,2022-04-28_21h00.52.431,classification_task,2021.2.3,Win32,59.89099838,613ce1a3742f46925fc7290d,626b377229c10585ec392f8a,626b463f03d05b958b50b179,,,,,,,,,,,,,,,,,,,,,,,l,1,"[""0.044"",""0.149"",""0.482"",""0.651""]","[1,1,1,0]",0,37,37,37,1,1,1,,,0,FALSE,1.674,,,,,,,,,,,,,,,,,,,,,,,,,,,,,,
,Fany,001,2022-04-28_21h00.52.431,classification_task,2021.2.3,Win32,59.89099838,613ce1a3742f46925fc7290d,626b377229c10585ec392f8a,626b463f03d05b958b50b179,,,,,,,,,,,,,,,,,,,,,,,a,1,"[""0.663"",""0.362"",""0.609"",""0.960""]","[0,1,1,1]",0,38,38,38,1,0,1,,,0,FALSE,1.5904,,,,,,,,,,,,,,,,,,,,,,,,,,,,,,
,Fany,001,2022-04-28_21h00.52.431,classification_task,2021.2.3,Win32,59.89099838,613ce1a3742f46925fc7290d,626b377229c10585ec392f8a,626b463f03d05b958b50b179,,,,,,,,,,,,,,,,,,,,,,,l,1,"[""0.097"",""0.188"",""0.781"",""0.719""]","[1,1,0,1]",0,39,39,39,1,1,0,,,0,FALSE,2.9185,,,,,,,,,,,,,,,,,,,,,,,,,,,,,,
,Fany,001,2022-04-28_21h00.52.431,classification_task,2021.2.3,Win32,59.89099838,613ce1a3742f46925fc7290d,626b377229c10585ec392f8a,626b463f03d05b958b50b179,,,,,,,,,,,,,,,,,,,,,,,a,1,"[""0.304"",""0.663"",""0.609"",""0.960""]","[1,0,1,1]",0,40,40,40,1,0,1,,,0,FALSE,1.4281,,,,,,,,,,,,,,,,,,,,,,,,,,,,,,
,Fany,001,2022-04-28_21h00.52.431,classification_task,2021.2.3,Win32,59.89099838,613ce1a3742f46925fc7290d,626b377229c10585ec392f8a,626b463f03d05b958b50b179,,,,,,,,,,,,,,,,,,,,,,,l,0,"[""0.304"",""0.362"",""0.672"",""0.960""]","[1,1,0,1]",0,41,41,41,1,0,1,,,0,FALSE,1.3431,,,,,,,,,,,,,,,,,,,,,,,,,,,,,,
,Fany,001,2022-04-28_21h00.52.431,classification_task,2021.2.3,Win32,59.89099838,613ce1a3742f46925fc7290d,626b377229c10585ec392f8a,626b463f03d05b958b50b179,,,,,,,,,,,,,,,,,,,,,,,l,1,"[""0.765"",""0.188"",""0.444"",""0.719""]","[0,1,1,1]",0,42,42,42,1,1,0,,,0,FALSE,2.5252,,,,,,,,,,,,,,,,,,,,,,,,,,,,,,
,Fany,001,2022-04-28_21h00.52.431,classification_task,2021.2.3,Win32,59.89099838,613ce1a3742f46925fc7290d,626b377229c10585ec392f8a,626b463f03d05b958b50b179,,,,,,,,,,,,,,,,,,,,,,,l,1,"[""0.044"",""0.663"",""0.482"",""0.819""]","[1,0,1,1]",0,43,43,43,1,1,1,,,0,FALSE,1.8433,,,,,,,,,,,,,,,,,,,,,,,,,,,,,,
,Fany,001,2022-04-28_21h00.52.431,classification_task,2021.2.3,Win32,59.89099838,613ce1a3742f46925fc7290d,626b377229c10585ec392f8a,626b463f03d05b958b50b179,,,,,,,,,,,,,,,,,,,,,,,l,0,"[""0.241"",""0.557"",""0.866"",""0.781""]","[1,1,1,0]",0,44,44,44,1,0,0,,,0,FALSE,3.2581,,,,,,,,,,,,,,,,,,,,,,,,,,,,,,
,Fany,001,2022-04-28_21h00.52.431,classification_task,2021.2.3,Win32,59.89099838,613ce1a3742f46925fc7290d,626b377229c10585ec392f8a,626b463f03d05b958b50b179,,,,,,,,,,,,,,,,,,,,,,,l,1,"[""0.781"",""0.149"",""0.482"",""0.819""]","[0,1,1,1]",0,45,45,45,1,1,1,,,0,FALSE,1.4346,,,,,,,,,,,,,,,,,,,,,,,,,,,,,,
,Fany,001,2022-04-28_21h00.52.431,classification_task,2021.2.3,Win32,59.89099838,613ce1a3742f46925fc7290d,626b377229c10585ec392f8a,626b463f03d05b958b50b179,,,,,,,,,,,,,,,,,,,,,,,l,1,"[""0.044"",""0.149"",""0.781"",""0.819""]","[1,1,0,1]",0,46,46,46,1,1,1,,,0,FALSE,0.9294,,,,,,,,,,,,,,,,,,,,,,,,,,,,,,
,Fany,001,2022-04-28_21h00.52.431,classification_task,2021.2.3,Win32,59.89099838,613ce1a3742f46925fc7290d,626b377229c10585ec392f8a,626b463f03d05b958b50b179,,,,,,,,,,,,,,,,,,,,,,,l,1,"[""0.097"",""0.651"",""0.444"",""0.719""]","[1,0,1,1]",0,47,47,47,1,1,0,,,0,FALSE,1.3429,,,,,,,,,,,,,,,,,,,,,,,,,,,,,,
,Fany,001,2022-04-28_21h00.52.431,classification_task,2021.2.3,Win32,59.89099838,613ce1a3742f46925fc7290d,626b377229c10585ec392f8a,626b463f03d05b958b50b179,,,,,,,,,,,,,,,,,,,,,,,a,1,"[""0.775"",""0.557"",""0.866"",""0.900""]","[0,1,1,1]",0,48,48,48,1,0,0,,,0,FALSE,1.0943,,,,,,,,,,,,,,,,,,,,,,,,,,,,,,
,Fany,001,2022-04-28_21h00.52.431,classification_task,2021.2.3,Win32,59.89099838,613ce1a3742f46925fc7290d,626b377229c10585ec392f8a,626b463f03d05b958b50b179,,,,,,,,,,,,,,,,,,,,,,,a,1,"[""0.304"",""0.783"",""0.609"",""0.960""]","[1,0,1,1]",0,49,49,49,1,0,1,,,0,FALSE,1.5931,,,,,,,,,,,,,,,,,,,,,,,,,,,,,,
,Fany,001,2022-04-28_21h00.52.431,classification_task,2021.2.3,Win32,59.89099838,613ce1a3742f46925fc7290d,626b377229c10585ec392f8a,626b463f03d05b958b50b179,,,,,,,,,,,,,,,,,,,,,,,l,1,"[""0.044"",""0.645"",""0.482"",""0.819""]","[1,0,1,1]",0,50,50,50,1,1,1,,,0,FALSE,1.348,,,,,,,,,,,,,,,,,,,,,,,,,,,,,,
,Fany,001,2022-04-28_21h00.52.431,classification_task,2021.2.3,Win32,59.89099838,613ce1a3742f46925fc7290d,626b377229c10585ec392f8a,626b463f03d05b958b50b179,,,,,,,,,,,,,,,,,,,,,,,l,1,"[""0.097"",""0.188"",""0.444"",""0.645""]","[1,1,1,0]",0,51,51,51,1,1,0,,,0,FALSE,1.1848,,,,,,,,,,,,,,,,,,,,,,,,,,,,,,
,Fany,001,2022-04-28_21h00.52.431,classification_task,2021.2.3,Win32,59.89099838,613ce1a3742f46925fc7290d,626b377229c10585ec392f8a,626b463f03d05b958b50b179,,,,,,,,,,,,,,,,,,,,,,,a,1,"[""0.304"",""0.362"",""0.651"",""0.960""]","[1,1,0,1]",0,52,52,52,1,0,1,,,0,FALSE,0.8429,,,,,,,,,,,,,,,,,,,,,,,,,,,,,,
,Fany,001,2022-04-28_21h00.52.431,classification_task,2021.2.3,Win32,59.89099838,613ce1a3742f46925fc7290d,626b377229c10585ec392f8a,626b463f03d05b958b50b179,,,,,,,,,,,,,,,,,,,,,,,l,1,"[""0.403"",""0.149"",""0.482"",""0.819""]","[0,1,1,1]",0,53,53,53,1,1,1,,,0,FALSE,3.9934,,,,,,,,,,,,,,,,,,,,,,,,,,,,,,
,Fany,001,2022-04-28_21h00.52.431,classification_task,2021.2.3,Win32,59.89099838,613ce1a3742f46925fc7290d,626b377229c10585ec392f8a,626b463f03d05b958b50b179,,,,,,,,,,,,,,,,,,,,,,,a,1,"[""0.241"",""0.557"",""0.866"",""0.765""]","[1,1,1,0]",0,54,54,54,1,0,0,,,0,FALSE,1.918,,,,,,,,,,,,,,,,,,,,,,,,,,,,,,
,Fany,001,2022-04-28_21h00.52.431,classification_task,2021.2.3,Win32,59.89099838,613ce1a3742f46925fc7290d,626b377229c10585ec392f8a,626b463f03d05b958b50b179,,,,,,,,,,,,,,,,,,,,,,,a,0,"[""0.044"",""0.149"",""0.765"",""0.819""]","[1,1,0,1]",0,55,55,55,1,1,1,,,0,FALSE,2.3915,,,,,,,,,,,,,,,,,,,,,,,,,,,,,,
,Fany,001,2022-04-28_21h00.52.431,classification_task,2021.2.3,Win32,59.89099838,613ce1a3742f46925fc7290d,626b377229c10585ec392f8a,626b463f03d05b958b50b179,,,,,,,,,,,,,,,,,,,,,,,l,1,"[""0.097"",""0.188"",""0.652"",""0.719""]","[1,1,0,1]",0,56,56,56,1,1,0,,,0,FALSE,1.17,,,,,,,,,,,,,,,,,,,,,,,,,,,,,,
,Fany,001,2022-04-28_21h00.52.431,classification_task,2021.2.3,Win32,59.89099838,613ce1a3742f46925fc7290d,626b377229c10585ec392f8a,626b463f03d05b958b50b179,,,,,,,,,,,,,,,,,,,,,,,l,1,"[""0.644"",""0.188"",""0.444"",""0.719""]","[0,1,1,1]",0,57,57,57,1,1,0,,,0,FALSE,0.9581,,,,,,,,,,,,,,,,,,,,,,,,,,,,,,
,Fany,001,2022-04-28_21h00.52.431,classification_task,2021.2.3,Win32,59.89099838,613ce1a3742f46925fc7290d,626b377229c10585ec392f8a,626b463f03d05b958b50b179,,,,,,,,,,,,,,,,,,,,,,,l,1,"[""0.097"",""0.681"",""0.444"",""0.719""]","[1,0,1,1]",0,58,58,58,1,1,0,,,0,FALSE,1.0985,,,,,,,,,,,,,,,,,,,,,,,,,,,,,,
,Fany,001,2022-04-28_21h00.52.431,classification_task,2021.2.3,Win32,59.89099838,613ce1a3742f46925fc7290d,626b377229c10585ec392f8a,626b463f03d05b958b50b179,,,,,,,,,,,,,,,,,,,,,,,a,1,"[""0.241"",""0.557"",""0.765"",""0.900""]","[1,1,0,1]",0,59,59,59,1,0,0,,,0,FALSE,0.9318,,,,,,,,,,,,,,,,,,,,,,,,,,,,,,
,Fany,001,2022-04-28_21h00.52.431,classification_task,2021.2.3,Win32,59.89099838,613ce1a3742f46925fc7290d,626b377229c10585ec392f8a,626b463f03d05b958b50b179,,,,,,,,,,,,,,,,,,,,,,,a,1,"[""0.652"",""0.362"",""0.609"",""0.960""]","[0,1,1,1]",0,60,60,60,1,0,1,,,0,FALSE,1.4393,,,,,,,,,,,,,,,,,,,,,,,,,,,,,,
,Fany,001,2022-04-28_21h00.52.431,classification_task,2021.2.3,Win32,59.89099838,613ce1a3742f46925fc7290d,626b377229c10585ec392f8a,626b463f03d05b958b50b179,,,,,,,,,,,,,,,,,,,,,,,a,1,"[""0.241"",""0.403"",""0.866"",""0.900""]","[1,0,1,1]",0,61,61,61,1,0,0,,,0,FALSE,1.2773,,,,,,,,,,,,,,,,,,,,,,,,,,,,,,
,Fany,001,2022-04-28_21h00.52.431,classification_task,2021.2.3,Win32,59.89099838,613ce1a3742f46925fc7290d,626b377229c10585ec392f8a,626b463f03d05b958b50b179,,,,,,,,,,,,,,,,,,,,,,,l,1,"[""0.044"",""0.149"",""0.482"",""0.781""]","[1,1,1,0]",0,62,62,62,1,1,1,,,0,FALSE,1.3459,,,,,,,,,,,,,,,,,,,,,,,,,,,,,,
,Fany,001,2022-04-28_21h00.52.431,classification_task,2021.2.3,Win32,59.89099838,613ce1a3742f46925fc7290d,626b377229c10585ec392f8a,626b463f03d05b958b50b179,,,,,,,,,,,,,,,,,,,,,,,l,0,"[""0.304"",""0.362"",""0.609"",""0.682""]","[1,1,1,0]",0,63,63,63,1,0,1,,,0,FALSE,2.2619,,,,,,,,,,,,,,,,,,,,,,,,,,,,,,
,Fany,001,2022-04-28_21h00.52.431,classification_task,2021.2.3,Win32,59.89099838,613ce1a3742f46925fc7290d,626b377229c10585ec392f8a,626b463f03d05b958b50b179,,,,,,,,,,,,,,,,,,,,,,,,,,,,,,,,,,,,,,,0, ,,0,8.169091711,334.3363,0,1,1,1,1,2,2,,,,,,,,,,,,,,,,,
,Fany,001,2022-04-28_21h00.52.431,classification_task,2021.2.3,Win32,59.89099838,613ce1a3742f46925fc7290d,626b377229c10585ec392f8a,626b463f03d05b958b50b179,,,,,,,,,,,,,,,,,,,,,,,,,,,,,,,,,,,,,,,1,  ,,0,2.416501323,341.7305,0,1,1,1,1,2,2,,,,,,,,,,,,,,,,,
,Fany,001,2022-04-28_21h00.52.431,classification_task,2021.2.3,Win32,59.89099838,613ce1a3742f46925fc7290d,626b377229c10585ec392f8a,626b463f03d05b958b50b179,,,,,,,,,,,,,,,,,,,,,,,,,,,,,,,,,,,,,,,2,  ,,0,0,347.8924,0,1,1,1,1,2,2,,,,,,,,,,,,,,,,,
,Fany,001,2022-04-28_21h00.52.431,classification_task,2021.2.3,Win32,59.89099838,613ce1a3742f46925fc7290d,626b377229c10585ec392f8a,626b463f03d05b958b50b179,,,,,,,,,,,,,,,,,,,,,,,,,,,,,,,,,,,,,,,,,,,,,0,1,1,1,1,,2,,,,,,,,,,,,,,,,,
,Fany,001,2022-04-28_21h00.52.431,classification_task,2021.2.3,Win32,59.89099838,613ce1a3742f46925fc7290d,626b377229c10585ec392f8a,626b463f03d05b958b50b179,,,,,,,,,,,,,,,,,,,,,space,38.5249,a,1,"[""0.304"",""0.362"",""0.783"",""0.960""]","[1,1,0,1]",0,0,0,0,1,0,1,,,0,FALSE,2.5224,,,,,,,,,,,,,,,,,,,,,,,,,,,,,,
,Fany,001,2022-04-28_21h00.52.431,classification_task,2021.2.3,Win32,59.89099838,613ce1a3742f46925fc7290d,626b377229c10585ec392f8a,626b463f03d05b958b50b179,,,,,,,,,,,,,,,,,,,,,,,l,1,"[""0.097"",""0.188"",""0.682"",""0.719""]","[1,1,0,1]",0,1,1,1,1,1,0,,,0,FALSE,2.3381,,,,,,,,,,,,,,,,,,,,,,,,,,,,,,
,Fany,001,2022-04-28_21h00.52.431,classification_task,2021.2.3,Win32,59.89099838,613ce1a3742f46925fc7290d,626b377229c10585ec392f8a,626b463f03d05b958b50b179,,,,,,,,,,,,,,,,,,,,,,,a,1,"[""0.241"",""0.557"",""0.866"",""0.755""]","[1,1,1,0]",0,2,2,2,1,0,0,,,0,FALSE,1.6186,,,,,,,,,,,,,,,,,,,,,,,,,,,,,,
,Fany,001,2022-04-28_21h00.52.431,classification_task,2021.2.3,Win32,59.89099838,613ce1a3742f46925fc7290d,626b377229c10585ec392f8a,626b463f03d05b958b50b179,,,,,,,,,,,,,,,,,,,,,,,l,1,"[""0.044"",""0.149"",""0.482"",""0.660""]","[1,1,1,0]",0,3,3,3,1,1,1,,,0,FALSE,1.2248,,,,,,,,,,,,,,,,,,,,,,,,,,,,,,
,Fany,001,2022-04-28_21h00.52.431,classification_task,2021.2.3,Win32,59.89099838,613ce1a3742f46925fc7290d,626b377229c10585ec392f8a,626b463f03d05b958b50b179,,,,,,,,,,,,,,,,,,,,,,,a,1,"[""0.783"",""0.362"",""0.609"",""0.960""]","[0,1,1,1]",0,4,4,4,1,0,1,,,0,FALSE,0.8247,,,,,,,,,,,,,,,,,,,,,,,,,,,,,,
,Fany,001,2022-04-28_21h00.52.431,classification_task,2021.2.3,Win32,59.89099838,613ce1a3742f46925fc7290d,626b377229c10585ec392f8a,626b463f03d05b958b50b179,,,,,,,,,,,,,,,,,,,,,,,a,1,"[""0.241"",""0.557"",""0.783"",""0.900""]","[1,1,0,1]",0,5,5,5,1,0,0,,,0,FALSE,2.02,,,,,,,,,,,,,,,,,,,,,,,,,,,,,,
,Fany,001,2022-04-28_21h00.52.431,classification_task,2021.2.3,Win32,59.89099838,613ce1a3742f46925fc7290d,626b377229c10585ec392f8a,626b463f03d05b958b50b179,,,,,,,,,,,,,,,,,,,,,,,l,1,"[""0.755"",""0.188"",""0.444"",""0.719""]","[0,1,1,1]",0,6,6,6,1,1,0,,,0,FALSE,1.146,,,,,,,,,,,,,,,,,,,,,,,,,,,,,,
,Fany,001,2022-04-28_21h00.52.431,classification_task,2021.2.3,Win32,59.89099838,613ce1a3742f46925fc7290d,626b377229c10585ec392f8a,626b463f03d05b958b50b179,,,,,,,,,,,,,,,,,,,,,,,l,1,"[""0.044"",""0.149"",""0.682"",""0.819""]","[1,1,0,1]",0,7,7,7,1,1,1,,,0,FALSE,2.1111,,,,,,,,,,,,,,,,,,,,,,,,,,,,,,
,Fany,001,2022-04-28_21h00.52.431,classification_task,2021.2.3,Win32,59.89099838,613ce1a3742f46925fc7290d,626b377229c10585ec392f8a,626b463f03d05b958b50b179,,,,,,,,,,,,,,,,,,,,,,,l,0,"[""0.241"",""0.652"",""0.866"",""0.900""]","[1,0,1,1]",0,8,8,8,1,0,0,,,0,FALSE,1.2167,,,,,,,,,,,,,,,,,,,,,,,,,,,,,,
,Fany,001,2022-04-28_21h00.52.431,classification_task,2021.2.3,Win32,59.89099838,613ce1a3742f46925fc7290d,626b377229c10585ec392f8a,626b463f03d05b958b50b179,,,,,,,,,,,,,,,,,,,,,,,a,1,"[""0.765"",""0.557"",""0.866"",""0.900""]","[0,1,1,1]",0,9,9,9,1,0,0,,,0,FALSE,0.9758,,,,,,,,,,,,,,,,,,,,,,,,,,,,,,
,Fany,001,2022-04-28_21h00.52.431,classification_task,2021.2.3,Win32,59.89099838,613ce1a3742f46925fc7290d,626b377229c10585ec392f8a,626b463f03d05b958b50b179,,,,,,,,,,,,,,,,,,,,,,,l,1,"[""0.044"",""0.672"",""0.482"",""0.819""]","[1,0,1,1]",0,10,10,10,1,1,1,,,0,FALSE,2.036,,,,,,,,,,,,,,,,,,,,,,,,,,,,,,
,Fany,001,2022-04-28_21h00.52.431,classification_task,2021.2.3,Win32,59.89099838,613ce1a3742f46925fc7290d,626b377229c10585ec392f8a,626b463f03d05b958b50b179,,,,,,,,,,,,,,,,,,,,,,,l,1,"[""0.097"",""0.765"",""0.444"",""0.719""]","[1,0,1,1]",0,11,11,11,1,1,0,,,0,FALSE,1.2154,,,,,,,,,,,,,,,,,,,,,,,,,,,,,,
,Fany,001,2022-04-28_21h00.52.431,classification_task,2021.2.3,Win32,59.89099838,613ce1a3742f46925fc7290d,626b377229c10585ec392f8a,626b463f03d05b958b50b179,,,,,,,,,,,,,,,,,,,,,,,l,1,"[""0.097"",""0.188"",""0.444"",""0.781""]","[1,1,1,0]",0,12,12,12,1,1,0,,,0,FALSE,0.9012,,,,,,,,,,,,,,,,,,,,,,,,,,,,,,
,Fany,001,2022-04-28_21h00.52.431,classification_task,2021.2.3,Win32,59.89099838,613ce1a3742f46925fc7290d,626b377229c10585ec392f8a,626b463f03d05b958b50b179,,,,,,,,,,,,,,,,,,,,,,,l,0,"[""0.304"",""0.362"",""0.609"",""0.403""]","[1,1,1,0]",0,13,13,13,1,0,1,,,0,FALSE,1.4639,,,,,,,,,,,,,,,,,,,,,,,,,,,,,,
,Fany,001,2022-04-28_21h00.52.431,classification_task,2021.2.3,Win32,59.89099838,613ce1a3742f46925fc7290d,626b377229c10585ec392f8a,626b463f03d05b958b50b179,,,,,,,,,,,,,,,,,,,,,,,l,1,"[""0.645"",""0.149"",""0.482"",""0.819""]","[0,1,1,1]",0,14,14,14,1,1,1,,,0,FALSE,1.4641,,,,,,,,,,,,,,,,,,,,,,,,,,,,,,
,Fany,001,2022-04-28_21h00.52.431,classification_task,2021.2.3,Win32,59.89099838,613ce1a3742f46925fc7290d,626b377229c10585ec392f8a,626b463f03d05b958b50b179,,,,,,,,,,,,,,,,,,,,,,,a,1,"[""0.304"",""0.755"",""0.609"",""0.960""]","[1,0,1,1]",0,15,15,15,1,0,1,,,0,FALSE,0.8279,,,,,,,,,,,,,,,,,,,,,,,,,,,,,,
,Fany,001,2022-04-28_21h00.52.431,classification_task,2021.2.3,Win32,59.89099838,613ce1a3742f46925fc7290d,626b377229c10585ec392f8a,626b463f03d05b958b50b179,,,,,,,,,,,,,,,,,,,,,,,a,1,"[""0.241"",""0.557"",""0.866"",""0.645""]","[1,1,1,0]",0,16,16,16,1,0,0,,,0,FALSE,2.2454,,,,,,,,,,,,,,,,,,,,,,,,,,,,,,
,Fany,001,2022-04-28_21h00.52.431,classification_task,2021.2.3,Win32,59.89099838,613ce1a3742f46925fc7290d,626b377229c10585ec392f8a,626b463f03d05b958b50b179,,,,,,,,,,,,,,,,,,,,,,,a,1,"[""0.304"",""0.362"",""0.663"",""0.960""]","[1,1,0,1]",0,17,17,17,1,0,1,,,0,FALSE,1.1415,,,,,,,,,,,,,,,,,,,,,,,,,,,,,,
,Fany,001,2022-04-28_21h00.52.431,classification_task,2021.2.3,Win32,59.89099838,613ce1a3742f46925fc7290d,626b377229c10585ec392f8a,626b463f03d05b958b50b179,,,,,,,,,,,,,,,,,,,,,,,l,0,"[""0.672"",""0.557"",""0.866"",""0.900""]","[0,1,1,1]",0,18,18,18,1,0,0,,,0,FALSE,1.1891,,,,,,,,,,,,,,,,,,,,,,,,,,,,,,
,Fany,001,2022-04-28_21h00.52.431,classification_task,2021.2.3,Win32,59.89099838,613ce1a3742f46925fc7290d,626b377229c10585ec392f8a,626b463f03d05b958b50b179,,,,,,,,,,,,,,,,,,,,,,,l,1,"[""0.097"",""0.188"",""0.682"",""0.719""]","[1,1,0,1]",0,19,19,19,1,1,0,,,0,FALSE,1.3914,,,,,,,,,,,,,,,,,,,,,,,,,,,,,,
,Fany,001,2022-04-28_21h00.52.431,classification_task,2021.2.3,Win32,59.89099838,613ce1a3742f46925fc7290d,626b377229c10585ec392f8a,626b463f03d05b958b50b179,,,,,,,,,,,,,,,,,,,,,,,a,1,"[""0.241"",""0.557"",""0.663"",""0.900""]","[1,1,0,1]",0,20,20,20,1,0,0,,,0,FALSE,1.3104,,,,,,,,,,,,,,,,,,,,,,,,,,,,,,
,Fany,001,2022-04-28_21h00.52.431,classification_task,2021.2.3,Win32,59.89099838,613ce1a3742f46925fc7290d,626b377229c10585ec392f8a,626b463f03d05b958b50b179,,,,,,,,,,,,,,,,,,,,,,,l,1,"[""0.044"",""0.651"",""0.482"",""0.819""]","[1,0,1,1]",0,21,21,21,1,1,1,,,0,FALSE,1.793,,,,,,,,,,,,,,,,,,,,,,,,,,,,,,
,Fany,001,2022-04-28_21h00.52.431,classification_task,2021.2.3,Win32,59.89099838,613ce1a3742f46925fc7290d,626b377229c10585ec392f8a,626b463f03d05b958b50b179,,,,,,,,,,,,,,,,,,,,,,,a,1,"[""0.755"",""0.362"",""0.609"",""0.960""]","[0,1,1,1]",0,22,22,22,1,0,1,,,0,FALSE,0.985,,,,,,,,,,,,,,,,,,,,,,,,,,,,,,
,Fany,001,2022-04-28_21h00.52.431,classification_task,2021.2.3,Win32,59.89099838,613ce1a3742f46925fc7290d,626b377229c10585ec392f8a,626b463f03d05b958b50b179,,,,,,,,,,,,,,,,,,,,,,,a,1,"[""0.304"",""0.775"",""0.609"",""0.960""]","[1,0,1,1]",0,23,23,23,1,0,1,,,0,FALSE,0.8234,,,,,,,,,,,,,,,,,,,,,,,,,,,,,,
,Fany,001,2022-04-28_21h00.52.431,classification_task,2021.2.3,Win32,59.89099838,613ce1a3742f46925fc7290d,626b377229c10585ec392f8a,626b463f03d05b958b50b179,,,,,,,,,,,,,,,,,,,,,,,l,1,"[""0.765"",""0.149"",""0.482"",""0.819""]","[0,1,1,1]",0,24,24,24,1,1,1,,,0,FALSE,2.1987,,,,,,,,,,,,,,,,,,,,,,,,,,,,,,
,Fany,001,2022-04-28_21h00.52.431,classification_task,2021.2.3,Win32,59.89099838,613ce1a3742f46925fc7290d,626b377229c10585ec392f8a,626b463f03d05b958b50b179,,,,,,,,,,,,,,,,,,,,,,,l,1,"[""0.765"",""0.188"",""0.444"",""0.719""]","[0,1,1,1]",0,25,25,25,1,1,0,,,0,FALSE,1.6235,,,,,,,,,,,,,,,,,,,,,,,,,,,,,,
,Fany,001,2022-04-28_21h00.52.431,classification_task,2021.2.3,Win32,59.89099838,613ce1a3742f46925fc7290d,626b377229c10585ec392f8a,626b463f03d05b958b50b179,,,,,,,,,,,,,,,,,,,,,,,l,1,"[""0.044"",""0.149"",""0.775"",""0.819""]","[1,1,0,1]",0,26,26,26,1,1,1,,,0,FALSE,1.378,,,,,,,,,,,,,,,,,,,,,,,,,,,,,,
,Fany,001,2022-04-28_21h00.52.431,classification_task,2021.2.3,Win32,59.89099838,613ce1a3742f46925fc7290d,626b377229c10585ec392f8a,626b463f03d05b958b50b179,,,,,,,,,,,,,,,,,,,,,,,a,1,"[""0.241"",""0.681"",""0.866"",""0.900""]","[1,0,1,1]",0,27,27,27,1,0,0,,,0,FALSE,0.8176,,,,,,,,,,,,,,,,,,,,,,,,,,,,,,
,Fany,001,2022-04-28_21h00.52.431,classification_task,2021.2.3,Win32,59.89099838,613ce1a3742f46925fc7290d,626b377229c10585ec392f8a,626b463f03d05b958b50b179,,,,,,,,,,,,,,,,,,,,,,,l,1,"[""0.044"",""0.149"",""0.482"",""0.681""]","[1,1,1,0]",0,28,28,28,1,1,1,,,0,FALSE,1.6577,,,,,,,,,,,,,,,,,,,,,,,,,,,,,,
,Fany,001,2022-04-28_21h00.52.431,classification_task,2021.2.3,Win32,59.89099838,613ce1a3742f46925fc7290d,626b377229c10585ec392f8a,626b463f03d05b958b50b179,,,,,,,,,,,,,,,,,,,,,,,l,0,"[""0.304"",""0.362"",""0.609"",""0.765""]","[1,1,1,0]",0,29,29,29,1,0,1,,,0,FALSE,1.2112,,,,,,,,,,,,,,,,,,,,,,,,,,,,,,
,Fany,001,2022-04-28_21h00.52.431,classification_task,2021.2.3,Win32,59.89099838,613ce1a3742f46925fc7290d,626b377229c10585ec392f8a,626b463f03d05b958b50b179,,,,,,,,,,,,,,,,,,,,,,,l,1,"[""0.097"",""0.188"",""0.444"",""0.645""]","[1,1,1,0]",0,30,30,30,1,1,0,,,0,FALSE,1.0106,,,,,,,,,,,,,,,,,,,,,,,,,,,,,,
,Fany,001,2022-04-28_21h00.52.431,classification_task,2021.2.3,Win32,59.89099838,613ce1a3742f46925fc7290d,626b377229c10585ec392f8a,626b463f03d05b958b50b179,,,,,,,,,,,,,,,,,,,,,,,l,1,"[""0.097"",""0.672"",""0.444"",""0.719""]","[1,0,1,1]",0,31,31,31,1,1,0,,,0,FALSE,0.7422,,,,,,,,,,,,,,,,,,,,,,,,,,,,,,
,Fany,001,2022-04-28_21h00.52.431,classification_task,2021.2.3,Win32,59.89099838,613ce1a3742f46925fc7290d,626b377229c10585ec392f8a,626b463f03d05b958b50b179,,,,,,,,,,,,,,,,,,,,,,,l,1,"[""0.097"",""0.645"",""0.444"",""0.719""]","[1,0,1,1]",0,32,32,32,1,1,0,,,0,FALSE,0.6808,,,,,,,,,,,,,,,,,,,,,,,,,,,,,,
,Fany,001,2022-04-28_21h00.52.431,classification_task,2021.2.3,Win32,59.89099838,613ce1a3742f46925fc7290d,626b377229c10585ec392f8a,626b463f03d05b958b50b179,,,,,,,,,,,,,,,,,,,,,,,a,1,"[""0.304"",""0.775"",""0.609"",""0.960""]","[1,0,1,1]",0,33,33,33,1,0,1,,,0,FALSE,0.8392,,,,,,,,,,,,,,,,,,,,,,,,,,,,,,
,Fany,001,2022-04-28_21h00.52.431,classification_task,2021.2.3,Win32,59.89099838,613ce1a3742f46925fc7290d,626b377229c10585ec392f8a,626b463f03d05b958b50b179,,,,,,,,,,,,,,,,,,,,,,,a,0,"[""0.044"",""0.149"",""0.482"",""0.660""]","[1,1,1,0]",0,34,34,34,1,1,1,,,0,FALSE,1.0246,,,,,,,,,,,,,,,,,,,,,,,,,,,,,,
,Fany,001,2022-04-28_21h00.52.431,classification_task,2021.2.3,Win32,59.89099838,613ce1a3742f46925fc7290d,626b377229c10585ec392f8a,626b463f03d05b958b50b179,,,,,,,,,,,,,,,,,,,,,,,a,1,"[""0.672"",""0.557"",""0.866"",""0.900""]","[0,1,1,1]",0,35,35,35,1,0,0,,,0,FALSE,0.9444,,,,,,,,,,,,,,,,,,,,,,,,,,,,,,
,Fany,001,2022-04-28_21h00.52.431,classification_task,2021.2.3,Win32,59.89099838,613ce1a3742f46925fc7290d,626b377229c10585ec392f8a,626b463f03d05b958b50b179,,,,,,,,,,,,,,,,,,,,,,,l,1,"[""0.097"",""0.188"",""0.444"",""0.765""]","[1,1,1,0]",0,36,36,36,1,1,0,,,0,FALSE,1.0607,,,,,,,,,,,,,,,,,,,,,,,,,,,,,,
,Fany,001,2022-04-28_21h00.52.431,classification_task,2021.2.3,Win32,59.89099838,613ce1a3742f46925fc7290d,626b377229c10585ec392f8a,626b463f03d05b958b50b179,,,,,,,,,,,,,,,,,,,,,,,a,1,"[""0.241"",""0.557"",""0.775"",""0.900""]","[1,1,0,1]",0,37,37,37,1,0,0,,,0,FALSE,0.8941,,,,,,,,,,,,,,,,,,,,,,,,,,,,,,
,Fany,001,2022-04-28_21h00.52.431,classification_task,2021.2.3,Win32,59.89099838,613ce1a3742f46925fc7290d,626b377229c10585ec392f8a,626b463f03d05b958b50b179,,,,,,,,,,,,,,,,,,,,,,,a,1,"[""0.304"",""0.362"",""0.651"",""0.960""]","[1,1,0,1]",0,38,38,38,1,0,1,,,0,FALSE,0.9049,,,,,,,,,,,,,,,,,,,,,,,,,,,,,,
,Fany,001,2022-04-28_21h00.52.431,classification_task,2021.2.3,Win32,59.89099838,613ce1a3742f46925fc7290d,626b377229c10585ec392f8a,626b463f03d05b958b50b179,,,,,,,,,,,,,,,,,,,,,,,l,1,"[""0.044"",""0.765"",""0.482"",""0.819""]","[1,0,1,1]",0,39,39,39,1,1,1,,,0,FALSE,2.1951,,,,,,,,,,,,,,,,,,,,,,,,,,,,,,
,Fany,001,2022-04-28_21h00.52.431,classification_task,2021.2.3,Win32,59.89099838,613ce1a3742f46925fc7290d,626b377229c10585ec392f8a,626b463f03d05b958b50b179,,,,,,,,,,,,,,,,,,,,,,,l,1,"[""0.672"",""0.188"",""0.444"",""0.719""]","[0,1,1,1]",0,40,40,40,1,1,0,,,0,FALSE,1.3779,,,,,,,,,,,,,,,,,,,,,,,,,,,,,,
,Fany,001,2022-04-28_21h00.52.431,classification_task,2021.2.3,Win32,59.89099838,613ce1a3742f46925fc7290d,626b377229c10585ec392f8a,626b463f03d05b958b50b179,,,,,,,,,,,,,,,,,,,,,,,a,1,"[""0.241"",""0.765"",""0.866"",""0.900""]","[1,0,1,1]",0,41,41,41,1,0,0,,,0,FALSE,1.3041,,,,,,,,,,,,,,,,,,,,,,,,,,,,,,
,Fany,001,2022-04-28_21h00.52.431,classification_task,2021.2.3,Win32,59.89099838,613ce1a3742f46925fc7290d,626b377229c10585ec392f8a,626b463f03d05b958b50b179,,,,,,,,,,,,,,,,,,,,,,,l,0,"[""0.304"",""0.362"",""0.609"",""0.672""]","[1,1,1,0]",0,42,42,42,1,0,1,,,0,FALSE,2.8525,,,,,,,,,,,,,,,,,,,,,,,,,,,,,,
,Fany,001,2022-04-28_21h00.52.431,classification_task,2021.2.3,Win32,59.89099838,613ce1a3742f46925fc7290d,626b377229c10585ec392f8a,626b463f03d05b958b50b179,,,,,,,,,,,,,,,,,,,,,,,l,1,"[""0.765"",""0.149"",""0.482"",""0.819""]","[0,1,1,1]",0,43,43,43,1,1,1,,,0,FALSE,1.3981,,,,,,,,,,,,,,,,,,,,,,,,,,,,,,
,Fany,001,2022-04-28_21h00.52.431,classification_task,2021.2.3,Win32,59.89099838,613ce1a3742f46925fc7290d,626b377229c10585ec392f8a,626b463f03d05b958b50b179,,,,,,,,,,,,,,,,,,,,,,,a,1,"[""0.241"",""0.557"",""0.866"",""0.765""]","[1,1,1,0]",0,44,44,44,1,0,0,,,0,FALSE,1.2949,,,,,,,,,,,,,,,,,,,,,,,,,,,,,,
,Fany,001,2022-04-28_21h00.52.431,classification_task,2021.2.3,Win32,59.89099838,613ce1a3742f46925fc7290d,626b377229c10585ec392f8a,626b463f03d05b958b50b179,,,,,,,,,,,,,,,,,,,,,,,a,1,"[""0.681"",""0.362"",""0.609"",""0.960""]","[0,1,1,1]",0,45,45,45,1,0,1,,,0,FALSE,0.9807,,,,,,,,,,,,,,,,,,,,,,,,,,,,,,
,Fany,001,2022-04-28_21h00.52.431,classification_task,2021.2.3,Win32,59.89099838,613ce1a3742f46925fc7290d,626b377229c10585ec392f8a,626b463f03d05b958b50b179,,,,,,,,,,,,,,,,,,,,,,,l,1,"[""0.097"",""0.188"",""0.783"",""0.719""]","[1,1,0,1]",0,46,46,46,1,1,0,,,0,FALSE,1.0657,,,,,,,,,,,,,,,,,,,,,,,,,,,,,,
,Fany,001,2022-04-28_21h00.52.431,classification_task,2021.2.3,Win32,59.89099838,613ce1a3742f46925fc7290d,626b377229c10585ec392f8a,626b463f03d05b958b50b179,,,,,,,,,,,,,,,,,,,,,,,l,1,"[""0.044"",""0.149"",""0.755"",""0.819""]","[1,1,0,1]",0,47,47,47,1,1,1,,,0,FALSE,1.8804,,,,,,,,,,,,,,,,,,,,,,,,,,,,,,
,Fany,001,2022-04-28_21h00.52.431,classification_task,2021.2.3,Win32,59.89099838,613ce1a3742f46925fc7290d,626b377229c10585ec392f8a,626b463f03d05b958b50b179,,,,,,,,,,,,,,,,,,,,,,,l,1,"[""0.097"",""0.188"",""0.444"",""0.645""]","[1,1,1,0]",0,48,48,48,1,1,0,,,0,FALSE,1.1327,,,,,,,,,,,,,,,,,,,,,,,,,,,,,,
,Fany,001,2022-04-28_21h00.52.431,classification_task,2021.2.3,Win32,59.89099838,613ce1a3742f46925fc7290d,626b377229c10585ec392f8a,626b463f03d05b958b50b179,,,,,,,,,,,,,,,,,,,,,,,l,1,"[""0.781"",""0.149"",""0.482"",""0.819""]","[0,1,1,1]",0,49,49,49,1,1,1,,,0,FALSE,1.5374,,,,,,,,,,,,,,,,,,,,,,,,,,,,,,
,Fany,001,2022-04-28_21h00.52.431,classification_task,2021.2.3,Win32,59.89099838,613ce1a3742f46925fc7290d,626b377229c10585ec392f8a,626b463f03d05b958b50b179,,,,,,,,,,,,,,,,,,,,,,,a,1,"[""0.241"",""0.660"",""0.866"",""0.900""]","[1,0,1,1]",0,50,50,50,1,0,0,,,0,FALSE,0.5711,,,,,,,,,,,,,,,,,,,,,,,,,,,,,,
,Fany,001,2022-04-28_21h00.52.431,classification_task,2021.2.3,Win32,59.89099838,613ce1a3742f46925fc7290d,626b377229c10585ec392f8a,626b463f03d05b958b50b179,,,,,,,,,,,,,,,,,,,,,,,a,0,"[""0.044"",""0.149"",""0.765"",""0.819""]","[1,1,0,1]",0,51,51,51,1,1,1,,,0,FALSE,0.8989,,,,,,,,,,,,,,,,,,,,,,,,,,,,,,
,Fany,001,2022-04-28_21h00.52.431,classification_task,2021.2.3,Win32,59.89099838,613ce1a3742f46925fc7290d,626b377229c10585ec392f8a,626b463f03d05b958b50b179,,,,,,,,,,,,,,,,,,,,,,,a,1,"[""0.304"",""0.362"",""0.660"",""0.960""]","[1,1,0,1]",0,52,52,52,1,0,1,,,0,FALSE,0.9788,,,,,,,,,,,,,,,,,,,,,,,,,,,,,,
,Fany,001,2022-04-28_21h00.52.431,classification_task,2021.2.3,Win32,59.89099838,613ce1a3742f46925fc7290d,626b377229c10585ec392f8a,626b463f03d05b958b50b179,,,,,,,,,,,,,,,,,,,,,,,a,1,"[""0.304"",""0.663"",""0.609"",""0.960""]","[1,0,1,1]",0,53,53,53,1,0,1,,,0,FALSE,2.5246,,,,,,,,,,,,,,,,,,,,,,,,,,,,,,
,Fany,001,2022-04-28_21h00.52.431,classification_task,2021.2.3,Win32,59.89099838,613ce1a3742f46925fc7290d,626b377229c10585ec392f8a,626b463f03d05b958b50b179,,,,,,,,,,,,,,,,,,,,,,,a,1,"[""0.644"",""0.362"",""0.609"",""0.960""]","[0,1,1,1]",0,54,54,54,1,0,1,,,0,FALSE,0.8551,,,,,,,,,,,,,,,,,,,,,,,,,,,,,,
,Fany,001,2022-04-28_21h00.52.431,classification_task,2021.2.3,Win32,59.89099838,613ce1a3742f46925fc7290d,626b377229c10585ec392f8a,626b463f03d05b958b50b179,,,,,,,,,,,,,,,,,,,,,,,a,1,"[""0.755"",""0.557"",""0.866"",""0.900""]","[0,1,1,1]",0,55,55,55,1,0,0,,,0,FALSE,0.9265,,,,,,,,,,,,,,,,,,,,,,,,,,,,,,
,Fany,001,2022-04-28_21h00.52.431,classification_task,2021.2.3,Win32,59.89099838,613ce1a3742f46925fc7290d,626b377229c10585ec392f8a,626b463f03d05b958b50b179,,,,,,,,,,,,,,,,,,,,,,,l,1,"[""0.681"",""0.188"",""0.444"",""0.719""]","[0,1,1,1]",0,56,56,56,1,1,0,,,0,FALSE,1.4661,,,,,,,,,,,,,,,,,,,,,,,,,,,,,,
,Fany,001,2022-04-28_21h00.52.431,classification_task,2021.2.3,Win32,59.89099838,613ce1a3742f46925fc7290d,626b377229c10585ec392f8a,626b463f03d05b958b50b179,,,,,,,,,,,,,,,,,,,,,,,l,1,"[""0.097"",""0.765"",""0.444"",""0.719""]","[1,0,1,1]",0,57,57,57,1,1,0,,,0,FALSE,1.3721,,,,,,,,,,,,,,,,,,,,,,,,,,,,,,
,Fany,001,2022-04-28_21h00.52.431,classification_task,2021.2.3,Win32,59.89099838,613ce1a3742f46925fc7290d,626b377229c10585ec392f8a,626b463f03d05b958b50b179,,,,,,,,,,,,,,,,,,,,,,,l,1,"[""0.097"",""0.188"",""0.651"",""0.719""]","[1,1,0,1]",0,58,58,58,1,1,0,,,0,FALSE,0.873,,,,,,,,,,,,,,,,,,,,,,,,,,,,,,
,Fany,001,2022-04-28_21h00.52.431,classification_task,2021.2.3,Win32,59.89099838,613ce1a3742f46925fc7290d,626b377229c10585ec392f8a,626b463f03d05b958b50b179,,,,,,,,,,,,,,,,,,,,,,,a,1,"[""0.241"",""0.557"",""0.403"",""0.900""]","[1,1,0,1]",0,59,59,59,1,0,0,,,0,FALSE,1.1376,,,,,,,,,,,,,,,,,,,,,,,,,,,,,,
,Fany,001,2022-04-28_21h00.52.431,classification_task,2021.2.3,Win32,59.89099838,613ce1a3742f46925fc7290d,626b377229c10585ec392f8a,626b463f03d05b958b50b179,,,,,,,,,,,,,,,,,,,,,,,l,1,"[""0.044"",""0.149"",""0.482"",""0.663""]","[1,1,1,0]",0,60,60,60,1,1,1,,,0,FALSE,2.1979,,,,,,,,,,,,,,,,,,,,,,,,,,,,,,
,Fany,001,2022-04-28_21h00.52.431,classification_task,2021.2.3,Win32,59.89099838,613ce1a3742f46925fc7290d,626b377229c10585ec392f8a,626b463f03d05b958b50b179,,,,,,,,,,,,,,,,,,,,,,,l,1,"[""0.044"",""0.651"",""0.482"",""0.819""]","[1,0,1,1]",0,61,61,61,1,1,1,,,0,FALSE,1.691,,,,,,,,,,,,,,,,,,,,,,,,,,,,,,
,Fany,001,2022-04-28_21h00.52.431,classification_task,2021.2.3,Win32,59.89099838,613ce1a3742f46925fc7290d,626b377229c10585ec392f8a,626b463f03d05b958b50b179,,,,,,,,,,,,,,,,,,,,,,,a,1,"[""0.241"",""0.557"",""0.866"",""0.781""]","[1,1,1,0]",0,62,62,62,1,0,0,,,0,FALSE,0.9836,,,,,,,,,,,,,,,,,,,,,,,,,,,,,,
,Fany,001,2022-04-28_21h00.52.431,classification_task,2021.2.3,Win32,59.89099838,613ce1a3742f46925fc7290d,626b377229c10585ec392f8a,626b463f03d05b958b50b179,,,,,,,,,,,,,,,,,,,,,,,l,0,"[""0.304"",""0.362"",""0.609"",""0.651""]","[1,1,1,0]",0,63,63,63,1,0,1,,,0,FALSE,1.5469,,,,,,,,,,,,,,,,,,,,,,,,,,,,,,
,Fany,001,2022-04-28_21h00.52.431,classification_task,2021.2.3,Win32,59.89099838,613ce1a3742f46925fc7290d,626b377229c10585ec392f8a,626b463f03d05b958b50b179,,,,,,,,,,,,,,,,,,,,,,,,,,,,,,,,,,,,,,,0, ,,0,3.036541005,199.474,0,2,2,2,1,2,3,,,,,,,,,,,,,,,,,
,Fany,001,2022-04-28_21h00.52.431,classification_task,2021.2.3,Win32,59.89099838,613ce1a3742f46925fc7290d,626b377229c10585ec392f8a,626b463f03d05b958b50b179,,,,,,,,,,,,,,,,,,,,,,,,,,,,,,,,,,,,,,,1,  ,,0,6.274526014,202.9312,0,2,2,2,1,2,3,,,,,,,,,,,,,,,,,
,Fany,001,2022-04-28_21h00.52.431,classification_task,2021.2.3,Win32,59.89099838,613ce1a3742f46925fc7290d,626b377229c10585ec392f8a,626b463f03d05b958b50b179,,,,,,,,,,,,,,,,,,,,,,,,,,,,,,,,,,,,,,,2,  ,,0,4.345513668,206.0754,0,2,2,2,1,2,3,,,,,,,,,,,,,,,,,
,Fany,001,2022-04-28_21h00.52.431,classification_task,2021.2.3,Win32,59.89099838,613ce1a3742f46925fc7290d,626b377229c10585ec392f8a,626b463f03d05b958b50b179,,,,,,,,,,,,,,,,,,,,,,,,,,,,,,,,,,,,,,,,,,,,,0,2,2,2,1,,3,,,,,,,,,,,,,,,,,
,Fany,001,2022-04-28_21h00.52.431,classification_task,2021.2.3,Win32,59.89099838,613ce1a3742f46925fc7290d,626b377229c10585ec392f8a,626b463f03d05b958b50b179,,,,,,,,,,,,,,,,,,,,,,,,,,,,,,,,,,,,,,,,,,,,,,,,,,,,,I believe the aid is a competent performer,,0.7,0,3,1199.1285,0,0,0,0,1,0,,,,
,Fany,001,2022-04-28_21h00.52.431,classification_task,2021.2.3,Win32,59.89099838,613ce1a3742f46925fc7290d,626b377229c10585ec392f8a,626b463f03d05b958b50b179,,,,,,,,,,,,,,,,,,,,,,,,,,,,,,,,,,,,,,,,,,,,,,,,,,,,,I trust the aid,,0.7,0,4,1203.6184,0,0,0,0,1,0,,,,
,Fany,001,2022-04-28_21h00.52.431,classification_task,2021.2.3,Win32,59.89099838,613ce1a3742f46925fc7290d,626b377229c10585ec392f8a,626b463f03d05b958b50b179,,,,,,,,,,,,,,,,,,,,,,,,,,,,,,,,,,,,,,,,,,,,,,,,,,,,,I have confidence in the advice given by the aid,,0.7,0,3,1206.1246,0,0,0,0,1,0,,,,
,Fany,001,2022-04-28_21h00.52.431,classification_task,2021.2.3,Win32,59.89099838,613ce1a3742f46925fc7290d,626b377229c10585ec392f8a,626b463f03d05b958b50b179,,,,,,,,,,,,,,,,,,,,,,,,,,,,,,,,,,,,,,,,,,,,,,,,,,,,,I can depend on the aid,,0.7,0,4,1209.5714,0,0,0,0,1,0,,,,
,Fany,001,2022-04-28_21h00.52.431,classification_task,2021.2.3,Win32,59.89099838,613ce1a3742f46925fc7290d,626b377229c10585ec392f8a,626b463f03d05b958b50b179,,,,,,,,,,,,,,,,,,,,,,,,,,,,,,,,,,,,,,,,,,,,,,,,,,,,,I can rely on the aid to behave in consistent ways,,0.7,0,2,1212.9472,0,0,0,0,1,0,,,,
,Fany,001,2022-04-28_21h00.52.431,classification_task,2021.2.3,Win32,59.89099838,613ce1a3742f46925fc7290d,626b377229c10585ec392f8a,626b463f03d05b958b50b179,,,,,,,,,,,,,,,,,,,,,,,,,,,,,,,,,,,,,,,,,,,,,,,,,,,,,I can rely on the aid to do its best every time I take its advice,,0.7,0,4,1257.0911,0,0,0,0,1,0,,,,
,Fany,001,2022-04-28_21h00.52.431,classification_task,2021.2.3,Win32,59.89099838,613ce1a3742f46925fc7290d,626b377229c10585ec392f8a,626b463f03d05b958b50b179,,,,,,,,,,,,,,,,,,,,,,,,,,,,,,,,,,,,,,,,,,,,,,,,,,,,,"On trials you completed with assistance from the aid, how frequently did you think the aid was correct?",,0.7,0,70,,0,0,0,0,1,0,,,,
,Fany,001,2022-04-28_21h00.52.431,classification_task,2021.2.3,Win32,59.89099838,613ce1a3742f46925fc7290d,626b377229c10585ec392f8a,626b463f03d05b958b50b179,,,,,,,,,,,,,,,,,,,,,,,,,,,,,,,,,,,,,,,,,,,,,,,,,,,,,"On trials you completed without the aid, how frequently did you think you were correct?",,0.7,0,50,,0,0,0,0,1,0,,,,
,Fany,001,2022-04-28_21h00.52.431,classification_task,2021.2.3,Win32,59.89099838,613ce1a3742f46925fc7290d,626b377229c10585ec392f8a,626b463f03d05b958b50b179,,,,,,,,,,,,,,,,,,,,,,,,,,,,,,,,,,,,,,,,,,,,,,,,,,,,,,,,,,,0,0,0,0,1,,,,,
,Fany,001,2022-04-28_21h00.52.431,classification_task,2021.2.3,Win32,59.89099838,613ce1a3742f46925fc7290d,626b377229c10585ec392f8a,626b463f03d05b958b50b179,,,,,,,,,,,,,,,,,,,,,,,,,,,,,,,,,,,,,,,,,,,,,,,,,,,,,,,,,,,,,,,,,space,8.9966,1267.7379,
,Fany,001,2022-04-28_21h00.52.431,classification_task,2021.2.3,Win32,59.89099838,613ce1a3742f46925fc7290d,626b377229c10585ec392f8a,626b463f03d05b958b50b179,,,,,,,,,,,,,,,,,,,,,,,,,,,,,,,,,,,,,,,,,,,,,,,,,,,,,,,,,,,,,,,,,,,,"Mozilla/5.0 (Windows NT 10.0; Win64; x64) AppleWebKit/537.36 (KHTML, like Gecko) Chrome/101.0.4951.41 Safari/537.36"
