usingWebGL,participant,session,date,expName,psychopyVersion,OS,frameRate,PROLIFIC_PID,STUDY_ID,SESSION_ID,signatures_friend,signatures_foe,band_ranges_top,band_ranges_bottom,formitemText,formtype,formundefined,formitemWidth,formindex,formresponse,formrt,key_resp_2.keys,key_resp_2.rt,tute_resp.keys,tute_resp.rt,tutorial.thisRepN,tutorial.thisTrialN,tutorial.thisN,tutorial.thisIndex,tutorial.ran,key_resp_4.keys,key_resp_4.rt,key_resp.keys,key_resp.corr,key_resp.rt,lines_presented,is_signal_presented,trials.thisRepN,trials.thisTrialN,trials.thisN,trials.thisIndex,trials.ran,vessel,active_band,lines,is_signal,supported_pos,catch_trial,debrief_formindex,debrief_formitemText,debrief_formtype,debrief_formitemWidth,debrief_formresponse,debrief_formrt,phases.thisRepN,phases.thisTrialN,phases.thisN,phases.thisIndex,phases.ran,phases.order,phase,key_resp_3.keys,trustitemText,trusttype,trustitemWidth,trustindex,trustresponse,trustrt,support_status.thisRepN,support_status.thisTrialN,support_status.thisN,support_status.thisIndex,support_status.ran,support_status.order,key_resp_5.keys,key_resp_5.rt,globalClockTime,userAgent
TRUE,Gareyh,001,2022-04-29_02h13.33.424,classification_task,2021.2.3,Win32,59.66231132,60eeef59b6f6d71e2529111f,626b377229c10585ec392f89,626b3ab97ea1b826abb652f6,,,,,,,,,,,,,,,,,,,,,,,,,,,,,,,,,,,,,,,,,,,,,,,,,,,,,,,,,,,,,,,,,,,,
,Gareyh,001,2022-04-29_02h13.33.424,classification_task,2021.2.3,Win32,59.66231132,60eeef59b6f6d71e2529111f,626b377229c10585ec392f89,626b3ab97ea1b826abb652f6,"[[""0.301"",""0.529"",""0.671"",""0.926""],[""0.190"",""0.338"",""0.864"",""0.975""]]","[[""0.086"",""0.265"",""0.598"",""0.786""],[""0.150"",""0.392"",""0.445"",""0.717""]]","[1,10]","[100,1000]",Video game experience,,,0.7,0,,,,,,,,,,,,,,,,,,,,,,,,,,,,,,,,,,,,,,,,,,,,,,,,,,,,,,,,,,,
,Gareyh,001,2022-04-29_02h13.33.424,classification_task,2021.2.3,Win32,59.66231132,60eeef59b6f6d71e2529111f,626b377229c10585ec392f89,626b3ab97ea1b826abb652f6,,,,,Approximately how many hours did you spend playing video games in the last week?,,,0.7,0,3,,,,,,,,,,,,,,,,,,,,,,,,,,,,,,,,,,,,,,,,,,,,,,,,,,,,,,,,,,
,Gareyh,001,2022-04-29_02h13.33.424,classification_task,2021.2.3,Win32,59.66231132,60eeef59b6f6d71e2529111f,626b377229c10585ec392f89,626b3ab97ea1b826abb652f6,,,,,"Which game did you play the most this year? (Enter ""None"" if you didn't play any)",,,0.7,0,fifa,,,,,,,,,,,,,,,,,,,,,,,,,,,,,,,,,,,,,,,,,,,,,,,,,,,,,,,,,,
,Gareyh,001,2022-04-29_02h13.33.424,classification_task,2021.2.3,Win32,59.66231132,60eeef59b6f6d71e2529111f,626b377229c10585ec392f89,626b3ab97ea1b826abb652f6,,,,,Visual perception,,,0.7,0,,,,,,,,,,,,,,,,,,,,,,,,,,,,,,,,,,,,,,,,,,,,,,,,,,,,,,,,,,,
,Gareyh,001,2022-04-29_02h13.33.424,classification_task,2021.2.3,Win32,59.66231132,60eeef59b6f6d71e2529111f,626b377229c10585ec392f89,626b3ab97ea1b826abb652f6,,,,,Do you have any form of color blindness?,,,0.7,0,No,35.0209,,,,,,,,,,,,,,,,,,,,,,,,,,,,,,,,,,,,,,,,,,,,,,,,,,,,,,,,,
,Gareyh,001,2022-04-29_02h13.33.424,classification_task,2021.2.3,Win32,59.66231132,60eeef59b6f6d71e2529111f,626b377229c10585ec392f89,626b3ab97ea1b826abb652f6,,,,,Do you use software to change the colour temperature of your screen (e.g. f.lux)?,,,0.7,0,No,38.923,,,,,,,,,,,,,,,,,,,,,,,,,,,,,,,,,,,,,,,,,,,,,,,,,,,,,,,,,
,Gareyh,001,2022-04-29_02h13.33.424,classification_task,2021.2.3,Win32,59.66231132,60eeef59b6f6d71e2529111f,626b377229c10585ec392f89,626b3ab97ea1b826abb652f6,,,,,,,,,,,,space,130.721,space,13.4832,0,0,0,0,1,,,,,,,,,,,,,,,,,,,,,,,,,,,,,,,,,,,,,,,,,,,,,,,,
,Gareyh,001,2022-04-29_02h13.33.424,classification_task,2021.2.3,Win32,59.66231132,60eeef59b6f6d71e2529111f,626b377229c10585ec392f89,626b3ab97ea1b826abb652f6,,,,,,,,,,,,,,space,7.5224,1,0,1,0,1,,,,,,,,,,,,,,,,,,,,,,,,,,,,,,,,,,,,,,,,,,,,,,,,
,Gareyh,001,2022-04-29_02h13.33.424,classification_task,2021.2.3,Win32,59.66231132,60eeef59b6f6d71e2529111f,626b377229c10585ec392f89,626b3ab97ea1b826abb652f6,,,,,,,,,,,,,,space,14.2989,2,0,2,0,1,,,,,,,,,,,,,,,,,,,,,,,,,,,,,,,,,,,,,,,,,,,,,,,,
,Gareyh,001,2022-04-29_02h13.33.424,classification_task,2021.2.3,Win32,59.66231132,60eeef59b6f6d71e2529111f,626b377229c10585ec392f89,626b3ab97ea1b826abb652f6,,,,,,,,,,,,,,space,13.04,3,0,3,0,1,,,,,,,,,,,,,,,,,,,,,,,,,,,,,,,,,,,,,,,,,,,,,,,,
,Gareyh,001,2022-04-29_02h13.33.424,classification_task,2021.2.3,Win32,59.66231132,60eeef59b6f6d71e2529111f,626b377229c10585ec392f89,626b3ab97ea1b826abb652f6,,,,,,,,,,,,,,space,50.9554,4,0,4,0,1,,,,,,,,,,,,,,,,,,,,,,,,,,,,,,,,,,,,,,,,,,,,,,,,
,Gareyh,001,2022-04-29_02h13.33.424,classification_task,2021.2.3,Win32,59.66231132,60eeef59b6f6d71e2529111f,626b377229c10585ec392f89,626b3ab97ea1b826abb652f6,,,,,,,,,,,,,,,,,,,,,space,9.5234,a,1,9.5673,"[""0.301"",""0.529"",""0.671"",""0.481""]","[1,1,1,0]",0,0,0,0,1,0,0,,,0,FALSE,,,,,,,,,,,,,,,,,,,,,,,,,,,,,,
,Gareyh,001,2022-04-29_02h13.33.424,classification_task,2021.2.3,Win32,59.66231132,60eeef59b6f6d71e2529111f,626b377229c10585ec392f89,626b3ab97ea1b826abb652f6,,,,,,,,,,,,,,,,,,,,,,,l,0,1.4421,"[""0.484"",""0.338"",""0.864"",""0.975""]","[0,1,1,1]",0,1,1,1,1,0,1,,,0,FALSE,,,,,,,,,,,,,,,,,,,,,,,,,,,,,,
,Gareyh,001,2022-04-29_02h13.33.424,classification_task,2021.2.3,Win32,59.66231132,60eeef59b6f6d71e2529111f,626b377229c10585ec392f89,626b3ab97ea1b826abb652f6,,,,,,,,,,,,,,,,,,,,,,,l,1,8.6047,"[""0.150"",""0.392"",""0.752"",""0.717""]","[1,1,0,1]",0,2,2,2,1,1,1,,,0,FALSE,,,,,,,,,,,,,,,,,,,,,,,,,,,,,,
,Gareyh,001,2022-04-29_02h13.33.424,classification_task,2021.2.3,Win32,59.66231132,60eeef59b6f6d71e2529111f,626b377229c10585ec392f89,626b3ab97ea1b826abb652f6,,,,,,,,,,,,,,,,,,,,,,,l,0,8.134,"[""0.831"",""0.529"",""0.671"",""0.926""]","[0,1,1,1]",0,3,3,3,1,0,0,,,0,FALSE,,,,,,,,,,,,,,,,,,,,,,,,,,,,,,
,Gareyh,001,2022-04-29_02h13.33.424,classification_task,2021.2.3,Win32,59.66231132,60eeef59b6f6d71e2529111f,626b377229c10585ec392f89,626b3ab97ea1b826abb652f6,,,,,,,,,,,,,,,,,,,,,,,l,1,1.4327,"[""0.086"",""0.265"",""0.033"",""0.786""]","[1,1,0,1]",0,4,4,4,1,1,0,,,0,FALSE,,,,,,,,,,,,,,,,,,,,,,,,,,,,,,
,Gareyh,001,2022-04-29_02h13.33.424,classification_task,2021.2.3,Win32,59.66231132,60eeef59b6f6d71e2529111f,626b377229c10585ec392f89,626b3ab97ea1b826abb652f6,,,,,,,,,,,,,,,,,,,,,,,a,1,0.8863,"[""0.301"",""0.529"",""0.496"",""0.926""]","[1,1,0,1]",0,5,5,5,1,0,0,,,0,FALSE,,,,,,,,,,,,,,,,,,,,,,,,,,,,,,
,Gareyh,001,2022-04-29_02h13.33.424,classification_task,2021.2.3,Win32,59.66231132,60eeef59b6f6d71e2529111f,626b377229c10585ec392f89,626b3ab97ea1b826abb652f6,,,,,,,,,,,,,,,,,,,,,,,,0,,"[""0.150"",""0.392"",""0.445"",""0.033""]","[1,1,1,0]",0,6,6,6,1,1,1,,,0,FALSE,,,,,,,,,,,,,,,,,,,,,,,,,,,,,,
,Gareyh,001,2022-04-29_02h13.33.424,classification_task,2021.2.3,Win32,59.66231132,60eeef59b6f6d71e2529111f,626b377229c10585ec392f89,626b3ab97ea1b826abb652f6,,,,,,,,,,,,,,,,,,,,,,,l,1,1.2291,"[""0.633"",""0.265"",""0.598"",""0.786""]","[0,1,1,1]",0,7,7,7,1,1,0,,,0,FALSE,,,,,,,,,,,,,,,,,,,,,,,,,,,,,,
,Gareyh,001,2022-04-29_02h13.33.424,classification_task,2021.2.3,Win32,59.66231132,60eeef59b6f6d71e2529111f,626b377229c10585ec392f89,626b3ab97ea1b826abb652f6,,,,,,,,,,,,,,,,,,,,,,,a,0,0.9541,"[""0.150"",""0.831"",""0.445"",""0.717""]","[1,0,1,1]",0,8,8,8,1,1,1,,,0,FALSE,,,,,,,,,,,,,,,,,,,,,,,,,,,,,,
,Gareyh,001,2022-04-29_02h13.33.424,classification_task,2021.2.3,Win32,59.66231132,60eeef59b6f6d71e2529111f,626b377229c10585ec392f89,626b3ab97ea1b826abb652f6,,,,,,,,,,,,,,,,,,,,,,,l,1,1.8075,"[""0.086"",""0.481"",""0.598"",""0.786""]","[1,0,1,1]",0,9,9,9,1,1,0,,,0,FALSE,,,,,,,,,,,,,,,,,,,,,,,,,,,,,,
,Gareyh,001,2022-04-29_02h13.33.424,classification_task,2021.2.3,Win32,59.66231132,60eeef59b6f6d71e2529111f,626b377229c10585ec392f89,626b3ab97ea1b826abb652f6,,,,,,,,,,,,,,,,,,,,,,,a,1,0.9517,"[""0.301"",""0.484"",""0.671"",""0.926""]","[1,0,1,1]",0,10,10,10,1,0,0,,,0,FALSE,,,,,,,,,,,,,,,,,,,,,,,,,,,,,,
,Gareyh,001,2022-04-29_02h13.33.424,classification_task,2021.2.3,Win32,59.66231132,60eeef59b6f6d71e2529111f,626b377229c10585ec392f89,626b3ab97ea1b826abb652f6,,,,,,,,,,,,,,,,,,,,,,,l,1,1.3473,"[""0.086"",""0.265"",""0.598"",""0.228""]","[1,1,1,0]",0,11,11,11,1,1,0,,,0,FALSE,,,,,,,,,,,,,,,,,,,,,,,,,,,,,,
,Gareyh,001,2022-04-29_02h13.33.424,classification_task,2021.2.3,Win32,59.66231132,60eeef59b6f6d71e2529111f,626b377229c10585ec392f89,626b3ab97ea1b826abb652f6,,,,,,,,,,,,,,,,,,,,,,,a,1,1.402,"[""0.190"",""0.338"",""0.864"",""0.228""]","[1,1,1,0]",0,12,12,12,1,0,1,,,0,FALSE,,,,,,,,,,,,,,,,,,,,,,,,,,,,,,
,Gareyh,001,2022-04-29_02h13.33.424,classification_task,2021.2.3,Win32,59.66231132,60eeef59b6f6d71e2529111f,626b377229c10585ec392f89,626b3ab97ea1b826abb652f6,,,,,,,,,,,,,,,,,,,,,,,l,1,0.8722,"[""0.831"",""0.392"",""0.445"",""0.717""]","[0,1,1,1]",0,13,13,13,1,1,1,,,0,FALSE,,,,,,,,,,,,,,,,,,,,,,,,,,,,,,
,Gareyh,001,2022-04-29_02h13.33.424,classification_task,2021.2.3,Win32,59.66231132,60eeef59b6f6d71e2529111f,626b377229c10585ec392f89,626b3ab97ea1b826abb652f6,,,,,,,,,,,,,,,,,,,,,,,l,0,1.434,"[""0.190"",""0.338"",""0.481"",""0.975""]","[1,1,0,1]",0,14,14,14,1,0,1,,,0,FALSE,,,,,,,,,,,,,,,,,,,,,,,,,,,,,,
,Gareyh,001,2022-04-29_02h13.33.424,classification_task,2021.2.3,Win32,59.66231132,60eeef59b6f6d71e2529111f,626b377229c10585ec392f89,626b3ab97ea1b826abb652f6,,,,,,,,,,,,,,,,,,,,,,,a,1,0.413,"[""0.190"",""0.490"",""0.864"",""0.975""]","[1,0,1,1]",0,15,15,15,1,0,1,,,0,FALSE,,,,,,,,,,,,,,,,,,,,,,,,,,,,,,
,Gareyh,001,2022-04-29_02h13.33.424,classification_task,2021.2.3,Win32,59.66231132,60eeef59b6f6d71e2529111f,626b377229c10585ec392f89,626b3ab97ea1b826abb652f6,,,,,,,,,,,,,,,,,,,,,,,a,1,0.9118,"[""0.190"",""0.338"",""0.864"",""0.033""]","[1,1,1,0]",0,16,16,16,1,0,1,,,0,FALSE,,,,,,,,,,,,,,,,,,,,,,,,,,,,,,
,Gareyh,001,2022-04-29_02h13.33.424,classification_task,2021.2.3,Win32,59.66231132,60eeef59b6f6d71e2529111f,626b377229c10585ec392f89,626b3ab97ea1b826abb652f6,,,,,,,,,,,,,,,,,,,,,,,l,1,1.498,"[""0.496"",""0.392"",""0.445"",""0.717""]","[0,1,1,1]",0,17,17,17,1,1,1,,,0,FALSE,,,,,,,,,,,,,,,,,,,,,,,,,,,,,,
,Gareyh,001,2022-04-29_02h13.33.424,classification_task,2021.2.3,Win32,59.66231132,60eeef59b6f6d71e2529111f,626b377229c10585ec392f89,626b3ab97ea1b826abb652f6,,,,,,,,,,,,,,,,,,,,,,,l,0,0.8625,"[""0.301"",""0.496"",""0.671"",""0.926""]","[1,0,1,1]",0,18,18,18,1,0,0,,,0,FALSE,,,,,,,,,,,,,,,,,,,,,,,,,,,,,,
,Gareyh,001,2022-04-29_02h13.33.424,classification_task,2021.2.3,Win32,59.66231132,60eeef59b6f6d71e2529111f,626b377229c10585ec392f89,626b3ab97ea1b826abb652f6,,,,,,,,,,,,,,,,,,,,,,,a,0,0.4321,"[""0.150"",""0.392"",""0.445"",""0.830""]","[1,1,1,0]",0,19,19,19,1,1,1,,,0,FALSE,,,,,,,,,,,,,,,,,,,,,,,,,,,,,,
,Gareyh,001,2022-04-29_02h13.33.424,classification_task,2021.2.3,Win32,59.66231132,60eeef59b6f6d71e2529111f,626b377229c10585ec392f89,626b3ab97ea1b826abb652f6,,,,,,,,,,,,,,,,,,,,,,,a,1,0.1578,"[""0.484"",""0.338"",""0.864"",""0.975""]","[0,1,1,1]",0,20,20,20,1,0,1,,,0,FALSE,,,,,,,,,,,,,,,,,,,,,,,,,,,,,,
,Gareyh,001,2022-04-29_02h13.33.424,classification_task,2021.2.3,Win32,59.66231132,60eeef59b6f6d71e2529111f,626b377229c10585ec392f89,626b3ab97ea1b826abb652f6,,,,,,,,,,,,,,,,,,,,,,,l,1,0.3216,"[""0.086"",""0.496"",""0.598"",""0.786""]","[1,0,1,1]",0,21,21,21,1,1,0,,,0,FALSE,,,,,,,,,,,,,,,,,,,,,,,,,,,,,,
,Gareyh,001,2022-04-29_02h13.33.424,classification_task,2021.2.3,Win32,59.66231132,60eeef59b6f6d71e2529111f,626b377229c10585ec392f89,626b3ab97ea1b826abb652f6,,,,,,,,,,,,,,,,,,,,,,,a,1,0.7976,"[""0.190"",""0.484"",""0.864"",""0.975""]","[1,0,1,1]",0,22,22,22,1,0,1,,,0,FALSE,,,,,,,,,,,,,,,,,,,,,,,,,,,,,,
,Gareyh,001,2022-04-29_02h13.33.424,classification_task,2021.2.3,Win32,59.66231132,60eeef59b6f6d71e2529111f,626b377229c10585ec392f89,626b3ab97ea1b826abb652f6,,,,,,,,,,,,,,,,,,,,,,,a,0,0.2717,"[""0.086"",""0.265"",""0.564"",""0.786""]","[1,1,0,1]",0,23,23,23,1,1,0,,,0,FALSE,,,,,,,,,,,,,,,,,,,,,,,,,,,,,,
,Gareyh,001,2022-04-29_02h13.33.424,classification_task,2021.2.3,Win32,59.66231132,60eeef59b6f6d71e2529111f,626b377229c10585ec392f89,626b3ab97ea1b826abb652f6,,,,,,,,,,,,,,,,,,,,,,,a,0,0.2563,"[""0.150"",""0.752"",""0.445"",""0.717""]","[1,0,1,1]",0,24,24,24,1,1,1,,,0,FALSE,,,,,,,,,,,,,,,,,,,,,,,,,,,,,,
,Gareyh,001,2022-04-29_02h13.33.424,classification_task,2021.2.3,Win32,59.66231132,60eeef59b6f6d71e2529111f,626b377229c10585ec392f89,626b3ab97ea1b826abb652f6,,,,,,,,,,,,,,,,,,,,,,,a,1,0.2682,"[""0.190"",""0.338"",""0.029"",""0.975""]","[1,1,0,1]",0,25,25,25,1,0,1,,,0,FALSE,,,,,,,,,,,,,,,,,,,,,,,,,,,,,,
,Gareyh,001,2022-04-29_02h13.33.424,classification_task,2021.2.3,Win32,59.66231132,60eeef59b6f6d71e2529111f,626b377229c10585ec392f89,626b3ab97ea1b826abb652f6,,,,,,,,,,,,,,,,,,,,,,,l,1,0.3553,"[""0.086"",""0.265"",""0.598"",""0.484""]","[1,1,1,0]",0,26,26,26,1,1,0,,,0,FALSE,,,,,,,,,,,,,,,,,,,,,,,,,,,,,,
,Gareyh,001,2022-04-29_02h13.33.424,classification_task,2021.2.3,Win32,59.66231132,60eeef59b6f6d71e2529111f,626b377229c10585ec392f89,626b3ab97ea1b826abb652f6,,,,,,,,,,,,,,,,,,,,,,,l,0,0.2669,"[""0.301"",""0.529"",""0.564"",""0.926""]","[1,1,0,1]",0,27,27,27,1,0,0,,,0,FALSE,,,,,,,,,,,,,,,,,,,,,,,,,,,,,,
,Gareyh,001,2022-04-29_02h13.33.424,classification_task,2021.2.3,Win32,59.66231132,60eeef59b6f6d71e2529111f,626b377229c10585ec392f89,626b3ab97ea1b826abb652f6,,,,,,,,,,,,,,,,,,,,,,,a,1,0.2595,"[""0.490"",""0.529"",""0.671"",""0.926""]","[0,1,1,1]",0,28,28,28,1,0,0,,,0,FALSE,,,,,,,,,,,,,,,,,,,,,,,,,,,,,,
,Gareyh,001,2022-04-29_02h13.33.424,classification_task,2021.2.3,Win32,59.66231132,60eeef59b6f6d71e2529111f,626b377229c10585ec392f89,626b3ab97ea1b826abb652f6,,,,,,,,,,,,,,,,,,,,,,,a,1,0.2658,"[""0.301"",""0.529"",""0.671"",""0.484""]","[1,1,1,0]",0,29,29,29,1,0,0,,,0,FALSE,,,,,,,,,,,,,,,,,,,,,,,,,,,,,,
,Gareyh,001,2022-04-29_02h13.33.424,classification_task,2021.2.3,Win32,59.66231132,60eeef59b6f6d71e2529111f,626b377229c10585ec392f89,626b3ab97ea1b826abb652f6,,,,,,,,,,,,,,,,,,,,,,,a,0,9.415,"[""0.150"",""0.392"",""0.490"",""0.717""]","[1,1,0,1]",0,30,30,30,1,1,1,,,0,FALSE,,,,,,,,,,,,,,,,,,,,,,,,,,,,,,
,Gareyh,001,2022-04-29_02h13.33.424,classification_task,2021.2.3,Win32,59.66231132,60eeef59b6f6d71e2529111f,626b377229c10585ec392f89,626b3ab97ea1b826abb652f6,,,,,,,,,,,,,,,,,,,,,,,l,1,0.6109,"[""0.029"",""0.265"",""0.598"",""0.786""]","[0,1,1,1]",0,31,31,31,1,1,0,,,0,FALSE,,,,,,,,,,,,,,,,,,,,,,,,,,,,,,
,Gareyh,001,2022-04-29_02h13.33.424,classification_task,2021.2.3,Win32,59.66231132,60eeef59b6f6d71e2529111f,626b377229c10585ec392f89,626b3ab97ea1b826abb652f6,,,,,,,,,,,,,,,,,,,,,,,l,1,0.4936,"[""0.150"",""0.392"",""0.228"",""0.717""]","[1,1,0,1]",0,32,32,32,1,1,1,,,0,FALSE,,,,,,,,,,,,,,,,,,,,,,,,,,,,,,
,Gareyh,001,2022-04-29_02h13.33.424,classification_task,2021.2.3,Win32,59.66231132,60eeef59b6f6d71e2529111f,626b377229c10585ec392f89,626b3ab97ea1b826abb652f6,,,,,,,,,,,,,,,,,,,,,,,a,0,0.8292,"[""0.150"",""0.228"",""0.445"",""0.717""]","[1,0,1,1]",0,33,33,33,1,1,1,,,0,FALSE,,,,,,,,,,,,,,,,,,,,,,,,,,,,,,
,Gareyh,001,2022-04-29_02h13.33.424,classification_task,2021.2.3,Win32,59.66231132,60eeef59b6f6d71e2529111f,626b377229c10585ec392f89,626b3ab97ea1b826abb652f6,,,,,,,,,,,,,,,,,,,,,,,l,1,0.3094,"[""0.086"",""0.633"",""0.598"",""0.786""]","[1,0,1,1]",0,34,34,34,1,1,0,,,0,FALSE,,,,,,,,,,,,,,,,,,,,,,,,,,,,,,
,Gareyh,001,2022-04-29_02h13.33.424,classification_task,2021.2.3,Win32,59.66231132,60eeef59b6f6d71e2529111f,626b377229c10585ec392f89,626b3ab97ea1b826abb652f6,,,,,,,,,,,,,,,,,,,,,,,a,1,0.6077,"[""0.301"",""0.529"",""0.671"",""0.490""]","[1,1,1,0]",0,35,35,35,1,0,0,,,0,FALSE,,,,,,,,,,,,,,,,,,,,,,,,,,,,,,
,Gareyh,001,2022-04-29_02h13.33.424,classification_task,2021.2.3,Win32,59.66231132,60eeef59b6f6d71e2529111f,626b377229c10585ec392f89,626b3ab97ea1b826abb652f6,,,,,,,,,,,,,,,,,,,,,,,a,0,0.2867,"[""0.086"",""0.265"",""0.598"",""0.496""]","[1,1,1,0]",0,36,36,36,1,1,0,,,0,FALSE,,,,,,,,,,,,,,,,,,,,,,,,,,,,,,
,Gareyh,001,2022-04-29_02h13.33.424,classification_task,2021.2.3,Win32,59.66231132,60eeef59b6f6d71e2529111f,626b377229c10585ec392f89,626b3ab97ea1b826abb652f6,,,,,,,,,,,,,,,,,,,,,,,l,0,0.0293,"[""0.190"",""0.048"",""0.864"",""0.975""]","[1,0,1,1]",0,37,37,37,1,0,1,,,0,FALSE,,,,,,,,,,,,,,,,,,,,,,,,,,,,,,
,Gareyh,001,2022-04-29_02h13.33.424,classification_task,2021.2.3,Win32,59.66231132,60eeef59b6f6d71e2529111f,626b377229c10585ec392f89,626b3ab97ea1b826abb652f6,,,,,,,,,,,,,,,,,,,,,,,a,1,0.0288,"[""0.301"",""0.496"",""0.671"",""0.926""]","[1,0,1,1]",0,38,38,38,1,0,0,,,0,FALSE,,,,,,,,,,,,,,,,,,,,,,,,,,,,,,
,Gareyh,001,2022-04-29_02h13.33.424,classification_task,2021.2.3,Win32,59.66231132,60eeef59b6f6d71e2529111f,626b377229c10585ec392f89,626b3ab97ea1b826abb652f6,,,,,,,,,,,,,,,,,,,,,,,a,1,0.6498,"[""0.301"",""0.529"",""0.029"",""0.926""]","[1,1,0,1]",0,39,39,39,1,0,0,,,0,FALSE,,,,,,,,,,,,,,,,,,,,,,,,,,,,,,
,Gareyh,001,2022-04-29_02h13.33.424,classification_task,2021.2.3,Win32,59.66231132,60eeef59b6f6d71e2529111f,626b377229c10585ec392f89,626b3ab97ea1b826abb652f6,,,,,,,,,,,,,,,,,,,,,,,a,0,0.3647,"[""0.150"",""0.392"",""0.445"",""0.496""]","[1,1,1,0]",0,40,40,40,1,1,1,,,0,FALSE,,,,,,,,,,,,,,,,,,,,,,,,,,,,,,
,Gareyh,001,2022-04-29_02h13.33.424,classification_task,2021.2.3,Win32,59.66231132,60eeef59b6f6d71e2529111f,626b377229c10585ec392f89,626b3ab97ea1b826abb652f6,,,,,,,,,,,,,,,,,,,,,,,a,0,9.3116,"[""0.086"",""0.265"",""0.564"",""0.786""]","[1,1,0,1]",0,41,41,41,1,1,0,,,0,FALSE,,,,,,,,,,,,,,,,,,,,,,,,,,,,,,
,Gareyh,001,2022-04-29_02h13.33.424,classification_task,2021.2.3,Win32,59.66231132,60eeef59b6f6d71e2529111f,626b377229c10585ec392f89,626b3ab97ea1b826abb652f6,,,,,,,,,,,,,,,,,,,,,,,l,1,1.816,"[""0.048"",""0.265"",""0.598"",""0.786""]","[0,1,1,1]",0,42,42,42,1,1,0,,,0,FALSE,,,,,,,,,,,,,,,,,,,,,,,,,,,,,,
,Gareyh,001,2022-04-29_02h13.33.424,classification_task,2021.2.3,Win32,59.66231132,60eeef59b6f6d71e2529111f,626b377229c10585ec392f89,626b3ab97ea1b826abb652f6,,,,,,,,,,,,,,,,,,,,,,,a,1,1.4155,"[""0.190"",""0.338"",""0.864"",""0.830""]","[1,1,1,0]",0,43,43,43,1,0,1,,,0,FALSE,,,,,,,,,,,,,,,,,,,,,,,,,,,,,,
,Gareyh,001,2022-04-29_02h13.33.424,classification_task,2021.2.3,Win32,59.66231132,60eeef59b6f6d71e2529111f,626b377229c10585ec392f89,626b3ab97ea1b826abb652f6,,,,,,,,,,,,,,,,,,,,,,,a,1,1.7702,"[""0.190"",""0.338"",""0.633"",""0.975""]","[1,1,0,1]",0,44,44,44,1,0,1,,,0,FALSE,,,,,,,,,,,,,,,,,,,,,,,,,,,,,,
,Gareyh,001,2022-04-29_02h13.33.424,classification_task,2021.2.3,Win32,59.66231132,60eeef59b6f6d71e2529111f,626b377229c10585ec392f89,626b3ab97ea1b826abb652f6,,,,,,,,,,,,,,,,,,,,,,,l,0,0.8918,"[""0.490"",""0.529"",""0.671"",""0.926""]","[0,1,1,1]",0,45,45,45,1,0,0,,,0,FALSE,,,,,,,,,,,,,,,,,,,,,,,,,,,,,,
,Gareyh,001,2022-04-29_02h13.33.424,classification_task,2021.2.3,Win32,59.66231132,60eeef59b6f6d71e2529111f,626b377229c10585ec392f89,626b3ab97ea1b826abb652f6,,,,,,,,,,,,,,,,,,,,,,,l,1,1.5358,"[""0.484"",""0.392"",""0.445"",""0.717""]","[0,1,1,1]",0,46,46,46,1,1,1,,,0,FALSE,,,,,,,,,,,,,,,,,,,,,,,,,,,,,,
,Gareyh,001,2022-04-29_02h13.33.424,classification_task,2021.2.3,Win32,59.66231132,60eeef59b6f6d71e2529111f,626b377229c10585ec392f89,626b3ab97ea1b826abb652f6,,,,,,,,,,,,,,,,,,,,,,,a,1,1.1188,"[""0.564"",""0.338"",""0.864"",""0.975""]","[0,1,1,1]",0,47,47,47,1,0,1,,,0,FALSE,,,,,,,,,,,,,,,,,,,,,,,,,,,,,,
,Gareyh,001,2022-04-29_02h13.33.424,classification_task,2021.2.3,Win32,59.66231132,60eeef59b6f6d71e2529111f,626b377229c10585ec392f89,626b3ab97ea1b826abb652f6,,,,,,,,,,,,,,,,,,,,,,,l,1,1.1984,"[""0.150"",""0.392"",""0.445"",""0.831""]","[1,1,1,0]",0,48,48,48,1,1,1,,,0,FALSE,,,,,,,,,,,,,,,,,,,,,,,,,,,,,,
,Gareyh,001,2022-04-29_02h13.33.424,classification_task,2021.2.3,Win32,59.66231132,60eeef59b6f6d71e2529111f,626b377229c10585ec392f89,626b3ab97ea1b826abb652f6,,,,,,,,,,,,,,,,,,,,,,,a,0,1.0033,"[""0.150"",""0.030"",""0.445"",""0.717""]","[1,0,1,1]",0,49,49,49,1,1,1,,,0,FALSE,,,,,,,,,,,,,,,,,,,,,,,,,,,,,,
,Gareyh,001,2022-04-29_02h13.33.424,classification_task,2021.2.3,Win32,59.66231132,60eeef59b6f6d71e2529111f,626b377229c10585ec392f89,626b3ab97ea1b826abb652f6,,,,,,,,,,,,,,,,,,,,,,,l,1,1.3788,"[""0.150"",""0.392"",""0.228"",""0.717""]","[1,1,0,1]",0,50,50,50,1,1,1,,,0,FALSE,,,,,,,,,,,,,,,,,,,,,,,,,,,,,,
,Gareyh,001,2022-04-29_02h13.33.424,classification_task,2021.2.3,Win32,59.66231132,60eeef59b6f6d71e2529111f,626b377229c10585ec392f89,626b3ab97ea1b826abb652f6,,,,,,,,,,,,,,,,,,,,,,,a,1,1.8813,"[""0.831"",""0.529"",""0.671"",""0.926""]","[0,1,1,1]",0,51,51,51,1,0,0,,,0,FALSE,,,,,,,,,,,,,,,,,,,,,,,,,,,,,,
,Gareyh,001,2022-04-29_02h13.33.424,classification_task,2021.2.3,Win32,59.66231132,60eeef59b6f6d71e2529111f,626b377229c10585ec392f89,626b3ab97ea1b826abb652f6,,,,,,,,,,,,,,,,,,,,,,,l,1,1.2024,"[""0.033"",""0.392"",""0.445"",""0.717""]","[0,1,1,1]",0,52,52,52,1,1,1,,,0,FALSE,,,,,,,,,,,,,,,,,,,,,,,,,,,,,,
,Gareyh,001,2022-04-29_02h13.33.424,classification_task,2021.2.3,Win32,59.66231132,60eeef59b6f6d71e2529111f,626b377229c10585ec392f89,626b3ab97ea1b826abb652f6,,,,,,,,,,,,,,,,,,,,,,,a,0,0.8923,"[""0.030"",""0.265"",""0.598"",""0.786""]","[0,1,1,1]",0,53,53,53,1,1,0,,,0,FALSE,,,,,,,,,,,,,,,,,,,,,,,,,,,,,,
,Gareyh,001,2022-04-29_02h13.33.424,classification_task,2021.2.3,Win32,59.66231132,60eeef59b6f6d71e2529111f,626b377229c10585ec392f89,626b3ab97ea1b826abb652f6,,,,,,,,,,,,,,,,,,,,,,,l,1,0.8079,"[""0.086"",""0.265"",""0.496"",""0.786""]","[1,1,0,1]",0,54,54,54,1,1,0,,,0,FALSE,,,,,,,,,,,,,,,,,,,,,,,,,,,,,,
,Gareyh,001,2022-04-29_02h13.33.424,classification_task,2021.2.3,Win32,59.66231132,60eeef59b6f6d71e2529111f,626b377229c10585ec392f89,626b3ab97ea1b826abb652f6,,,,,,,,,,,,,,,,,,,,,,,a,0,0.7574,"[""0.086"",""0.030"",""0.598"",""0.786""]","[1,0,1,1]",0,55,55,55,1,1,0,,,0,FALSE,,,,,,,,,,,,,,,,,,,,,,,,,,,,,,
,Gareyh,001,2022-04-29_02h13.33.424,classification_task,2021.2.3,Win32,59.66231132,60eeef59b6f6d71e2529111f,626b377229c10585ec392f89,626b3ab97ea1b826abb652f6,,,,,,,,,,,,,,,,,,,,,,,l,0,0.4285,"[""0.301"",""0.752"",""0.671"",""0.926""]","[1,0,1,1]",0,56,56,56,1,0,0,,,0,FALSE,,,,,,,,,,,,,,,,,,,,,,,,,,,,,,
,Gareyh,001,2022-04-29_02h13.33.424,classification_task,2021.2.3,Win32,59.66231132,60eeef59b6f6d71e2529111f,626b377229c10585ec392f89,626b3ab97ea1b826abb652f6,,,,,,,,,,,,,,,,,,,,,,,a,1,0.5509,"[""0.632"",""0.338"",""0.864"",""0.975""]","[0,1,1,1]",0,57,57,57,1,0,1,,,0,FALSE,,,,,,,,,,,,,,,,,,,,,,,,,,,,,,
,Gareyh,001,2022-04-29_02h13.33.424,classification_task,2021.2.3,Win32,59.66231132,60eeef59b6f6d71e2529111f,626b377229c10585ec392f89,626b3ab97ea1b826abb652f6,,,,,,,,,,,,,,,,,,,,,,,a,1,0.4174,"[""0.190"",""0.338"",""0.564"",""0.975""]","[1,1,0,1]",0,58,58,58,1,0,1,,,0,FALSE,,,,,,,,,,,,,,,,,,,,,,,,,,,,,,
,Gareyh,001,2022-04-29_02h13.33.424,classification_task,2021.2.3,Win32,59.66231132,60eeef59b6f6d71e2529111f,626b377229c10585ec392f89,626b3ab97ea1b826abb652f6,,,,,,,,,,,,,,,,,,,,,,,l,0,0.8889,"[""0.190"",""0.338"",""0.864"",""0.564""]","[1,1,1,0]",0,59,59,59,1,0,1,,,0,FALSE,,,,,,,,,,,,,,,,,,,,,,,,,,,,,,
,Gareyh,001,2022-04-29_02h13.33.424,classification_task,2021.2.3,Win32,59.66231132,60eeef59b6f6d71e2529111f,626b377229c10585ec392f89,626b3ab97ea1b826abb652f6,,,,,,,,,,,,,,,,,,,,,,,a,1,0.4021,"[""0.301"",""0.529"",""0.029"",""0.926""]","[1,1,0,1]",0,60,60,60,1,0,0,,,0,FALSE,,,,,,,,,,,,,,,,,,,,,,,,,,,,,,
,Gareyh,001,2022-04-29_02h13.33.424,classification_task,2021.2.3,Win32,59.66231132,60eeef59b6f6d71e2529111f,626b377229c10585ec392f89,626b3ab97ea1b826abb652f6,,,,,,,,,,,,,,,,,,,,,,,l,1,0.302,"[""0.086"",""0.265"",""0.598"",""0.831""]","[1,1,1,0]",0,61,61,61,1,1,0,,,0,FALSE,,,,,,,,,,,,,,,,,,,,,,,,,,,,,,
,Gareyh,001,2022-04-29_02h13.33.424,classification_task,2021.2.3,Win32,59.66231132,60eeef59b6f6d71e2529111f,626b377229c10585ec392f89,626b3ab97ea1b826abb652f6,,,,,,,,,,,,,,,,,,,,,,,l,0,0.9975,"[""0.190"",""0.490"",""0.864"",""0.975""]","[1,0,1,1]",0,62,62,62,1,0,1,,,0,FALSE,,,,,,,,,,,,,,,,,,,,,,,,,,,,,,
,Gareyh,001,2022-04-29_02h13.33.424,classification_task,2021.2.3,Win32,59.66231132,60eeef59b6f6d71e2529111f,626b377229c10585ec392f89,626b3ab97ea1b826abb652f6,,,,,,,,,,,,,,,,,,,,,,,a,1,0.2468,"[""0.301"",""0.529"",""0.671"",""0.564""]","[1,1,1,0]",0,63,63,63,1,0,0,,,0,FALSE,,,,,,,,,,,,,,,,,,,,,,,,,,,,,,
,Gareyh,001,2022-04-29_02h13.33.424,classification_task,2021.2.3,Win32,59.66231132,60eeef59b6f6d71e2529111f,626b377229c10585ec392f89,626b3ab97ea1b826abb652f6,,,,,,,,,,,,,,,,,,,,,,,,,,,,,,,,,,,,,,,0, ,,0,2.683195064,469.7874,0,0,0,0,1,2,1,,,,,,,,,,,,,,,,,
,Gareyh,001,2022-04-29_02h13.33.424,classification_task,2021.2.3,Win32,59.66231132,60eeef59b6f6d71e2529111f,626b377229c10585ec392f89,626b3ab97ea1b826abb652f6,,,,,,,,,,,,,,,,,,,,,,,,,,,,,,,,,,,,,,,1,  ,,0,6.70864606,476.8349,0,0,0,0,1,2,1,,,,,,,,,,,,,,,,,
,Gareyh,001,2022-04-29_02h13.33.424,classification_task,2021.2.3,Win32,59.66231132,60eeef59b6f6d71e2529111f,626b377229c10585ec392f89,626b3ab97ea1b826abb652f6,,,,,,,,,,,,,,,,,,,,,,,,,,,,,,,,,,,,,,,2,  ,,0,4.073278556,484.6248,0,0,0,0,1,2,1,,,,,,,,,,,,,,,,,
,Gareyh,001,2022-04-29_02h13.33.424,classification_task,2021.2.3,Win32,59.66231132,60eeef59b6f6d71e2529111f,626b377229c10585ec392f89,626b3ab97ea1b826abb652f6,,,,,,,,,,,,,,,,,,,,,,,,,,,,,,,,,,,,,,,,,,,,,0,0,0,0,1,,1,,,,,,,,,,,,,,,,,
,Gareyh,001,2022-04-29_02h13.33.424,classification_task,2021.2.3,Win32,59.66231132,60eeef59b6f6d71e2529111f,626b377229c10585ec392f89,626b3ab97ea1b826abb652f6,,,,,,,,,,,,,,,,,,,,,space,35.587,a,0,3.7757,"[""0.086"",""0.265"",""0.598"",""0.030""]","[1,1,1,0]",0,0,0,0,1,1,0,,,0,FALSE,,,,,,,,,,,,,,,,,,,,,,,,,,,,,,
,Gareyh,001,2022-04-29_02h13.33.424,classification_task,2021.2.3,Win32,59.66231132,60eeef59b6f6d71e2529111f,626b377229c10585ec392f89,626b3ab97ea1b826abb652f6,,,,,,,,,,,,,,,,,,,,,,,a,1,1.3684,"[""0.190"",""0.338"",""0.864"",""0.481""]","[1,1,1,0]",0,1,1,1,1,0,1,,,0,FALSE,,,,,,,,,,,,,,,,,,,,,,,,,,,,,,
,Gareyh,001,2022-04-29_02h13.33.424,classification_task,2021.2.3,Win32,59.66231132,60eeef59b6f6d71e2529111f,626b377229c10585ec392f89,626b3ab97ea1b826abb652f6,,,,,,,,,,,,,,,,,,,,,,,a,1,1.4799,"[""0.190"",""0.481"",""0.864"",""0.975""]","[1,0,1,1]",0,2,2,2,1,0,1,,,0,FALSE,,,,,,,,,,,,,,,,,,,,,,,,,,,,,,
,Gareyh,001,2022-04-29_02h13.33.424,classification_task,2021.2.3,Win32,59.66231132,60eeef59b6f6d71e2529111f,626b377229c10585ec392f89,626b3ab97ea1b826abb652f6,,,,,,,,,,,,,,,,,,,,,,,l,1,1.7974,"[""0.086"",""0.564"",""0.598"",""0.786""]","[1,0,1,1]",0,3,3,3,1,1,0,,,0,FALSE,,,,,,,,,,,,,,,,,,,,,,,,,,,,,,
,Gareyh,001,2022-04-29_02h13.33.424,classification_task,2021.2.3,Win32,59.66231132,60eeef59b6f6d71e2529111f,626b377229c10585ec392f89,626b3ab97ea1b826abb652f6,,,,,,,,,,,,,,,,,,,,,,,a,0,3.5459,"[""0.086"",""0.265"",""0.831"",""0.786""]","[1,1,0,1]",0,4,4,4,1,1,0,,,0,FALSE,,,,,,,,,,,,,,,,,,,,,,,,,,,,,,
,Gareyh,001,2022-04-29_02h13.33.424,classification_task,2021.2.3,Win32,59.66231132,60eeef59b6f6d71e2529111f,626b377229c10585ec392f89,626b3ab97ea1b826abb652f6,,,,,,,,,,,,,,,,,,,,,,,a,0,0.3004,"[""0.752"",""0.392"",""0.445"",""0.717""]","[0,1,1,1]",0,5,5,5,1,1,1,,,0,FALSE,,,,,,,,,,,,,,,,,,,,,,,,,,,,,,
,Gareyh,001,2022-04-29_02h13.33.424,classification_task,2021.2.3,Win32,59.66231132,60eeef59b6f6d71e2529111f,626b377229c10585ec392f89,626b3ab97ea1b826abb652f6,,,,,,,,,,,,,,,,,,,,,,,l,0,0.2892,"[""0.190"",""0.338"",""0.030"",""0.975""]","[1,1,0,1]",0,6,6,6,1,0,1,,,0,FALSE,,,,,,,,,,,,,,,,,,,,,,,,,,,,,,
,Gareyh,001,2022-04-29_02h13.33.424,classification_task,2021.2.3,Win32,59.66231132,60eeef59b6f6d71e2529111f,626b377229c10585ec392f89,626b3ab97ea1b826abb652f6,,,,,,,,,,,,,,,,,,,,,,,l,1,0.2651,"[""0.150"",""0.392"",""0.445"",""0.490""]","[1,1,1,0]",0,7,7,7,1,1,1,,,0,FALSE,,,,,,,,,,,,,,,,,,,,,,,,,,,,,,
,Gareyh,001,2022-04-29_02h13.33.424,classification_task,2021.2.3,Win32,59.66231132,60eeef59b6f6d71e2529111f,626b377229c10585ec392f89,626b3ab97ea1b826abb652f6,,,,,,,,,,,,,,,,,,,,,,,a,1,0.9986,"[""0.301"",""0.529"",""0.632"",""0.926""]","[1,1,0,1]",0,8,8,8,1,0,0,,,0,FALSE,,,,,,,,,,,,,,,,,,,,,,,,,,,,,,
,Gareyh,001,2022-04-29_02h13.33.424,classification_task,2021.2.3,Win32,59.66231132,60eeef59b6f6d71e2529111f,626b377229c10585ec392f89,626b3ab97ea1b826abb652f6,,,,,,,,,,,,,,,,,,,,,,,a,1,0.8564,"[""0.632"",""0.338"",""0.864"",""0.975""]","[0,1,1,1]",0,9,9,9,1,0,1,,,0,FALSE,,,,,,,,,,,,,,,,,,,,,,,,,,,,,,
,Gareyh,001,2022-04-29_02h13.33.424,classification_task,2021.2.3,Win32,59.66231132,60eeef59b6f6d71e2529111f,626b377229c10585ec392f89,626b3ab97ea1b826abb652f6,,,,,,,,,,,,,,,,,,,,,,,a,0,1.4957,"[""0.484"",""0.265"",""0.598"",""0.786""]","[0,1,1,1]",0,10,10,10,1,1,0,,,0,FALSE,,,,,,,,,,,,,,,,,,,,,,,,,,,,,,
,Gareyh,001,2022-04-29_02h13.33.424,classification_task,2021.2.3,Win32,59.66231132,60eeef59b6f6d71e2529111f,626b377229c10585ec392f89,626b3ab97ea1b826abb652f6,,,,,,,,,,,,,,,,,,,,,,,a,1,0.8276,"[""0.048"",""0.529"",""0.671"",""0.926""]","[0,1,1,1]",0,11,11,11,1,0,0,,,0,FALSE,,,,,,,,,,,,,,,,,,,,,,,,,,,,,,
,Gareyh,001,2022-04-29_02h13.33.424,classification_task,2021.2.3,Win32,59.66231132,60eeef59b6f6d71e2529111f,626b377229c10585ec392f89,626b3ab97ea1b826abb652f6,,,,,,,,,,,,,,,,,,,,,,,l,0,0.3042,"[""0.301"",""0.490"",""0.671"",""0.926""]","[1,0,1,1]",0,12,12,12,1,0,0,,,0,FALSE,,,,,,,,,,,,,,,,,,,,,,,,,,,,,,
,Gareyh,001,2022-04-29_02h13.33.424,classification_task,2021.2.3,Win32,59.66231132,60eeef59b6f6d71e2529111f,626b377229c10585ec392f89,626b3ab97ea1b826abb652f6,,,,,,,,,,,,,,,,,,,,,,,l,1,0.4196,"[""0.150"",""0.484"",""0.445"",""0.717""]","[1,0,1,1]",0,13,13,13,1,1,1,,,0,FALSE,,,,,,,,,,,,,,,,,,,,,,,,,,,,,,
,Gareyh,001,2022-04-29_02h13.33.424,classification_task,2021.2.3,Win32,59.66231132,60eeef59b6f6d71e2529111f,626b377229c10585ec392f89,626b3ab97ea1b826abb652f6,,,,,,,,,,,,,,,,,,,,,,,a,1,0.3142,"[""0.301"",""0.529"",""0.671"",""0.033""]","[1,1,1,0]",0,14,14,14,1,0,0,,,0,FALSE,,,,,,,,,,,,,,,,,,,,,,,,,,,,,,
,Gareyh,001,2022-04-29_02h13.33.424,classification_task,2021.2.3,Win32,59.66231132,60eeef59b6f6d71e2529111f,626b377229c10585ec392f89,626b3ab97ea1b826abb652f6,,,,,,,,,,,,,,,,,,,,,,,a,0,1.1463,"[""0.150"",""0.392"",""0.830"",""0.717""]","[1,1,0,1]",0,15,15,15,1,1,1,,,0,FALSE,,,,,,,,,,,,,,,,,,,,,,,,,,,,,,
,Gareyh,001,2022-04-29_02h13.33.424,classification_task,2021.2.3,Win32,59.66231132,60eeef59b6f6d71e2529111f,626b377229c10585ec392f89,626b3ab97ea1b826abb652f6,,,,,,,,,,,,,,,,,,,,,,,l,1,0.64,"[""0.086"",""0.265"",""0.598"",""0.035""]","[1,1,1,0]",0,16,16,16,1,1,0,,,0,FALSE,,,,,,,,,,,,,,,,,,,,,,,,,,,,,,
,Gareyh,001,2022-04-29_02h13.33.424,classification_task,2021.2.3,Win32,59.66231132,60eeef59b6f6d71e2529111f,626b377229c10585ec392f89,626b3ab97ea1b826abb652f6,,,,,,,,,,,,,,,,,,,,,,,l,0,0.5431,"[""0.190"",""0.338"",""0.484"",""0.975""]","[1,1,0,1]",0,17,17,17,1,0,1,,,0,FALSE,,,,,,,,,,,,,,,,,,,,,,,,,,,,,,
,Gareyh,001,2022-04-29_02h13.33.424,classification_task,2021.2.3,Win32,59.66231132,60eeef59b6f6d71e2529111f,626b377229c10585ec392f89,626b3ab97ea1b826abb652f6,,,,,,,,,,,,,,,,,,,,,,,a,1,0.245,"[""0.048"",""0.529"",""0.671"",""0.926""]","[0,1,1,1]",0,18,18,18,1,0,0,,,0,FALSE,,,,,,,,,,,,,,,,,,,,,,,,,,,,,,
,Gareyh,001,2022-04-29_02h13.33.424,classification_task,2021.2.3,Win32,59.66231132,60eeef59b6f6d71e2529111f,626b377229c10585ec392f89,626b3ab97ea1b826abb652f6,,,,,,,,,,,,,,,,,,,,,,,a,1,0.2553,"[""0.301"",""0.529"",""0.030"",""0.926""]","[1,1,0,1]",0,19,19,19,1,0,0,,,0,FALSE,,,,,,,,,,,,,,,,,,,,,,,,,,,,,,
,Gareyh,001,2022-04-29_02h13.33.424,classification_task,2021.2.3,Win32,59.66231132,60eeef59b6f6d71e2529111f,626b377229c10585ec392f89,626b3ab97ea1b826abb652f6,,,,,,,,,,,,,,,,,,,,,,,l,1,0.1942,"[""0.150"",""0.490"",""0.445"",""0.717""]","[1,0,1,1]",0,20,20,20,1,1,1,,,0,FALSE,,,,,,,,,,,,,,,,,,,,,,,,,,,,,,
,Gareyh,001,2022-04-29_02h13.33.424,classification_task,2021.2.3,Win32,59.66231132,60eeef59b6f6d71e2529111f,626b377229c10585ec392f89,626b3ab97ea1b826abb652f6,,,,,,,,,,,,,,,,,,,,,,,l,0,5.487,"[""0.190"",""0.029"",""0.864"",""0.975""]","[1,0,1,1]",0,21,21,21,1,0,1,,,0,FALSE,,,,,,,,,,,,,,,,,,,,,,,,,,,,,,
,Gareyh,001,2022-04-29_02h13.33.424,classification_task,2021.2.3,Win32,59.66231132,60eeef59b6f6d71e2529111f,626b377229c10585ec392f89,626b3ab97ea1b826abb652f6,,,,,,,,,,,,,,,,,,,,,,,a,1,0.6256,"[""0.190"",""0.338"",""0.864"",""0.484""]","[1,1,1,0]",0,22,22,22,1,0,1,,,0,FALSE,,,,,,,,,,,,,,,,,,,,,,,,,,,,,,
,Gareyh,001,2022-04-29_02h13.33.424,classification_task,2021.2.3,Win32,59.66231132,60eeef59b6f6d71e2529111f,626b377229c10585ec392f89,626b3ab97ea1b826abb652f6,,,,,,,,,,,,,,,,,,,,,,,l,0,1.1534,"[""0.632"",""0.338"",""0.864"",""0.975""]","[0,1,1,1]",0,23,23,23,1,0,1,,,0,FALSE,,,,,,,,,,,,,,,,,,,,,,,,,,,,,,
,Gareyh,001,2022-04-29_02h13.33.424,classification_task,2021.2.3,Win32,59.66231132,60eeef59b6f6d71e2529111f,626b377229c10585ec392f89,626b3ab97ea1b826abb652f6,,,,,,,,,,,,,,,,,,,,,,,a,0,0.5887,"[""0.150"",""0.392"",""0.445"",""0.633""]","[1,1,1,0]",0,24,24,24,1,1,1,,,0,FALSE,,,,,,,,,,,,,,,,,,,,,,,,,,,,,,
,Gareyh,001,2022-04-29_02h13.33.424,classification_task,2021.2.3,Win32,59.66231132,60eeef59b6f6d71e2529111f,626b377229c10585ec392f89,626b3ab97ea1b826abb652f6,,,,,,,,,,,,,,,,,,,,,,,a,0,0.2688,"[""0.086"",""0.048"",""0.598"",""0.786""]","[1,0,1,1]",0,25,25,25,1,1,0,,,0,FALSE,,,,,,,,,,,,,,,,,,,,,,,,,,,,,,
,Gareyh,001,2022-04-29_02h13.33.424,classification_task,2021.2.3,Win32,59.66231132,60eeef59b6f6d71e2529111f,626b377229c10585ec392f89,626b3ab97ea1b826abb652f6,,,,,,,,,,,,,,,,,,,,,,,a,0,0.2259,"[""0.490"",""0.265"",""0.598"",""0.786""]","[0,1,1,1]",0,26,26,26,1,1,0,,,0,FALSE,,,,,,,,,,,,,,,,,,,,,,,,,,,,,,
,Gareyh,001,2022-04-29_02h13.33.424,classification_task,2021.2.3,Win32,59.66231132,60eeef59b6f6d71e2529111f,626b377229c10585ec392f89,626b3ab97ea1b826abb652f6,,,,,,,,,,,,,,,,,,,,,,,a,1,0.6636,"[""0.301"",""0.484"",""0.671"",""0.926""]","[1,0,1,1]",0,27,27,27,1,0,0,,,0,FALSE,,,,,,,,,,,,,,,,,,,,,,,,,,,,,,
,Gareyh,001,2022-04-29_02h13.33.424,classification_task,2021.2.3,Win32,59.66231132,60eeef59b6f6d71e2529111f,626b377229c10585ec392f89,626b3ab97ea1b826abb652f6,,,,,,,,,,,,,,,,,,,,,,,a,0,0.3155,"[""0.633"",""0.392"",""0.445"",""0.717""]","[0,1,1,1]",0,28,28,28,1,1,1,,,0,FALSE,,,,,,,,,,,,,,,,,,,,,,,,,,,,,,
,Gareyh,001,2022-04-29_02h13.33.424,classification_task,2021.2.3,Win32,59.66231132,60eeef59b6f6d71e2529111f,626b377229c10585ec392f89,626b3ab97ea1b826abb652f6,,,,,,,,,,,,,,,,,,,,,,,l,1,0.2538,"[""0.150"",""0.392"",""0.484"",""0.717""]","[1,1,0,1]",0,29,29,29,1,1,1,,,0,FALSE,,,,,,,,,,,,,,,,,,,,,,,,,,,,,,
,Gareyh,001,2022-04-29_02h13.33.424,classification_task,2021.2.3,Win32,59.66231132,60eeef59b6f6d71e2529111f,626b377229c10585ec392f89,626b3ab97ea1b826abb652f6,,,,,,,,,,,,,,,,,,,,,,,l,1,0.1121,"[""0.086"",""0.265"",""0.048"",""0.786""]","[1,1,0,1]",0,30,30,30,1,1,0,,,0,FALSE,,,,,,,,,,,,,,,,,,,,,,,,,,,,,,
,Gareyh,001,2022-04-29_02h13.33.424,classification_task,2021.2.3,Win32,59.66231132,60eeef59b6f6d71e2529111f,626b377229c10585ec392f89,626b3ab97ea1b826abb652f6,,,,,,,,,,,,,,,,,,,,,,,a,1,0.3098,"[""0.301"",""0.529"",""0.671"",""0.048""]","[1,1,1,0]",0,31,31,31,1,0,0,,,0,FALSE,,,,,,,,,,,,,,,,,,,,,,,,,,,,,,
,Gareyh,001,2022-04-29_02h13.33.424,classification_task,2021.2.3,Win32,59.66231132,60eeef59b6f6d71e2529111f,626b377229c10585ec392f89,626b3ab97ea1b826abb652f6,,,,,,,,,,,,,,,,,,,,,,,a,0,3.7763,"[""0.086"",""0.265"",""0.598"",""0.564""]","[1,1,1,0]",0,32,32,32,1,1,0,,,0,FALSE,,,,,,,,,,,,,,,,,,,,,,,,,,,,,,
,Gareyh,001,2022-04-29_02h13.33.424,classification_task,2021.2.3,Win32,59.66231132,60eeef59b6f6d71e2529111f,626b377229c10585ec392f89,626b3ab97ea1b826abb652f6,,,,,,,,,,,,,,,,,,,,,,,a,0,0.3334,"[""0.633"",""0.265"",""0.598"",""0.786""]","[0,1,1,1]",0,33,33,33,1,1,0,,,0,FALSE,,,,,,,,,,,,,,,,,,,,,,,,,,,,,,
,Gareyh,001,2022-04-29_02h13.33.424,classification_task,2021.2.3,Win32,59.66231132,60eeef59b6f6d71e2529111f,626b377229c10585ec392f89,626b3ab97ea1b826abb652f6,,,,,,,,,,,,,,,,,,,,,,,l,0,0.3147,"[""0.190"",""0.338"",""0.864"",""0.029""]","[1,1,1,0]",0,34,34,34,1,0,1,,,0,FALSE,,,,,,,,,,,,,,,,,,,,,,,,,,,,,,
,Gareyh,001,2022-04-29_02h13.33.424,classification_task,2021.2.3,Win32,59.66231132,60eeef59b6f6d71e2529111f,626b377229c10585ec392f89,626b3ab97ea1b826abb652f6,,,,,,,,,,,,,,,,,,,,,,,a,1,0.2595,"[""0.752"",""0.338"",""0.864"",""0.975""]","[0,1,1,1]",0,35,35,35,1,0,1,,,0,FALSE,,,,,,,,,,,,,,,,,,,,,,,,,,,,,,
,Gareyh,001,2022-04-29_02h13.33.424,classification_task,2021.2.3,Win32,59.66231132,60eeef59b6f6d71e2529111f,626b377229c10585ec392f89,626b3ab97ea1b826abb652f6,,,,,,,,,,,,,,,,,,,,,,,a,0,0.0889,"[""0.150"",""0.029"",""0.445"",""0.717""]","[1,0,1,1]",0,36,36,36,1,1,1,,,0,FALSE,,,,,,,,,,,,,,,,,,,,,,,,,,,,,,
,Gareyh,001,2022-04-29_02h13.33.424,classification_task,2021.2.3,Win32,59.66231132,60eeef59b6f6d71e2529111f,626b377229c10585ec392f89,626b3ab97ea1b826abb652f6,,,,,,,,,,,,,,,,,,,,,,,l,0,0.1119,"[""0.301"",""0.033"",""0.671"",""0.926""]","[1,0,1,1]",0,37,37,37,1,0,0,,,0,FALSE,,,,,,,,,,,,,,,,,,,,,,,,,,,,,,
,Gareyh,001,2022-04-29_02h13.33.424,classification_task,2021.2.3,Win32,59.66231132,60eeef59b6f6d71e2529111f,626b377229c10585ec392f89,626b3ab97ea1b826abb652f6,,,,,,,,,,,,,,,,,,,,,,,l,0,0.1437,"[""0.301"",""0.529"",""0.033"",""0.926""]","[1,1,0,1]",0,38,38,38,1,0,0,,,0,FALSE,,,,,,,,,,,,,,,,,,,,,,,,,,,,,,
,Gareyh,001,2022-04-29_02h13.33.424,classification_task,2021.2.3,Win32,59.66231132,60eeef59b6f6d71e2529111f,626b377229c10585ec392f89,626b3ab97ea1b826abb652f6,,,,,,,,,,,,,,,,,,,,,,,a,1,0.0588,"[""0.301"",""0.529"",""0.671"",""0.830""]","[1,1,1,0]",0,39,39,39,1,0,0,,,0,FALSE,,,,,,,,,,,,,,,,,,,,,,,,,,,,,,
,Gareyh,001,2022-04-29_02h13.33.424,classification_task,2021.2.3,Win32,59.66231132,60eeef59b6f6d71e2529111f,626b377229c10585ec392f89,626b3ab97ea1b826abb652f6,,,,,,,,,,,,,,,,,,,,,,,l,0,0.2756,"[""0.190"",""0.338"",""0.830"",""0.975""]","[1,1,0,1]",0,40,40,40,1,0,1,,,0,FALSE,,,,,,,,,,,,,,,,,,,,,,,,,,,,,,
,Gareyh,001,2022-04-29_02h13.33.424,classification_task,2021.2.3,Win32,59.66231132,60eeef59b6f6d71e2529111f,626b377229c10585ec392f89,626b3ab97ea1b826abb652f6,,,,,,,,,,,,,,,,,,,,,,,a,1,0.2287,"[""0.190"",""0.035"",""0.864"",""0.975""]","[1,0,1,1]",0,41,41,41,1,0,1,,,0,FALSE,,,,,,,,,,,,,,,,,,,,,,,,,,,,,,
,Gareyh,001,2022-04-29_02h13.33.424,classification_task,2021.2.3,Win32,59.66231132,60eeef59b6f6d71e2529111f,626b377229c10585ec392f89,626b3ab97ea1b826abb652f6,,,,,,,,,,,,,,,,,,,,,,,a,0,1.0917,"[""0.150"",""0.392"",""0.445"",""0.752""]","[1,1,1,0]",0,42,42,42,1,1,1,,,0,FALSE,,,,,,,,,,,,,,,,,,,,,,,,,,,,,,
,Gareyh,001,2022-04-29_02h13.33.424,classification_task,2021.2.3,Win32,59.66231132,60eeef59b6f6d71e2529111f,626b377229c10585ec392f89,626b3ab97ea1b826abb652f6,,,,,,,,,,,,,,,,,,,,,,,l,1,0.2793,"[""0.632"",""0.392"",""0.445"",""0.717""]","[0,1,1,1]",0,43,43,43,1,1,1,,,0,FALSE,,,,,,,,,,,,,,,,,,,,,,,,,,,,,,
,Gareyh,001,2022-04-29_02h13.33.424,classification_task,2021.2.3,Win32,59.66231132,60eeef59b6f6d71e2529111f,626b377229c10585ec392f89,626b3ab97ea1b826abb652f6,,,,,,,,,,,,,,,,,,,,,,,l,0,1.401,"[""0.484"",""0.529"",""0.671"",""0.926""]","[0,1,1,1]",0,44,44,44,1,0,0,,,0,FALSE,,,,,,,,,,,,,,,,,,,,,,,,,,,,,,
,Gareyh,001,2022-04-29_02h13.33.424,classification_task,2021.2.3,Win32,59.66231132,60eeef59b6f6d71e2529111f,626b377229c10585ec392f89,626b3ab97ea1b826abb652f6,,,,,,,,,,,,,,,,,,,,,,,a,0,0.194,"[""0.086"",""0.265"",""0.490"",""0.786""]","[1,1,0,1]",0,45,45,45,1,1,0,,,0,FALSE,,,,,,,,,,,,,,,,,,,,,,,,,,,,,,
,Gareyh,001,2022-04-29_02h13.33.424,classification_task,2021.2.3,Win32,59.66231132,60eeef59b6f6d71e2529111f,626b377229c10585ec392f89,626b3ab97ea1b826abb652f6,,,,,,,,,,,,,,,,,,,,,,,a,0,0.2394,"[""0.086"",""0.496"",""0.598"",""0.786""]","[1,0,1,1]",0,46,46,46,1,1,0,,,0,FALSE,,,,,,,,,,,,,,,,,,,,,,,,,,,,,,
,Gareyh,001,2022-04-29_02h13.33.424,classification_task,2021.2.3,Win32,59.66231132,60eeef59b6f6d71e2529111f,626b377229c10585ec392f89,626b3ab97ea1b826abb652f6,,,,,,,,,,,,,,,,,,,,,,,l,1,0.559,"[""0.150"",""0.392"",""0.564"",""0.717""]","[1,1,0,1]",0,47,47,47,1,1,1,,,0,FALSE,,,,,,,,,,,,,,,,,,,,,,,,,,,,,,
,Gareyh,001,2022-04-29_02h13.33.424,classification_task,2021.2.3,Win32,59.66231132,60eeef59b6f6d71e2529111f,626b377229c10585ec392f89,626b3ab97ea1b826abb652f6,,,,,,,,,,,,,,,,,,,,,,,l,1,0.7148,"[""0.150"",""0.392"",""0.445"",""0.752""]","[1,1,1,0]",0,48,48,48,1,1,1,,,0,FALSE,,,,,,,,,,,,,,,,,,,,,,,,,,,,,,
,Gareyh,001,2022-04-29_02h13.33.424,classification_task,2021.2.3,Win32,59.66231132,60eeef59b6f6d71e2529111f,626b377229c10585ec392f89,626b3ab97ea1b826abb652f6,,,,,,,,,,,,,,,,,,,,,,,l,1,1.2368,"[""0.150"",""0.392"",""0.496"",""0.717""]","[1,1,0,1]",0,49,49,49,1,1,1,,,0,FALSE,,,,,,,,,,,,,,,,,,,,,,,,,,,,,,
,Gareyh,001,2022-04-29_02h13.33.424,classification_task,2021.2.3,Win32,59.66231132,60eeef59b6f6d71e2529111f,626b377229c10585ec392f89,626b3ab97ea1b826abb652f6,,,,,,,,,,,,,,,,,,,,,,,l,0,4.6167,"[""0.301"",""0.529"",""0.048"",""0.926""]","[1,1,0,1]",0,50,50,50,1,0,0,,,0,FALSE,,,,,,,,,,,,,,,,,,,,,,,,,,,,,,
,Gareyh,001,2022-04-29_02h13.33.424,classification_task,2021.2.3,Win32,59.66231132,60eeef59b6f6d71e2529111f,626b377229c10585ec392f89,626b3ab97ea1b826abb652f6,,,,,,,,,,,,,,,,,,,,,,,a,0,0.8487,"[""0.086"",""0.633"",""0.598"",""0.786""]","[1,0,1,1]",0,51,51,51,1,1,0,,,0,FALSE,,,,,,,,,,,,,,,,,,,,,,,,,,,,,,
,Gareyh,001,2022-04-29_02h13.33.424,classification_task,2021.2.3,Win32,59.66231132,60eeef59b6f6d71e2529111f,626b377229c10585ec392f89,626b3ab97ea1b826abb652f6,,,,,,,,,,,,,,,,,,,,,,,a,0,0.4206,"[""0.086"",""0.265"",""0.831"",""0.786""]","[1,1,0,1]",0,52,52,52,1,1,0,,,0,FALSE,,,,,,,,,,,,,,,,,,,,,,,,,,,,,,
,Gareyh,001,2022-04-29_02h13.33.424,classification_task,2021.2.3,Win32,59.66231132,60eeef59b6f6d71e2529111f,626b377229c10585ec392f89,626b3ab97ea1b826abb652f6,,,,,,,,,,,,,,,,,,,,,,,a,1,0.3702,"[""0.228"",""0.529"",""0.671"",""0.926""]","[0,1,1,1]",0,53,53,53,1,0,0,,,0,FALSE,,,,,,,,,,,,,,,,,,,,,,,,,,,,,,
,Gareyh,001,2022-04-29_02h13.33.424,classification_task,2021.2.3,Win32,59.66231132,60eeef59b6f6d71e2529111f,626b377229c10585ec392f89,626b3ab97ea1b826abb652f6,,,,,,,,,,,,,,,,,,,,,,,l,0,0.3875,"[""0.830"",""0.338"",""0.864"",""0.975""]","[0,1,1,1]",0,54,54,54,1,0,1,,,0,FALSE,,,,,,,,,,,,,,,,,,,,,,,,,,,,,,
,Gareyh,001,2022-04-29_02h13.33.424,classification_task,2021.2.3,Win32,59.66231132,60eeef59b6f6d71e2529111f,626b377229c10585ec392f89,626b3ab97ea1b826abb652f6,,,,,,,,,,,,,,,,,,,,,,,a,0,0.3873,"[""0.086"",""0.265"",""0.598"",""0.564""]","[1,1,1,0]",0,55,55,55,1,1,0,,,0,FALSE,,,,,,,,,,,,,,,,,,,,,,,,,,,,,,
,Gareyh,001,2022-04-29_02h13.33.424,classification_task,2021.2.3,Win32,59.66231132,60eeef59b6f6d71e2529111f,626b377229c10585ec392f89,626b3ab97ea1b826abb652f6,,,,,,,,,,,,,,,,,,,,,,,l,0,1.0295,"[""0.190"",""0.030"",""0.864"",""0.975""]","[1,0,1,1]",0,56,56,56,1,0,1,,,0,FALSE,,,,,,,,,,,,,,,,,,,,,,,,,,,,,,
,Gareyh,001,2022-04-29_02h13.33.424,classification_task,2021.2.3,Win32,59.66231132,60eeef59b6f6d71e2529111f,626b377229c10585ec392f89,626b3ab97ea1b826abb652f6,,,,,,,,,,,,,,,,,,,,,,,l,0,0.4044,"[""0.190"",""0.338"",""0.864"",""0.029""]","[1,1,1,0]",0,57,57,57,1,0,1,,,0,FALSE,,,,,,,,,,,,,,,,,,,,,,,,,,,,,,
,Gareyh,001,2022-04-29_02h13.33.424,classification_task,2021.2.3,Win32,59.66231132,60eeef59b6f6d71e2529111f,626b377229c10585ec392f89,626b3ab97ea1b826abb652f6,,,,,,,,,,,,,,,,,,,,,,,l,0,0.0597,"[""0.301"",""0.529"",""0.671"",""0.484""]","[1,1,1,0]",0,58,58,58,1,0,0,,,0,FALSE,,,,,,,,,,,,,,,,,,,,,,,,,,,,,,
,Gareyh,001,2022-04-29_02h13.33.424,classification_task,2021.2.3,Win32,59.66231132,60eeef59b6f6d71e2529111f,626b377229c10585ec392f89,626b3ab97ea1b826abb652f6,,,,,,,,,,,,,,,,,,,,,,,l,0,0.511,"[""0.301"",""0.564"",""0.671"",""0.926""]","[1,0,1,1]",0,59,59,59,1,0,0,,,0,FALSE,,,,,,,,,,,,,,,,,,,,,,,,,,,,,,
,Gareyh,001,2022-04-29_02h13.33.424,classification_task,2021.2.3,Win32,59.66231132,60eeef59b6f6d71e2529111f,626b377229c10585ec392f89,626b3ab97ea1b826abb652f6,,,,,,,,,,,,,,,,,,,,,,,a,0,0.3781,"[""0.484"",""0.392"",""0.445"",""0.717""]","[0,1,1,1]",0,60,60,60,1,1,1,,,0,FALSE,,,,,,,,,,,,,,,,,,,,,,,,,,,,,,
,Gareyh,001,2022-04-29_02h13.33.424,classification_task,2021.2.3,Win32,59.66231132,60eeef59b6f6d71e2529111f,626b377229c10585ec392f89,626b3ab97ea1b826abb652f6,,,,,,,,,,,,,,,,,,,,,,,a,0,0.7097,"[""0.150"",""0.490"",""0.445"",""0.717""]","[1,0,1,1]",0,61,61,61,1,1,1,,,0,FALSE,,,,,,,,,,,,,,,,,,,,,,,,,,,,,,
,Gareyh,001,2022-04-29_02h13.33.424,classification_task,2021.2.3,Win32,59.66231132,60eeef59b6f6d71e2529111f,626b377229c10585ec392f89,626b3ab97ea1b826abb652f6,,,,,,,,,,,,,,,,,,,,,,,l,1,2.0593,"[""0.564"",""0.265"",""0.598"",""0.786""]","[0,1,1,1]",0,62,62,62,1,1,0,,,0,FALSE,,,,,,,,,,,,,,,,,,,,,,,,,,,,,,
,Gareyh,001,2022-04-29_02h13.33.424,classification_task,2021.2.3,Win32,59.66231132,60eeef59b6f6d71e2529111f,626b377229c10585ec392f89,626b3ab97ea1b826abb652f6,,,,,,,,,,,,,,,,,,,,,,,l,0,0.6843,"[""0.190"",""0.338"",""0.752"",""0.975""]","[1,1,0,1]",0,63,63,63,1,0,1,,,0,FALSE,,,,,,,,,,,,,,,,,,,,,,,,,,,,,,
,Gareyh,001,2022-04-29_02h13.33.424,classification_task,2021.2.3,Win32,59.66231132,60eeef59b6f6d71e2529111f,626b377229c10585ec392f89,626b3ab97ea1b826abb652f6,,,,,,,,,,,,,,,,,,,,,,,,,,,,,,,,,,,,,,,0, ,,0,4.275999949,164.0737,0,1,1,1,1,2,2,,,,,,,,,,,,,,,,,
,Gareyh,001,2022-04-29_02h13.33.424,classification_task,2021.2.3,Win32,59.66231132,60eeef59b6f6d71e2529111f,626b377229c10585ec392f89,626b3ab97ea1b826abb652f6,,,,,,,,,,,,,,,,,,,,,,,,,,,,,,,,,,,,,,,1,  ,,0,4.073278556,171.2849,0,1,1,1,1,2,2,,,,,,,,,,,,,,,,,
,Gareyh,001,2022-04-29_02h13.33.424,classification_task,2021.2.3,Win32,59.66231132,60eeef59b6f6d71e2529111f,626b377229c10585ec392f89,626b3ab97ea1b826abb652f6,,,,,,,,,,,,,,,,,,,,,,,,,,,,,,,,,,,,,,,2,  ,,0,8.764810341,169.5256,0,1,1,1,1,2,2,,,,,,,,,,,,,,,,,
,Gareyh,001,2022-04-29_02h13.33.424,classification_task,2021.2.3,Win32,59.66231132,60eeef59b6f6d71e2529111f,626b377229c10585ec392f89,626b3ab97ea1b826abb652f6,,,,,,,,,,,,,,,,,,,,,,,,,,,,,,,,,,,,,,,,,,,,,0,1,1,1,1,,2,,,,,,,,,,,,,,,,,
,Gareyh,001,2022-04-29_02h13.33.424,classification_task,2021.2.3,Win32,59.66231132,60eeef59b6f6d71e2529111f,626b377229c10585ec392f89,626b3ab97ea1b826abb652f6,,,,,,,,,,,,,,,,,,,,,space,175.2184,a,0,9.5619,"[""0.150"",""0.228"",""0.445"",""0.717""]","[1,0,1,1]",0,0,0,0,1,1,1,,,0,FALSE,,,,,,,,,,,,,,,,,,,,,,,,,,,,,,
,Gareyh,001,2022-04-29_02h13.33.424,classification_task,2021.2.3,Win32,59.66231132,60eeef59b6f6d71e2529111f,626b377229c10585ec392f89,626b3ab97ea1b826abb652f6,,,,,,,,,,,,,,,,,,,,,,,l,1,0.6801,"[""0.086"",""0.564"",""0.598"",""0.786""]","[1,0,1,1]",0,1,1,1,1,1,0,,,0,FALSE,,,,,,,,,,,,,,,,,,,,,,,,,,,,,,
,Gareyh,001,2022-04-29_02h13.33.424,classification_task,2021.2.3,Win32,59.66231132,60eeef59b6f6d71e2529111f,626b377229c10585ec392f89,626b3ab97ea1b826abb652f6,,,,,,,,,,,,,,,,,,,,,,,a,1,1.9624,"[""0.190"",""0.338"",""0.864"",""0.228""]","[1,1,1,0]",0,2,2,2,1,0,1,,,0,FALSE,,,,,,,,,,,,,,,,,,,,,,,,,,,,,,
,Gareyh,001,2022-04-29_02h13.33.424,classification_task,2021.2.3,Win32,59.66231132,60eeef59b6f6d71e2529111f,626b377229c10585ec392f89,626b3ab97ea1b826abb652f6,,,,,,,,,,,,,,,,,,,,,,,a,1,0.2697,"[""0.033"",""0.529"",""0.671"",""0.926""]","[0,1,1,1]",0,3,3,3,1,0,0,,,0,FALSE,,,,,,,,,,,,,,,,,,,,,,,,,,,,,,
,Gareyh,001,2022-04-29_02h13.33.424,classification_task,2021.2.3,Win32,59.66231132,60eeef59b6f6d71e2529111f,626b377229c10585ec392f89,626b3ab97ea1b826abb652f6,,,,,,,,,,,,,,,,,,,,,,,a,0,0.2611,"[""0.086"",""0.265"",""0.598"",""0.752""]","[1,1,1,0]",0,4,4,4,1,1,0,,,0,FALSE,,,,,,,,,,,,,,,,,,,,,,,,,,,,,,
,Gareyh,001,2022-04-29_02h13.33.424,classification_task,2021.2.3,Win32,59.66231132,60eeef59b6f6d71e2529111f,626b377229c10585ec392f89,626b3ab97ea1b826abb652f6,,,,,,,,,,,,,,,,,,,,,,,l,0,1.6869,"[""0.301"",""0.529"",""0.564"",""0.926""]","[1,1,0,1]",0,5,5,5,1,0,0,,,0,FALSE,,,,,,,,,,,,,,,,,,,,,,,,,,,,,,
,Gareyh,001,2022-04-29_02h13.33.424,classification_task,2021.2.3,Win32,59.66231132,60eeef59b6f6d71e2529111f,626b377229c10585ec392f89,626b3ab97ea1b826abb652f6,,,,,,,,,,,,,,,,,,,,,,,a,1,0.9092,"[""0.190"",""0.338"",""0.048"",""0.975""]","[1,1,0,1]",0,6,6,6,1,0,1,,,0,FALSE,,,,,,,,,,,,,,,,,,,,,,,,,,,,,,
,Gareyh,001,2022-04-29_02h13.33.424,classification_task,2021.2.3,Win32,59.66231132,60eeef59b6f6d71e2529111f,626b377229c10585ec392f89,626b3ab97ea1b826abb652f6,,,,,,,,,,,,,,,,,,,,,,,l,1,0.2981,"[""0.150"",""0.392"",""0.445"",""0.035""]","[1,1,1,0]",0,7,7,7,1,1,1,,,0,FALSE,,,,,,,,,,,,,,,,,,,,,,,,,,,,,,
,Gareyh,001,2022-04-29_02h13.33.424,classification_task,2021.2.3,Win32,59.66231132,60eeef59b6f6d71e2529111f,626b377229c10585ec392f89,626b3ab97ea1b826abb652f6,,,,,,,,,,,,,,,,,,,,,,,l,0,0.2701,"[""0.301"",""0.529"",""0.671"",""0.484""]","[1,1,1,0]",0,8,8,8,1,0,0,,,0,FALSE,,,,,,,,,,,,,,,,,,,,,,,,,,,,,,
,Gareyh,001,2022-04-29_02h13.33.424,classification_task,2021.2.3,Win32,59.66231132,60eeef59b6f6d71e2529111f,626b377229c10585ec392f89,626b3ab97ea1b826abb652f6,,,,,,,,,,,,,,,,,,,,,,,l,0,1.832,"[""0.190"",""0.831"",""0.864"",""0.975""]","[1,0,1,1]",0,9,9,9,1,0,1,,,0,FALSE,,,,,,,,,,,,,,,,,,,,,,,,,,,,,,
,Gareyh,001,2022-04-29_02h13.33.424,classification_task,2021.2.3,Win32,59.66231132,60eeef59b6f6d71e2529111f,626b377229c10585ec392f89,626b3ab97ea1b826abb652f6,,,,,,,,,,,,,,,,,,,,,,,a,1,0.6872,"[""0.301"",""0.496"",""0.671"",""0.926""]","[1,0,1,1]",0,10,10,10,1,0,0,,,0,FALSE,,,,,,,,,,,,,,,,,,,,,,,,,,,,,,
,Gareyh,001,2022-04-29_02h13.33.424,classification_task,2021.2.3,Win32,59.66231132,60eeef59b6f6d71e2529111f,626b377229c10585ec392f89,626b3ab97ea1b826abb652f6,,,,,,,,,,,,,,,,,,,,,,,l,1,2.0116,"[""0.086"",""0.265"",""0.033"",""0.786""]","[1,1,0,1]",0,11,11,11,1,1,0,,,0,FALSE,,,,,,,,,,,,,,,,,,,,,,,,,,,,,,
,Gareyh,001,2022-04-29_02h13.33.424,classification_task,2021.2.3,Win32,59.66231132,60eeef59b6f6d71e2529111f,626b377229c10585ec392f89,626b3ab97ea1b826abb652f6,,,,,,,,,,,,,,,,,,,,,,,l,1,0.766,"[""0.633"",""0.265"",""0.598"",""0.786""]","[0,1,1,1]",0,12,12,12,1,1,0,,,0,FALSE,,,,,,,,,,,,,,,,,,,,,,,,,,,,,,
,Gareyh,001,2022-04-29_02h13.33.424,classification_task,2021.2.3,Win32,59.66231132,60eeef59b6f6d71e2529111f,626b377229c10585ec392f89,626b3ab97ea1b826abb652f6,,,,,,,,,,,,,,,,,,,,,,,a,0,0.2232,"[""0.150"",""0.392"",""0.632"",""0.717""]","[1,1,0,1]",0,13,13,13,1,1,1,,,0,FALSE,,,,,,,,,,,,,,,,,,,,,,,,,,,,,,
,Gareyh,001,2022-04-29_02h13.33.424,classification_task,2021.2.3,Win32,59.66231132,60eeef59b6f6d71e2529111f,626b377229c10585ec392f89,626b3ab97ea1b826abb652f6,,,,,,,,,,,,,,,,,,,,,,,a,1,0.3253,"[""0.048"",""0.338"",""0.864"",""0.975""]","[0,1,1,1]",0,14,14,14,1,0,1,,,0,FALSE,,,,,,,,,,,,,,,,,,,,,,,,,,,,,,
,Gareyh,001,2022-04-29_02h13.33.424,classification_task,2021.2.3,Win32,59.66231132,60eeef59b6f6d71e2529111f,626b377229c10585ec392f89,626b3ab97ea1b826abb652f6,,,,,,,,,,,,,,,,,,,,,,,a,0,0.4186,"[""0.830"",""0.392"",""0.445"",""0.717""]","[0,1,1,1]",0,15,15,15,1,1,1,,,0,FALSE,,,,,,,,,,,,,,,,,,,,,,,,,,,,,,
,Gareyh,001,2022-04-29_02h13.33.424,classification_task,2021.2.3,Win32,59.66231132,60eeef59b6f6d71e2529111f,626b377229c10585ec392f89,626b3ab97ea1b826abb652f6,,,,,,,,,,,,,,,,,,,,,,,l,0,0.5166,"[""0.190"",""0.338"",""0.864"",""0.481""]","[1,1,1,0]",0,16,16,16,1,0,1,,,0,FALSE,,,,,,,,,,,,,,,,,,,,,,,,,,,,,,
,Gareyh,001,2022-04-29_02h13.33.424,classification_task,2021.2.3,Win32,59.66231132,60eeef59b6f6d71e2529111f,626b377229c10585ec392f89,626b3ab97ea1b826abb652f6,,,,,,,,,,,,,,,,,,,,,,,a,1,0.2654,"[""0.190"",""0.338"",""0.481"",""0.975""]","[1,1,0,1]",0,17,17,17,1,0,1,,,0,FALSE,,,,,,,,,,,,,,,,,,,,,,,,,,,,,,
,Gareyh,001,2022-04-29_02h13.33.424,classification_task,2021.2.3,Win32,59.66231132,60eeef59b6f6d71e2529111f,626b377229c10585ec392f89,626b3ab97ea1b826abb652f6,,,,,,,,,,,,,,,,,,,,,,,a,1,0.5542,"[""0.633"",""0.338"",""0.864"",""0.975""]","[0,1,1,1]",0,18,18,18,1,0,1,,,0,FALSE,,,,,,,,,,,,,,,,,,,,,,,,,,,,,,
,Gareyh,001,2022-04-29_02h13.33.424,classification_task,2021.2.3,Win32,59.66231132,60eeef59b6f6d71e2529111f,626b377229c10585ec392f89,626b3ab97ea1b826abb652f6,,,,,,,,,,,,,,,,,,,,,,,a,0,1.6993,"[""0.150"",""0.484"",""0.445"",""0.717""]","[1,0,1,1]",0,19,19,19,1,1,1,,,0,FALSE,,,,,,,,,,,,,,,,,,,,,,,,,,,,,,
,Gareyh,001,2022-04-29_02h13.33.424,classification_task,2021.2.3,Win32,59.66231132,60eeef59b6f6d71e2529111f,626b377229c10585ec392f89,626b3ab97ea1b826abb652f6,,,,,,,,,,,,,,,,,,,,,,,l,1,0.3816,"[""0.150"",""0.392"",""0.445"",""0.564""]","[1,1,1,0]",0,20,20,20,1,1,1,,,0,FALSE,,,,,,,,,,,,,,,,,,,,,,,,,,,,,,
,Gareyh,001,2022-04-29_02h13.33.424,classification_task,2021.2.3,Win32,59.66231132,60eeef59b6f6d71e2529111f,626b377229c10585ec392f89,626b3ab97ea1b826abb652f6,,,,,,,,,,,,,,,,,,,,,,,a,0,0.3357,"[""0.086"",""0.030"",""0.598"",""0.786""]","[1,0,1,1]",0,21,21,21,1,1,0,,,0,FALSE,,,,,,,,,,,,,,,,,,,,,,,,,,,,,,
,Gareyh,001,2022-04-29_02h13.33.424,classification_task,2021.2.3,Win32,59.66231132,60eeef59b6f6d71e2529111f,626b377229c10585ec392f89,626b3ab97ea1b826abb652f6,,,,,,,,,,,,,,,,,,,,,,,l,0,0.4399,"[""0.301"",""0.529"",""0.671"",""0.228""]","[1,1,1,0]",0,22,22,22,1,0,0,,,0,FALSE,,,,,,,,,,,,,,,,,,,,,,,,,,,,,,
,Gareyh,001,2022-04-29_02h13.33.424,classification_task,2021.2.3,Win32,59.66231132,60eeef59b6f6d71e2529111f,626b377229c10585ec392f89,626b3ab97ea1b826abb652f6,,,,,,,,,,,,,,,,,,,,,,,l,0,0.489,"[""0.830"",""0.529"",""0.671"",""0.926""]","[0,1,1,1]",0,23,23,23,1,0,0,,,0,FALSE,,,,,,,,,,,,,,,,,,,,,,,,,,,,,,
,Gareyh,001,2022-04-29_02h13.33.424,classification_task,2021.2.3,Win32,59.66231132,60eeef59b6f6d71e2529111f,626b377229c10585ec392f89,626b3ab97ea1b826abb652f6,,,,,,,,,,,,,,,,,,,,,,,a,1,0.3876,"[""0.301"",""0.529"",""0.633"",""0.926""]","[1,1,0,1]",0,24,24,24,1,0,0,,,0,FALSE,,,,,,,,,,,,,,,,,,,,,,,,,,,,,,
,Gareyh,001,2022-04-29_02h13.33.424,classification_task,2021.2.3,Win32,59.66231132,60eeef59b6f6d71e2529111f,626b377229c10585ec392f89,626b3ab97ea1b826abb652f6,,,,,,,,,,,,,,,,,,,,,,,l,1,0.8938,"[""0.086"",""0.265"",""0.496"",""0.786""]","[1,1,0,1]",0,25,25,25,1,1,0,,,0,FALSE,,,,,,,,,,,,,,,,,,,,,,,,,,,,,,
,Gareyh,001,2022-04-29_02h13.33.424,classification_task,2021.2.3,Win32,59.66231132,60eeef59b6f6d71e2529111f,626b377229c10585ec392f89,626b3ab97ea1b826abb652f6,,,,,,,,,,,,,,,,,,,,,,,a,0,0.3876,"[""0.086"",""0.265"",""0.598"",""0.831""]","[1,1,1,0]",0,26,26,26,1,1,0,,,0,FALSE,,,,,,,,,,,,,,,,,,,,,,,,,,,,,,
,Gareyh,001,2022-04-29_02h13.33.424,classification_task,2021.2.3,Win32,59.66231132,60eeef59b6f6d71e2529111f,626b377229c10585ec392f89,626b3ab97ea1b826abb652f6,,,,,,,,,,,,,,,,,,,,,,,a,0,0.2679,"[""0.029"",""0.265"",""0.598"",""0.786""]","[0,1,1,1]",0,27,27,27,1,1,0,,,0,FALSE,,,,,,,,,,,,,,,,,,,,,,,,,,,,,,
,Gareyh,001,2022-04-29_02h13.33.424,classification_task,2021.2.3,Win32,59.66231132,60eeef59b6f6d71e2529111f,626b377229c10585ec392f89,626b3ab97ea1b826abb652f6,,,,,,,,,,,,,,,,,,,,,,,a,0,0.2735,"[""0.150"",""0.392"",""0.481"",""0.717""]","[1,1,0,1]",0,28,28,28,1,1,1,,,0,FALSE,,,,,,,,,,,,,,,,,,,,,,,,,,,,,,
,Gareyh,001,2022-04-29_02h13.33.424,classification_task,2021.2.3,Win32,59.66231132,60eeef59b6f6d71e2529111f,626b377229c10585ec392f89,626b3ab97ea1b826abb652f6,,,,,,,,,,,,,,,,,,,,,,,l,0,0.2675,"[""0.190"",""0.228"",""0.864"",""0.975""]","[1,0,1,1]",0,29,29,29,1,0,1,,,0,FALSE,,,,,,,,,,,,,,,,,,,,,,,,,,,,,,
,Gareyh,001,2022-04-29_02h13.33.424,classification_task,2021.2.3,Win32,59.66231132,60eeef59b6f6d71e2529111f,626b377229c10585ec392f89,626b3ab97ea1b826abb652f6,,,,,,,,,,,,,,,,,,,,,,,l,0,0.2459,"[""0.301"",""0.030"",""0.671"",""0.926""]","[1,0,1,1]",0,30,30,30,1,0,0,,,0,FALSE,,,,,,,,,,,,,,,,,,,,,,,,,,,,,,
,Gareyh,001,2022-04-29_02h13.33.424,classification_task,2021.2.3,Win32,59.66231132,60eeef59b6f6d71e2529111f,626b377229c10585ec392f89,626b3ab97ea1b826abb652f6,,,,,,,,,,,,,,,,,,,,,,,a,0,0.7254,"[""0.564"",""0.392"",""0.445"",""0.717""]","[0,1,1,1]",0,31,31,31,1,1,1,,,0,FALSE,,,,,,,,,,,,,,,,,,,,,,,,,,,,,,
,Gareyh,001,2022-04-29_02h13.33.424,classification_task,2021.2.3,Win32,59.66231132,60eeef59b6f6d71e2529111f,626b377229c10585ec392f89,626b3ab97ea1b826abb652f6,,,,,,,,,,,,,,,,,,,,,,,a,1,1.8392,"[""0.228"",""0.338"",""0.864"",""0.975""]","[0,1,1,1]",0,32,32,32,1,0,1,,,0,FALSE,,,,,,,,,,,,,,,,,,,,,,,,,,,,,,
,Gareyh,001,2022-04-29_02h13.33.424,classification_task,2021.2.3,Win32,59.66231132,60eeef59b6f6d71e2529111f,626b377229c10585ec392f89,626b3ab97ea1b826abb652f6,,,,,,,,,,,,,,,,,,,,,,,l,1,0.4128,"[""0.150"",""0.392"",""0.633"",""0.717""]","[1,1,0,1]",0,33,33,33,1,1,1,,,0,FALSE,,,,,,,,,,,,,,,,,,,,,,,,,,,,,,
,Gareyh,001,2022-04-29_02h13.33.424,classification_task,2021.2.3,Win32,59.66231132,60eeef59b6f6d71e2529111f,626b377229c10585ec392f89,626b3ab97ea1b826abb652f6,,,,,,,,,,,,,,,,,,,,,,,a,1,0.5725,"[""0.190"",""0.338"",""0.035"",""0.975""]","[1,1,0,1]",0,34,34,34,1,0,1,,,0,FALSE,,,,,,,,,,,,,,,,,,,,,,,,,,,,,,
,Gareyh,001,2022-04-29_02h13.33.424,classification_task,2021.2.3,Win32,59.66231132,60eeef59b6f6d71e2529111f,626b377229c10585ec392f89,626b3ab97ea1b826abb652f6,,,,,,,,,,,,,,,,,,,,,,,a,0,0.2672,"[""0.150"",""0.392"",""0.445"",""0.033""]","[1,1,1,0]",0,35,35,35,1,1,1,,,0,FALSE,,,,,,,,,,,,,,,,,,,,,,,,,,,,,,
,Gareyh,001,2022-04-29_02h13.33.424,classification_task,2021.2.3,Win32,59.66231132,60eeef59b6f6d71e2529111f,626b377229c10585ec392f89,626b3ab97ea1b826abb652f6,,,,,,,,,,,,,,,,,,,,,,,a,0,0.6853,"[""0.086"",""0.265"",""0.029"",""0.786""]","[1,1,0,1]",0,36,36,36,1,1,0,,,0,FALSE,,,,,,,,,,,,,,,,,,,,,,,,,,,,,,
,Gareyh,001,2022-04-29_02h13.33.424,classification_task,2021.2.3,Win32,59.66231132,60eeef59b6f6d71e2529111f,626b377229c10585ec392f89,626b3ab97ea1b826abb652f6,,,,,,,,,,,,,,,,,,,,,,,l,1,0.1623,"[""0.030"",""0.265"",""0.598"",""0.786""]","[0,1,1,1]",0,37,37,37,1,1,0,,,0,FALSE,,,,,,,,,,,,,,,,,,,,,,,,,,,,,,
,Gareyh,001,2022-04-29_02h13.33.424,classification_task,2021.2.3,Win32,59.66231132,60eeef59b6f6d71e2529111f,626b377229c10585ec392f89,626b3ab97ea1b826abb652f6,,,,,,,,,,,,,,,,,,,,,,,l,0,0.3776,"[""0.301"",""0.633"",""0.671"",""0.926""]","[1,0,1,1]",0,38,38,38,1,0,0,,,0,FALSE,,,,,,,,,,,,,,,,,,,,,,,,,,,,,,
,Gareyh,001,2022-04-29_02h13.33.424,classification_task,2021.2.3,Win32,59.66231132,60eeef59b6f6d71e2529111f,626b377229c10585ec392f89,626b3ab97ea1b826abb652f6,,,,,,,,,,,,,,,,,,,,,,,l,1,0.6746,"[""0.831"",""0.392"",""0.445"",""0.717""]","[0,1,1,1]",0,39,39,39,1,1,1,,,0,FALSE,,,,,,,,,,,,,,,,,,,,,,,,,,,,,,
,Gareyh,001,2022-04-29_02h13.33.424,classification_task,2021.2.3,Win32,59.66231132,60eeef59b6f6d71e2529111f,626b377229c10585ec392f89,626b3ab97ea1b826abb652f6,,,,,,,,,,,,,,,,,,,,,,,a,1,0.2381,"[""0.481"",""0.529"",""0.671"",""0.926""]","[0,1,1,1]",0,40,40,40,1,0,0,,,0,FALSE,,,,,,,,,,,,,,,,,,,,,,,,,,,,,,
,Gareyh,001,2022-04-29_02h13.33.424,classification_task,2021.2.3,Win32,59.66231132,60eeef59b6f6d71e2529111f,626b377229c10585ec392f89,626b3ab97ea1b826abb652f6,,,,,,,,,,,,,,,,,,,,,,,l,0,0.2926,"[""0.301"",""0.529"",""0.671"",""0.831""]","[1,1,1,0]",0,41,41,41,1,0,0,,,0,FALSE,,,,,,,,,,,,,,,,,,,,,,,,,,,,,,
,Gareyh,001,2022-04-29_02h13.33.424,classification_task,2021.2.3,Win32,59.66231132,60eeef59b6f6d71e2529111f,626b377229c10585ec392f89,626b3ab97ea1b826abb652f6,,,,,,,,,,,,,,,,,,,,,,,a,0,0.2494,"[""0.086"",""0.265"",""0.598"",""0.048""]","[1,1,1,0]",0,42,42,42,1,1,0,,,0,FALSE,,,,,,,,,,,,,,,,,,,,,,,,,,,,,,
,Gareyh,001,2022-04-29_02h13.33.424,classification_task,2021.2.3,Win32,59.66231132,60eeef59b6f6d71e2529111f,626b377229c10585ec392f89,626b3ab97ea1b826abb652f6,,,,,,,,,,,,,,,,,,,,,,,a,1,0.2687,"[""0.301"",""0.529"",""0.029"",""0.926""]","[1,1,0,1]",0,43,43,43,1,0,0,,,0,FALSE,,,,,,,,,,,,,,,,,,,,,,,,,,,,,,
,Gareyh,001,2022-04-29_02h13.33.424,classification_task,2021.2.3,Win32,59.66231132,60eeef59b6f6d71e2529111f,626b377229c10585ec392f89,626b3ab97ea1b826abb652f6,,,,,,,,,,,,,,,,,,,,,,,l,1,0.0699,"[""0.150"",""0.029"",""0.445"",""0.717""]","[1,0,1,1]",0,44,44,44,1,1,1,,,0,FALSE,,,,,,,,,,,,,,,,,,,,,,,,,,,,,,
,Gareyh,001,2022-04-29_02h13.33.424,classification_task,2021.2.3,Win32,59.66231132,60eeef59b6f6d71e2529111f,626b377229c10585ec392f89,626b3ab97ea1b826abb652f6,,,,,,,,,,,,,,,,,,,,,,,l,1,0.2836,"[""0.086"",""0.490"",""0.598"",""0.786""]","[1,0,1,1]",0,45,45,45,1,1,0,,,0,FALSE,,,,,,,,,,,,,,,,,,,,,,,,,,,,,,
,Gareyh,001,2022-04-29_02h13.33.424,classification_task,2021.2.3,Win32,59.66231132,60eeef59b6f6d71e2529111f,626b377229c10585ec392f89,626b3ab97ea1b826abb652f6,,,,,,,,,,,,,,,,,,,,,,,l,0,1.0097,"[""0.190"",""0.831"",""0.864"",""0.975""]","[1,0,1,1]",0,46,46,46,1,0,1,,,0,FALSE,,,,,,,,,,,,,,,,,,,,,,,,,,,,,,
,Gareyh,001,2022-04-29_02h13.33.424,classification_task,2021.2.3,Win32,59.66231132,60eeef59b6f6d71e2529111f,626b377229c10585ec392f89,626b3ab97ea1b826abb652f6,,,,,,,,,,,,,,,,,,,,,,,a,1,0.34,"[""0.190"",""0.338"",""0.864"",""0.048""]","[1,1,1,0]",0,47,47,47,1,0,1,,,0,FALSE,,,,,,,,,,,,,,,,,,,,,,,,,,,,,,
,Gareyh,001,2022-04-29_02h13.33.424,classification_task,2021.2.3,Win32,59.66231132,60eeef59b6f6d71e2529111f,626b377229c10585ec392f89,626b3ab97ea1b826abb652f6,,,,,,,,,,,,,,,,,,,,,,,a,1,0.4218,"[""0.301"",""0.490"",""0.671"",""0.926""]","[1,0,1,1]",0,48,48,48,1,0,0,,,0,FALSE,,,,,,,,,,,,,,,,,,,,,,,,,,,,,,
,Gareyh,001,2022-04-29_02h13.33.424,classification_task,2021.2.3,Win32,59.66231132,60eeef59b6f6d71e2529111f,626b377229c10585ec392f89,626b3ab97ea1b826abb652f6,,,,,,,,,,,,,,,,,,,,,,,l,1,0.2399,"[""0.086"",""0.265"",""0.598"",""0.029""]","[1,1,1,0]",0,49,49,49,1,1,0,,,0,FALSE,,,,,,,,,,,,,,,,,,,,,,,,,,,,,,
,Gareyh,001,2022-04-29_02h13.33.424,classification_task,2021.2.3,Win32,59.66231132,60eeef59b6f6d71e2529111f,626b377229c10585ec392f89,626b3ab97ea1b826abb652f6,,,,,,,,,,,,,,,,,,,,,,,a,1,0.3265,"[""0.190"",""0.338"",""0.864"",""0.484""]","[1,1,1,0]",0,50,50,50,1,0,1,,,0,FALSE,,,,,,,,,,,,,,,,,,,,,,,,,,,,,,
,Gareyh,001,2022-04-29_02h13.33.424,classification_task,2021.2.3,Win32,59.66231132,60eeef59b6f6d71e2529111f,626b377229c10585ec392f89,626b3ab97ea1b826abb652f6,,,,,,,,,,,,,,,,,,,,,,,l,1,0.7662,"[""0.150"",""0.481"",""0.445"",""0.717""]","[1,0,1,1]",0,51,51,51,1,1,1,,,0,FALSE,,,,,,,,,,,,,,,,,,,,,,,,,,,,,,
,Gareyh,001,2022-04-29_02h13.33.424,classification_task,2021.2.3,Win32,59.66231132,60eeef59b6f6d71e2529111f,626b377229c10585ec392f89,626b3ab97ea1b826abb652f6,,,,,,,,,,,,,,,,,,,,,,,l,1,1.0412,"[""0.150"",""0.392"",""0.445"",""0.752""]","[1,1,1,0]",0,52,52,52,1,1,1,,,0,FALSE,,,,,,,,,,,,,,,,,,,,,,,,,,,,,,
,Gareyh,001,2022-04-29_02h13.33.424,classification_task,2021.2.3,Win32,59.66231132,60eeef59b6f6d71e2529111f,626b377229c10585ec392f89,626b3ab97ea1b826abb652f6,,,,,,,,,,,,,,,,,,,,,,,a,0,0.4058,"[""0.150"",""0.392"",""0.030"",""0.717""]","[1,1,0,1]",0,53,53,53,1,1,1,,,0,FALSE,,,,,,,,,,,,,,,,,,,,,,,,,,,,,,
,Gareyh,001,2022-04-29_02h13.33.424,classification_task,2021.2.3,Win32,59.66231132,60eeef59b6f6d71e2529111f,626b377229c10585ec392f89,626b3ab97ea1b826abb652f6,,,,,,,,,,,,,,,,,,,,,,,a,0,0.5843,"[""0.484"",""0.265"",""0.598"",""0.786""]","[0,1,1,1]",0,54,54,54,1,1,0,,,0,FALSE,,,,,,,,,,,,,,,,,,,,,,,,,,,,,,
,Gareyh,001,2022-04-29_02h13.33.424,classification_task,2021.2.3,Win32,59.66231132,60eeef59b6f6d71e2529111f,626b377229c10585ec392f89,626b3ab97ea1b826abb652f6,,,,,,,,,,,,,,,,,,,,,,,a,1,0.2984,"[""0.481"",""0.529"",""0.671"",""0.926""]","[0,1,1,1]",0,55,55,55,1,0,0,,,0,FALSE,,,,,,,,,,,,,,,,,,,,,,,,,,,,,,
,Gareyh,001,2022-04-29_02h13.33.424,classification_task,2021.2.3,Win32,59.66231132,60eeef59b6f6d71e2529111f,626b377229c10585ec392f89,626b3ab97ea1b826abb652f6,,,,,,,,,,,,,,,,,,,,,,,l,0,0.4208,"[""0.301"",""0.529"",""0.564"",""0.926""]","[1,1,0,1]",0,56,56,56,1,0,0,,,0,FALSE,,,,,,,,,,,,,,,,,,,,,,,,,,,,,,
,Gareyh,001,2022-04-29_02h13.33.424,classification_task,2021.2.3,Win32,59.66231132,60eeef59b6f6d71e2529111f,626b377229c10585ec392f89,626b3ab97ea1b826abb652f6,,,,,,,,,,,,,,,,,,,,,,,a,0,0.4173,"[""0.086"",""0.633"",""0.598"",""0.786""]","[1,0,1,1]",0,57,57,57,1,1,0,,,0,FALSE,,,,,,,,,,,,,,,,,,,,,,,,,,,,,,
,Gareyh,001,2022-04-29_02h13.33.424,classification_task,2021.2.3,Win32,59.66231132,60eeef59b6f6d71e2529111f,626b377229c10585ec392f89,626b3ab97ea1b826abb652f6,,,,,,,,,,,,,,,,,,,,,,,a,1,0.2692,"[""0.190"",""0.338"",""0.481"",""0.975""]","[1,1,0,1]",0,58,58,58,1,0,1,,,0,FALSE,,,,,,,,,,,,,,,,,,,,,,,,,,,,,,
,Gareyh,001,2022-04-29_02h13.33.424,classification_task,2021.2.3,Win32,59.66231132,60eeef59b6f6d71e2529111f,626b377229c10585ec392f89,626b3ab97ea1b826abb652f6,,,,,,,,,,,,,,,,,,,,,,,l,0,0.3944,"[""0.301"",""0.529"",""0.671"",""0.490""]","[1,1,1,0]",0,59,59,59,1,0,0,,,0,FALSE,,,,,,,,,,,,,,,,,,,,,,,,,,,,,,
,Gareyh,001,2022-04-29_02h13.33.424,classification_task,2021.2.3,Win32,59.66231132,60eeef59b6f6d71e2529111f,626b377229c10585ec392f89,626b3ab97ea1b826abb652f6,,,,,,,,,,,,,,,,,,,,,,,a,0,0.753,"[""0.490"",""0.392"",""0.445"",""0.717""]","[0,1,1,1]",0,60,60,60,1,1,1,,,0,FALSE,,,,,,,,,,,,,,,,,,,,,,,,,,,,,,
,Gareyh,001,2022-04-29_02h13.33.424,classification_task,2021.2.3,Win32,59.66231132,60eeef59b6f6d71e2529111f,626b377229c10585ec392f89,626b3ab97ea1b826abb652f6,,,,,,,,,,,,,,,,,,,,,,,l,1,0.2569,"[""0.086"",""0.265"",""0.633"",""0.786""]","[1,1,0,1]",0,61,61,61,1,1,0,,,0,FALSE,,,,,,,,,,,,,,,,,,,,,,,,,,,,,,
,Gareyh,001,2022-04-29_02h13.33.424,classification_task,2021.2.3,Win32,59.66231132,60eeef59b6f6d71e2529111f,626b377229c10585ec392f89,626b3ab97ea1b826abb652f6,,,,,,,,,,,,,,,,,,,,,,,a,1,0.1659,"[""0.190"",""0.564"",""0.864"",""0.975""]","[1,0,1,1]",0,62,62,62,1,0,1,,,0,FALSE,,,,,,,,,,,,,,,,,,,,,,,,,,,,,,
,Gareyh,001,2022-04-29_02h13.33.424,classification_task,2021.2.3,Win32,59.66231132,60eeef59b6f6d71e2529111f,626b377229c10585ec392f89,626b3ab97ea1b826abb652f6,,,,,,,,,,,,,,,,,,,,,,,a,1,0.1377,"[""0.490"",""0.338"",""0.864"",""0.975""]","[0,1,1,1]",0,63,63,63,1,0,1,,,0,FALSE,,,,,,,,,,,,,,,,,,,,,,,,,,,,,,
,Gareyh,001,2022-04-29_02h13.33.424,classification_task,2021.2.3,Win32,59.66231132,60eeef59b6f6d71e2529111f,626b377229c10585ec392f89,626b3ab97ea1b826abb652f6,,,,,,,,,,,,,,,,,,,,,,,,,,,,,,,,,,,,,,,0, ,,0,3.030715937,296.3381,0,2,2,2,1,2,3,,,,,,,,,,,,,,,,,
,Gareyh,001,2022-04-29_02h13.33.424,classification_task,2021.2.3,Win32,59.66231132,60eeef59b6f6d71e2529111f,626b377229c10585ec392f89,626b3ab97ea1b826abb652f6,,,,,,,,,,,,,,,,,,,,,,,,,,,,,,,,,,,,,,,1,  ,,0,6.882406496,302.2534,0,2,2,2,1,2,3,,,,,,,,,,,,,,,,,
,Gareyh,001,2022-04-29_02h13.33.424,classification_task,2021.2.3,Win32,59.66231132,60eeef59b6f6d71e2529111f,626b377229c10585ec392f89,626b3ab97ea1b826abb652f6,,,,,,,,,,,,,,,,,,,,,,,,,,,,,,,,,,,,,,,2,  ,,0,8.793771298,306.3023,0,2,2,2,1,2,3,,,,,,,,,,,,,,,,,
,Gareyh,001,2022-04-29_02h13.33.424,classification_task,2021.2.3,Win32,59.66231132,60eeef59b6f6d71e2529111f,626b377229c10585ec392f89,626b3ab97ea1b826abb652f6,,,,,,,,,,,,,,,,,,,,,,,,,,,,,,,,,,,,,,,,,,,,,0,2,2,2,1,,3,,,,,,,,,,,,,,,,,
,Gareyh,001,2022-04-29_02h13.33.424,classification_task,2021.2.3,Win32,59.66231132,60eeef59b6f6d71e2529111f,626b377229c10585ec392f89,626b3ab97ea1b826abb652f6,,,,,,,,,,,,,,,,,,,,,,,,,,,,,,,,,,,,,,,,,,,,,,,,,,,,,I believe the aid is a competent performer,,0.7,0,4,1013.7998,0,0,0,0,1,0,,,,
,Gareyh,001,2022-04-29_02h13.33.424,classification_task,2021.2.3,Win32,59.66231132,60eeef59b6f6d71e2529111f,626b377229c10585ec392f89,626b3ab97ea1b826abb652f6,,,,,,,,,,,,,,,,,,,,,,,,,,,,,,,,,,,,,,,,,,,,,,,,,,,,,I trust the aid,,0.7,0,4,1015.7148,0,0,0,0,1,0,,,,
,Gareyh,001,2022-04-29_02h13.33.424,classification_task,2021.2.3,Win32,59.66231132,60eeef59b6f6d71e2529111f,626b377229c10585ec392f89,626b3ab97ea1b826abb652f6,,,,,,,,,,,,,,,,,,,,,,,,,,,,,,,,,,,,,,,,,,,,,,,,,,,,,I have confidence in the advice given by the aid,,0.7,0,5,1030.7925,0,0,0,0,1,0,,,,
,Gareyh,001,2022-04-29_02h13.33.424,classification_task,2021.2.3,Win32,59.66231132,60eeef59b6f6d71e2529111f,626b377229c10585ec392f89,626b3ab97ea1b826abb652f6,,,,,,,,,,,,,,,,,,,,,,,,,,,,,,,,,,,,,,,,,,,,,,,,,,,,,I can depend on the aid,,0.7,0,3,1031.9482,0,0,0,0,1,0,,,,
,Gareyh,001,2022-04-29_02h13.33.424,classification_task,2021.2.3,Win32,59.66231132,60eeef59b6f6d71e2529111f,626b377229c10585ec392f89,626b3ab97ea1b826abb652f6,,,,,,,,,,,,,,,,,,,,,,,,,,,,,,,,,,,,,,,,,,,,,,,,,,,,,I can rely on the aid to behave in consistent ways,,0.7,0,4,1037.336,0,0,0,0,1,0,,,,
,Gareyh,001,2022-04-29_02h13.33.424,classification_task,2021.2.3,Win32,59.66231132,60eeef59b6f6d71e2529111f,626b377229c10585ec392f89,626b3ab97ea1b826abb652f6,,,,,,,,,,,,,,,,,,,,,,,,,,,,,,,,,,,,,,,,,,,,,,,,,,,,,I can rely on the aid to do its best every time I take its advice,,0.7,0,3,1044.0123,0,0,0,0,1,0,,,,
,Gareyh,001,2022-04-29_02h13.33.424,classification_task,2021.2.3,Win32,59.66231132,60eeef59b6f6d71e2529111f,626b377229c10585ec392f89,626b3ab97ea1b826abb652f6,,,,,,,,,,,,,,,,,,,,,,,,,,,,,,,,,,,,,,,,,,,,,,,,,,,,,"On trials you completed with assistance from the aid, how frequently did you think the aid was correct?",,0.7,0,65%,,0,0,0,0,1,0,,,,
,Gareyh,001,2022-04-29_02h13.33.424,classification_task,2021.2.3,Win32,59.66231132,60eeef59b6f6d71e2529111f,626b377229c10585ec392f89,626b3ab97ea1b826abb652f6,,,,,,,,,,,,,,,,,,,,,,,,,,,,,,,,,,,,,,,,,,,,,,,,,,,,,"On trials you completed without the aid, how frequently did you think you were correct?",,0.7,0,40%,,0,0,0,0,1,0,,,,
,Gareyh,001,2022-04-29_02h13.33.424,classification_task,2021.2.3,Win32,59.66231132,60eeef59b6f6d71e2529111f,626b377229c10585ec392f89,626b3ab97ea1b826abb652f6,,,,,,,,,,,,,,,,,,,,,,,,,,,,,,,,,,,,,,,,,,,,,,,,,,,,,,,,,,,0,0,0,0,1,,,,,
,Gareyh,001,2022-04-29_02h13.33.424,classification_task,2021.2.3,Win32,59.66231132,60eeef59b6f6d71e2529111f,626b377229c10585ec392f89,626b3ab97ea1b826abb652f6,,,,,,,,,,,,,,,,,,,,,,,,,,,,,,,,,,,,,,,,,,,,,,,,,,,,,,,,,,,,,,,,,space,17.0948,1092.9917,
,Gareyh,001,2022-04-29_02h13.33.424,classification_task,2021.2.3,Win32,59.66231132,60eeef59b6f6d71e2529111f,626b377229c10585ec392f89,626b3ab97ea1b826abb652f6,,,,,,,,,,,,,,,,,,,,,,,,,,,,,,,,,,,,,,,,,,,,,,,,,,,,,,,,,,,,,,,,,,,,"Mozilla/5.0 (Windows NT 10.0; Win64; x64) AppleWebKit/537.36 (KHTML, like Gecko) Chrome/100.0.4896.127 Safari/537.36"
