usingWebGL,participant,session,date,expName,psychopyVersion,OS,frameRate,PROLIFIC_PID,STUDY_ID,SESSION_ID,signatures_friend,signatures_foe,band_ranges_top,band_ranges_bottom,formitemText,formtype,formundefined,formitemWidth,formindex,formresponse,formrt,key_resp_2.keys,key_resp_2.rt,tute_resp.keys,tute_resp.rt,tutorial.thisRepN,tutorial.thisTrialN,tutorial.thisN,tutorial.thisIndex,tutorial.ran,key_resp_4.keys,key_resp_4.rt,key_resp.keys,key_resp.corr,key_resp.rt,lines_presented,is_signal_presented,trials.thisRepN,trials.thisTrialN,trials.thisN,trials.thisIndex,trials.ran,vessel,active_band,lines,is_signal,supported_pos,catch_trial,debrief_formindex,debrief_formitemText,debrief_formtype,debrief_formitemWidth,debrief_formresponse,debrief_formrt,phases.thisRepN,phases.thisTrialN,phases.thisN,phases.thisIndex,phases.ran,phases.order,phase,key_resp_3.keys,trustitemText,trusttype,trustitemWidth,trustindex,trustresponse,trustrt,support_status.thisRepN,support_status.thisTrialN,support_status.thisN,support_status.thisIndex,support_status.ran,support_status.order,key_resp_5.keys,key_resp_5.rt,globalClockTime,userAgent
TRUE,Gloria Cervantes,001,2022-04-28_18h57.05.722,classification_task,2021.2.3,Win32,61.56877232,613a70774e42055f91081fc5,626b377229c10585ec392f8a,626b37bd3faadc900a728b5c,,,,,,,,,,,,,,,,,,,,,,,,,,,,,,,,,,,,,,,,,,,,,,,,,,,,,,,,,,,,,,,,,,,,
,Gloria Cervantes,001,2022-04-28_18h57.05.722,classification_task,2021.2.3,Win32,61.56877232,613a70774e42055f91081fc5,626b377229c10585ec392f8a,626b37bd3faadc900a728b5c,"[[""0.175"",""0.547"",""0.867"",""0.946""],[""0.247"",""0.499"",""0.798"",""0.907""]]","[[""0.034"",""0.342"",""0.673"",""0.714""],[""0.130"",""0.425"",""0.463"",""0.833""]]","[1,10]","[100,1000]",Video game experience,,,0.7,0,,,,,,,,,,,,,,,,,,,,,,,,,,,,,,,,,,,,,,,,,,,,,,,,,,,,,,,,,,,
,Gloria Cervantes,001,2022-04-28_18h57.05.722,classification_task,2021.2.3,Win32,61.56877232,613a70774e42055f91081fc5,626b377229c10585ec392f8a,626b37bd3faadc900a728b5c,,,,,Approximately how many hours did you spend playing video games in the last week?,,,0.7,0,5hrs/day,,,,,,,,,,,,,,,,,,,,,,,,,,,,,,,,,,,,,,,,,,,,,,,,,,,,,,,,,,
,Gloria Cervantes,001,2022-04-28_18h57.05.722,classification_task,2021.2.3,Win32,61.56877232,613a70774e42055f91081fc5,626b377229c10585ec392f8a,626b37bd3faadc900a728b5c,,,,,"Which game did you play the most this year? (Enter ""None"" if you didn't play any)",,,0.7,0,sims 3,,,,,,,,,,,,,,,,,,,,,,,,,,,,,,,,,,,,,,,,,,,,,,,,,,,,,,,,,,
,Gloria Cervantes,001,2022-04-28_18h57.05.722,classification_task,2021.2.3,Win32,61.56877232,613a70774e42055f91081fc5,626b377229c10585ec392f8a,626b37bd3faadc900a728b5c,,,,,Visual perception,,,0.7,0,,,,,,,,,,,,,,,,,,,,,,,,,,,,,,,,,,,,,,,,,,,,,,,,,,,,,,,,,,,
,Gloria Cervantes,001,2022-04-28_18h57.05.722,classification_task,2021.2.3,Win32,61.56877232,613a70774e42055f91081fc5,626b377229c10585ec392f8a,626b37bd3faadc900a728b5c,,,,,Do you have any form of color blindness?,,,0.7,0,No,39.087,,,,,,,,,,,,,,,,,,,,,,,,,,,,,,,,,,,,,,,,,,,,,,,,,,,,,,,,,
,Gloria Cervantes,001,2022-04-28_18h57.05.722,classification_task,2021.2.3,Win32,61.56877232,613a70774e42055f91081fc5,626b377229c10585ec392f8a,626b37bd3faadc900a728b5c,,,,,Do you use software to change the colour temperature of your screen (e.g. f.lux)?,,,0.7,0,No,43.1226,,,,,,,,,,,,,,,,,,,,,,,,,,,,,,,,,,,,,,,,,,,,,,,,,,,,,,,,,
,Gloria Cervantes,001,2022-04-28_18h57.05.722,classification_task,2021.2.3,Win32,61.56877232,613a70774e42055f91081fc5,626b377229c10585ec392f8a,626b37bd3faadc900a728b5c,,,,,,,,,,,,space,25.3925,space,15.7357,0,0,0,0,1,,,,,,,,,,,,,,,,,,,,,,,,,,,,,,,,,,,,,,,,,,,,,,,,
,Gloria Cervantes,001,2022-04-28_18h57.05.722,classification_task,2021.2.3,Win32,61.56877232,613a70774e42055f91081fc5,626b377229c10585ec392f8a,626b37bd3faadc900a728b5c,,,,,,,,,,,,,,space,6.2254,1,0,1,0,1,,,,,,,,,,,,,,,,,,,,,,,,,,,,,,,,,,,,,,,,,,,,,,,,
,Gloria Cervantes,001,2022-04-28_18h57.05.722,classification_task,2021.2.3,Win32,61.56877232,613a70774e42055f91081fc5,626b377229c10585ec392f8a,626b37bd3faadc900a728b5c,,,,,,,,,,,,,,space,18.7589,2,0,2,0,1,,,,,,,,,,,,,,,,,,,,,,,,,,,,,,,,,,,,,,,,,,,,,,,,
,Gloria Cervantes,001,2022-04-28_18h57.05.722,classification_task,2021.2.3,Win32,61.56877232,613a70774e42055f91081fc5,626b377229c10585ec392f8a,626b37bd3faadc900a728b5c,,,,,,,,,,,,,,space,8.9233,3,0,3,0,1,,,,,,,,,,,,,,,,,,,,,,,,,,,,,,,,,,,,,,,,,,,,,,,,
,Gloria Cervantes,001,2022-04-28_18h57.05.722,classification_task,2021.2.3,Win32,61.56877232,613a70774e42055f91081fc5,626b377229c10585ec392f8a,626b37bd3faadc900a728b5c,,,,,,,,,,,,,,space,6.674,4,0,4,0,1,,,,,,,,,,,,,,,,,,,,,,,,,,,,,,,,,,,,,,,,,,,,,,,,
,Gloria Cervantes,001,2022-04-28_18h57.05.722,classification_task,2021.2.3,Win32,61.56877232,613a70774e42055f91081fc5,626b377229c10585ec392f8a,626b37bd3faadc900a728b5c,,,,,,,,,,,,,,,,,,,,,space,4.7469,a,0,1.7651,"[""0.130"",""0.425"",""0.463"",""0.391""]","[1,1,1,0]",0,0,0,0,1,1,1,,,0,FALSE,,,,,,,,,,,,,,,,,,,,,,,,,,,,,,
,Gloria Cervantes,001,2022-04-28_18h57.05.722,classification_task,2021.2.3,Win32,61.56877232,613a70774e42055f91081fc5,626b377229c10585ec392f8a,626b37bd3faadc900a728b5c,,,,,,,,,,,,,,,,,,,,,,,l,1,2.6118,"[""0.086"",""0.342"",""0.673"",""0.714""]","[0,1,1,1]",0,1,1,1,1,1,0,,,0,FALSE,,,,,,,,,,,,,,,,,,,,,,,,,,,,,,
,Gloria Cervantes,001,2022-04-28_18h57.05.722,classification_task,2021.2.3,Win32,61.56877232,613a70774e42055f91081fc5,626b377229c10585ec392f8a,626b37bd3faadc900a728b5c,,,,,,,,,,,,,,,,,,,,,,,a,1,1.0319,"[""0.175"",""0.547"",""0.307"",""0.946""]","[1,1,0,1]",0,2,2,2,1,0,0,,,0,FALSE,,,,,,,,,,,,,,,,,,,,,,,,,,,,,,
,Gloria Cervantes,001,2022-04-28_18h57.05.722,classification_task,2021.2.3,Win32,61.56877232,613a70774e42055f91081fc5,626b377229c10585ec392f8a,626b37bd3faadc900a728b5c,,,,,,,,,,,,,,,,,,,,,,,l,0,1.3643,"[""0.391"",""0.547"",""0.867"",""0.946""]","[0,1,1,1]",0,3,3,3,1,0,0,,,0,FALSE,,,,,,,,,,,,,,,,,,,,,,,,,,,,,,
,Gloria Cervantes,001,2022-04-28_18h57.05.722,classification_task,2021.2.3,Win32,61.56877232,613a70774e42055f91081fc5,626b377229c10585ec392f8a,626b37bd3faadc900a728b5c,,,,,,,,,,,,,,,,,,,,,,,a,0,1.0449,"[""0.130"",""0.425"",""0.086"",""0.833""]","[1,1,0,1]",0,4,4,4,1,1,1,,,0,FALSE,,,,,,,,,,,,,,,,,,,,,,,,,,,,,,
,Gloria Cervantes,001,2022-04-28_18h57.05.722,classification_task,2021.2.3,Win32,61.56877232,613a70774e42055f91081fc5,626b377229c10585ec392f8a,626b37bd3faadc900a728b5c,,,,,,,,,,,,,,,,,,,,,,,a,1,1.147,"[""0.069"",""0.499"",""0.798"",""0.907""]","[0,1,1,1]",0,5,5,5,1,0,1,,,0,FALSE,,,,,,,,,,,,,,,,,,,,,,,,,,,,,,
,Gloria Cervantes,001,2022-04-28_18h57.05.722,classification_task,2021.2.3,Win32,61.56877232,613a70774e42055f91081fc5,626b377229c10585ec392f8a,626b37bd3faadc900a728b5c,,,,,,,,,,,,,,,,,,,,,,,a,1,1.1969,"[""0.175"",""0.547"",""0.867"",""0.638""]","[1,1,1,0]",0,6,6,6,1,0,0,,,0,FALSE,,,,,,,,,,,,,,,,,,,,,,,,,,,,,,
,Gloria Cervantes,001,2022-04-28_18h57.05.722,classification_task,2021.2.3,Win32,61.56877232,613a70774e42055f91081fc5,626b377229c10585ec392f8a,626b37bd3faadc900a728b5c,,,,,,,,,,,,,,,,,,,,,,,l,0,1.0443,"[""0.247"",""0.499"",""0.798"",""0.391""]","[1,1,1,0]",0,7,7,7,1,0,1,,,0,FALSE,,,,,,,,,,,,,,,,,,,,,,,,,,,,,,
,Gloria Cervantes,001,2022-04-28_18h57.05.722,classification_task,2021.2.3,Win32,61.56877232,613a70774e42055f91081fc5,626b377229c10585ec392f8a,626b37bd3faadc900a728b5c,,,,,,,,,,,,,,,,,,,,,,,l,1,0.8958,"[""0.034"",""0.342"",""0.673"",""0.391""]","[1,1,1,0]",0,8,8,8,1,1,0,,,0,FALSE,,,,,,,,,,,,,,,,,,,,,,,,,,,,,,
,Gloria Cervantes,001,2022-04-28_18h57.05.722,classification_task,2021.2.3,Win32,61.56877232,613a70774e42055f91081fc5,626b377229c10585ec392f8a,626b37bd3faadc900a728b5c,,,,,,,,,,,,,,,,,,,,,,,l,1,0.8305,"[""0.130"",""0.073"",""0.463"",""0.833""]","[1,0,1,1]",0,9,9,9,1,1,1,,,0,FALSE,,,,,,,,,,,,,,,,,,,,,,,,,,,,,,
,Gloria Cervantes,001,2022-04-28_18h57.05.722,classification_task,2021.2.3,Win32,61.56877232,613a70774e42055f91081fc5,626b377229c10585ec392f8a,626b37bd3faadc900a728b5c,,,,,,,,,,,,,,,,,,,,,,,a,0,0.6648,"[""0.638"",""0.425"",""0.463"",""0.833""]","[0,1,1,1]",0,10,10,10,1,1,1,,,0,FALSE,,,,,,,,,,,,,,,,,,,,,,,,,,,,,,
,Gloria Cervantes,001,2022-04-28_18h57.05.722,classification_task,2021.2.3,Win32,61.56877232,613a70774e42055f91081fc5,626b377229c10585ec392f8a,626b37bd3faadc900a728b5c,,,,,,,,,,,,,,,,,,,,,,,l,0,1.014,"[""0.247"",""0.499"",""0.286"",""0.907""]","[1,1,0,1]",0,11,11,11,1,0,1,,,0,FALSE,,,,,,,,,,,,,,,,,,,,,,,,,,,,,,
,Gloria Cervantes,001,2022-04-28_18h57.05.722,classification_task,2021.2.3,Win32,61.56877232,613a70774e42055f91081fc5,626b377229c10585ec392f8a,626b37bd3faadc900a728b5c,,,,,,,,,,,,,,,,,,,,,,,l,0,0.8639,"[""0.247"",""0.289"",""0.798"",""0.907""]","[1,0,1,1]",0,12,12,12,1,0,1,,,0,FALSE,,,,,,,,,,,,,,,,,,,,,,,,,,,,,,
,Gloria Cervantes,001,2022-04-28_18h57.05.722,classification_task,2021.2.3,Win32,61.56877232,613a70774e42055f91081fc5,626b377229c10585ec392f8a,626b37bd3faadc900a728b5c,,,,,,,,,,,,,,,,,,,,,,,a,0,1.0609,"[""0.034"",""0.625"",""0.673"",""0.714""]","[1,0,1,1]",0,13,13,13,1,1,0,,,0,FALSE,,,,,,,,,,,,,,,,,,,,,,,,,,,,,,
,Gloria Cervantes,001,2022-04-28_18h57.05.722,classification_task,2021.2.3,Win32,61.56877232,613a70774e42055f91081fc5,626b377229c10585ec392f8a,626b37bd3faadc900a728b5c,,,,,,,,,,,,,,,,,,,,,,,a,1,0.8512,"[""0.175"",""0.626"",""0.867"",""0.946""]","[1,0,1,1]",0,14,14,14,1,0,0,,,0,FALSE,,,,,,,,,,,,,,,,,,,,,,,,,,,,,,
,Gloria Cervantes,001,2022-04-28_18h57.05.722,classification_task,2021.2.3,Win32,61.56877232,613a70774e42055f91081fc5,626b377229c10585ec392f8a,626b37bd3faadc900a728b5c,,,,,,,,,,,,,,,,,,,,,,,l,1,1.2975,"[""0.034"",""0.342"",""0.289"",""0.714""]","[1,1,0,1]",0,15,15,15,1,1,0,,,0,FALSE,,,,,,,,,,,,,,,,,,,,,,,,,,,,,,
,Gloria Cervantes,001,2022-04-28_18h57.05.722,classification_task,2021.2.3,Win32,61.56877232,613a70774e42055f91081fc5,626b377229c10585ec392f8a,626b37bd3faadc900a728b5c,,,,,,,,,,,,,,,,,,,,,,,l,1,3.7788,"[""0.034"",""0.342"",""0.673"",""0.077""]","[1,1,1,0]",0,16,16,16,1,1,0,,,0,FALSE,,,,,,,,,,,,,,,,,,,,,,,,,,,,,,
,Gloria Cervantes,001,2022-04-28_18h57.05.722,classification_task,2021.2.3,Win32,61.56877232,613a70774e42055f91081fc5,626b377229c10585ec392f8a,626b37bd3faadc900a728b5c,,,,,,,,,,,,,,,,,,,,,,,l,0,0.9376,"[""0.247"",""0.499"",""0.755"",""0.907""]","[1,1,0,1]",0,17,17,17,1,0,1,,,0,FALSE,,,,,,,,,,,,,,,,,,,,,,,,,,,,,,
,Gloria Cervantes,001,2022-04-28_18h57.05.722,classification_task,2021.2.3,Win32,61.56877232,613a70774e42055f91081fc5,626b377229c10585ec392f8a,626b37bd3faadc900a728b5c,,,,,,,,,,,,,,,,,,,,,,,l,0,0.8632,"[""0.625"",""0.499"",""0.798"",""0.907""]","[0,1,1,1]",0,18,18,18,1,0,1,,,0,FALSE,,,,,,,,,,,,,,,,,,,,,,,,,,,,,,
,Gloria Cervantes,001,2022-04-28_18h57.05.722,classification_task,2021.2.3,Win32,61.56877232,613a70774e42055f91081fc5,626b377229c10585ec392f8a,626b37bd3faadc900a728b5c,,,,,,,,,,,,,,,,,,,,,,,a,0,0.8447,"[""0.303"",""0.342"",""0.673"",""0.714""]","[0,1,1,1]",0,19,19,19,1,1,0,,,0,FALSE,,,,,,,,,,,,,,,,,,,,,,,,,,,,,,
,Gloria Cervantes,001,2022-04-28_18h57.05.722,classification_task,2021.2.3,Win32,61.56877232,613a70774e42055f91081fc5,626b377229c10585ec392f8a,626b37bd3faadc900a728b5c,,,,,,,,,,,,,,,,,,,,,,,a,0,0.9759,"[""0.130"",""0.425"",""0.463"",""0.591""]","[1,1,1,0]",0,20,20,20,1,1,1,,,0,FALSE,,,,,,,,,,,,,,,,,,,,,,,,,,,,,,
,Gloria Cervantes,001,2022-04-28_18h57.05.722,classification_task,2021.2.3,Win32,61.56877232,613a70774e42055f91081fc5,626b377229c10585ec392f8a,626b37bd3faadc900a728b5c,,,,,,,,,,,,,,,,,,,,,,,a,0,1.0988,"[""0.130"",""0.077"",""0.463"",""0.833""]","[1,0,1,1]",0,21,21,21,1,1,1,,,0,FALSE,,,,,,,,,,,,,,,,,,,,,,,,,,,,,,
,Gloria Cervantes,001,2022-04-28_18h57.05.722,classification_task,2021.2.3,Win32,61.56877232,613a70774e42055f91081fc5,626b377229c10585ec392f8a,626b37bd3faadc900a728b5c,,,,,,,,,,,,,,,,,,,,,,,l,1,0.9991,"[""0.755"",""0.425"",""0.463"",""0.833""]","[0,1,1,1]",0,22,22,22,1,1,1,,,0,FALSE,,,,,,,,,,,,,,,,,,,,,,,,,,,,,,
,Gloria Cervantes,001,2022-04-28_18h57.05.722,classification_task,2021.2.3,Win32,61.56877232,613a70774e42055f91081fc5,626b377229c10585ec392f8a,626b37bd3faadc900a728b5c,,,,,,,,,,,,,,,,,,,,,,,l,0,1.0273,"[""0.175"",""0.547"",""0.867"",""0.307""]","[1,1,1,0]",0,23,23,23,1,0,0,,,0,FALSE,,,,,,,,,,,,,,,,,,,,,,,,,,,,,,
,Gloria Cervantes,001,2022-04-28_18h57.05.722,classification_task,2021.2.3,Win32,61.56877232,613a70774e42055f91081fc5,626b377229c10585ec392f8a,626b37bd3faadc900a728b5c,,,,,,,,,,,,,,,,,,,,,,,l,1,0.8513,"[""0.034"",""0.342"",""0.089"",""0.714""]","[1,1,0,1]",0,24,24,24,1,1,0,,,0,FALSE,,,,,,,,,,,,,,,,,,,,,,,,,,,,,,
,Gloria Cervantes,001,2022-04-28_18h57.05.722,classification_task,2021.2.3,Win32,61.56877232,613a70774e42055f91081fc5,626b377229c10585ec392f8a,626b37bd3faadc900a728b5c,,,,,,,,,,,,,,,,,,,,,,,a,1,0.9286,"[""0.247"",""0.499"",""0.798"",""0.591""]","[1,1,1,0]",0,25,25,25,1,0,1,,,0,FALSE,,,,,,,,,,,,,,,,,,,,,,,,,,,,,,
,Gloria Cervantes,001,2022-04-28_18h57.05.722,classification_task,2021.2.3,Win32,61.56877232,613a70774e42055f91081fc5,626b377229c10585ec392f8a,626b37bd3faadc900a728b5c,,,,,,,,,,,,,,,,,,,,,,,a,1,1.0834,"[""0.247"",""0.759"",""0.798"",""0.907""]","[1,0,1,1]",0,26,26,26,1,0,1,,,0,FALSE,,,,,,,,,,,,,,,,,,,,,,,,,,,,,,
,Gloria Cervantes,001,2022-04-28_18h57.05.722,classification_task,2021.2.3,Win32,61.56877232,613a70774e42055f91081fc5,626b377229c10585ec392f8a,626b37bd3faadc900a728b5c,,,,,,,,,,,,,,,,,,,,,,,a,0,0.7993,"[""0.130"",""0.425"",""0.089"",""0.833""]","[1,1,0,1]",0,27,27,27,1,1,1,,,0,FALSE,,,,,,,,,,,,,,,,,,,,,,,,,,,,,,
,Gloria Cervantes,001,2022-04-28_18h57.05.722,classification_task,2021.2.3,Win32,61.56877232,613a70774e42055f91081fc5,626b377229c10585ec392f8a,626b37bd3faadc900a728b5c,,,,,,,,,,,,,,,,,,,,,,,a,0,1.1771,"[""0.034"",""0.759"",""0.673"",""0.714""]","[1,0,1,1]",0,28,28,28,1,1,0,,,0,FALSE,,,,,,,,,,,,,,,,,,,,,,,,,,,,,,
,Gloria Cervantes,001,2022-04-28_18h57.05.722,classification_task,2021.2.3,Win32,61.56877232,613a70774e42055f91081fc5,626b377229c10585ec392f8a,626b37bd3faadc900a728b5c,,,,,,,,,,,,,,,,,,,,,,,a,1,0.7658,"[""0.175"",""0.286"",""0.867"",""0.946""]","[1,0,1,1]",0,29,29,29,1,0,0,,,0,FALSE,,,,,,,,,,,,,,,,,,,,,,,,,,,,,,
,Gloria Cervantes,001,2022-04-28_18h57.05.722,classification_task,2021.2.3,Win32,61.56877232,613a70774e42055f91081fc5,626b377229c10585ec392f8a,626b37bd3faadc900a728b5c,,,,,,,,,,,,,,,,,,,,,,,a,1,0.9472,"[""0.175"",""0.547"",""0.591"",""0.946""]","[1,1,0,1]",0,30,30,30,1,0,0,,,0,FALSE,,,,,,,,,,,,,,,,,,,,,,,,,,,,,,
,Gloria Cervantes,001,2022-04-28_18h57.05.722,classification_task,2021.2.3,Win32,61.56877232,613a70774e42055f91081fc5,626b377229c10585ec392f8a,626b37bd3faadc900a728b5c,,,,,,,,,,,,,,,,,,,,,,,a,1,1.0785,"[""0.069"",""0.547"",""0.867"",""0.946""]","[0,1,1,1]",0,31,31,31,1,0,0,,,0,FALSE,,,,,,,,,,,,,,,,,,,,,,,,,,,,,,
,Gloria Cervantes,001,2022-04-28_18h57.05.722,classification_task,2021.2.3,Win32,61.56877232,613a70774e42055f91081fc5,626b377229c10585ec392f8a,626b37bd3faadc900a728b5c,,,,,,,,,,,,,,,,,,,,,,,l,1,0.9275,"[""0.034"",""0.342"",""0.759"",""0.714""]","[1,1,0,1]",0,32,32,32,1,1,0,,,0,FALSE,,,,,,,,,,,,,,,,,,,,,,,,,,,,,,
,Gloria Cervantes,001,2022-04-28_18h57.05.722,classification_task,2021.2.3,Win32,61.56877232,613a70774e42055f91081fc5,626b377229c10585ec392f8a,626b37bd3faadc900a728b5c,,,,,,,,,,,,,,,,,,,,,,,l,0,0.9139,"[""0.175"",""0.547"",""0.303"",""0.946""]","[1,1,0,1]",0,33,33,33,1,0,0,,,0,FALSE,,,,,,,,,,,,,,,,,,,,,,,,,,,,,,
,Gloria Cervantes,001,2022-04-28_18h57.05.722,classification_task,2021.2.3,Win32,61.56877232,613a70774e42055f91081fc5,626b377229c10585ec392f8a,626b37bd3faadc900a728b5c,,,,,,,,,,,,,,,,,,,,,,,l,1,1.6132,"[""0.086"",""0.425"",""0.463"",""0.833""]","[0,1,1,1]",0,34,34,34,1,1,1,,,0,FALSE,,,,,,,,,,,,,,,,,,,,,,,,,,,,,,
,Gloria Cervantes,001,2022-04-28_18h57.05.722,classification_task,2021.2.3,Win32,61.56877232,613a70774e42055f91081fc5,626b377229c10585ec392f8a,626b37bd3faadc900a728b5c,,,,,,,,,,,,,,,,,,,,,,,l,0,1.0488,"[""0.247"",""0.638"",""0.798"",""0.907""]","[1,0,1,1]",0,35,35,35,1,0,1,,,0,FALSE,,,,,,,,,,,,,,,,,,,,,,,,,,,,,,
,Gloria Cervantes,001,2022-04-28_18h57.05.722,classification_task,2021.2.3,Win32,61.56877232,613a70774e42055f91081fc5,626b377229c10585ec392f8a,626b37bd3faadc900a728b5c,,,,,,,,,,,,,,,,,,,,,,,a,0,1.0649,"[""0.034"",""0.077"",""0.673"",""0.714""]","[1,0,1,1]",0,36,36,36,1,1,0,,,0,FALSE,,,,,,,,,,,,,,,,,,,,,,,,,,,,,,
,Gloria Cervantes,001,2022-04-28_18h57.05.722,classification_task,2021.2.3,Win32,61.56877232,613a70774e42055f91081fc5,626b377229c10585ec392f8a,626b37bd3faadc900a728b5c,,,,,,,,,,,,,,,,,,,,,,,a,0,0.6995,"[""0.130"",""0.425"",""0.086"",""0.833""]","[1,1,0,1]",0,37,37,37,1,1,1,,,0,FALSE,,,,,,,,,,,,,,,,,,,,,,,,,,,,,,
,Gloria Cervantes,001,2022-04-28_18h57.05.722,classification_task,2021.2.3,Win32,61.56877232,613a70774e42055f91081fc5,626b377229c10585ec392f8a,626b37bd3faadc900a728b5c,,,,,,,,,,,,,,,,,,,,,,,a,0,1.5174,"[""0.130"",""0.425"",""0.463"",""0.086""]","[1,1,1,0]",0,38,38,38,1,1,1,,,0,FALSE,,,,,,,,,,,,,,,,,,,,,,,,,,,,,,
,Gloria Cervantes,001,2022-04-28_18h57.05.722,classification_task,2021.2.3,Win32,61.56877232,613a70774e42055f91081fc5,626b377229c10585ec392f8a,626b37bd3faadc900a728b5c,,,,,,,,,,,,,,,,,,,,,,,a,0,0.9627,"[""0.034"",""0.342"",""0.673"",""0.626""]","[1,1,1,0]",0,39,39,39,1,1,0,,,0,FALSE,,,,,,,,,,,,,,,,,,,,,,,,,,,,,,
,Gloria Cervantes,001,2022-04-28_18h57.05.722,classification_task,2021.2.3,Win32,61.56877232,613a70774e42055f91081fc5,626b377229c10585ec392f8a,626b37bd3faadc900a728b5c,,,,,,,,,,,,,,,,,,,,,,,l,1,0.6479,"[""0.077"",""0.342"",""0.673"",""0.714""]","[0,1,1,1]",0,40,40,40,1,1,0,,,0,FALSE,,,,,,,,,,,,,,,,,,,,,,,,,,,,,,
,Gloria Cervantes,001,2022-04-28_18h57.05.722,classification_task,2021.2.3,Win32,61.56877232,613a70774e42055f91081fc5,626b377229c10585ec392f8a,626b37bd3faadc900a728b5c,,,,,,,,,,,,,,,,,,,,,,,l,0,0.7356,"[""0.175"",""0.547"",""0.867"",""0.591""]","[1,1,1,0]",0,41,41,41,1,0,0,,,0,FALSE,,,,,,,,,,,,,,,,,,,,,,,,,,,,,,
,Gloria Cervantes,001,2022-04-28_18h57.05.722,classification_task,2021.2.3,Win32,61.56877232,613a70774e42055f91081fc5,626b377229c10585ec392f8a,626b37bd3faadc900a728b5c,,,,,,,,,,,,,,,,,,,,,,,a,1,0.799,"[""0.175"",""0.286"",""0.867"",""0.946""]","[1,0,1,1]",0,42,42,42,1,0,0,,,0,FALSE,,,,,,,,,,,,,,,,,,,,,,,,,,,,,,
,Gloria Cervantes,001,2022-04-28_18h57.05.722,classification_task,2021.2.3,Win32,61.56877232,613a70774e42055f91081fc5,626b377229c10585ec392f8a,626b37bd3faadc900a728b5c,,,,,,,,,,,,,,,,,,,,,,,l,0,0.8638,"[""0.077"",""0.499"",""0.798"",""0.907""]","[0,1,1,1]",0,43,43,43,1,0,1,,,0,FALSE,,,,,,,,,,,,,,,,,,,,,,,,,,,,,,
,Gloria Cervantes,001,2022-04-28_18h57.05.722,classification_task,2021.2.3,Win32,61.56877232,613a70774e42055f91081fc5,626b377229c10585ec392f8a,626b37bd3faadc900a728b5c,,,,,,,,,,,,,,,,,,,,,,,l,0,0.7166,"[""0.755"",""0.547"",""0.867"",""0.946""]","[0,1,1,1]",0,44,44,44,1,0,0,,,0,FALSE,,,,,,,,,,,,,,,,,,,,,,,,,,,,,,
,Gloria Cervantes,001,2022-04-28_18h57.05.722,classification_task,2021.2.3,Win32,61.56877232,613a70774e42055f91081fc5,626b377229c10585ec392f8a,626b37bd3faadc900a728b5c,,,,,,,,,,,,,,,,,,,,,,,l,1,0.8299,"[""0.130"",""0.625"",""0.463"",""0.833""]","[1,0,1,1]",0,45,45,45,1,1,1,,,0,FALSE,,,,,,,,,,,,,,,,,,,,,,,,,,,,,,
,Gloria Cervantes,001,2022-04-28_18h57.05.722,classification_task,2021.2.3,Win32,61.56877232,613a70774e42055f91081fc5,626b377229c10585ec392f8a,626b37bd3faadc900a728b5c,,,,,,,,,,,,,,,,,,,,,,,l,0,1.049,"[""0.247"",""0.499"",""0.798"",""0.591""]","[1,1,1,0]",0,46,46,46,1,0,1,,,0,FALSE,,,,,,,,,,,,,,,,,,,,,,,,,,,,,,
,Gloria Cervantes,001,2022-04-28_18h57.05.722,classification_task,2021.2.3,Win32,61.56877232,613a70774e42055f91081fc5,626b377229c10585ec392f8a,626b37bd3faadc900a728b5c,,,,,,,,,,,,,,,,,,,,,,,a,1,0.5325,"[""0.247"",""0.499"",""0.625"",""0.907""]","[1,1,0,1]",0,47,47,47,1,0,1,,,0,FALSE,,,,,,,,,,,,,,,,,,,,,,,,,,,,,,
,Gloria Cervantes,001,2022-04-28_18h57.05.722,classification_task,2021.2.3,Win32,61.56877232,613a70774e42055f91081fc5,626b377229c10585ec392f8a,626b37bd3faadc900a728b5c,,,,,,,,,,,,,,,,,,,,,,,a,0,0.9304,"[""0.130"",""0.425"",""0.077"",""0.833""]","[1,1,0,1]",0,48,48,48,1,1,1,,,0,FALSE,,,,,,,,,,,,,,,,,,,,,,,,,,,,,,
,Gloria Cervantes,001,2022-04-28_18h57.05.722,classification_task,2021.2.3,Win32,61.56877232,613a70774e42055f91081fc5,626b377229c10585ec392f8a,626b37bd3faadc900a728b5c,,,,,,,,,,,,,,,,,,,,,,,l,1,0.6157,"[""0.130"",""0.625"",""0.463"",""0.833""]","[1,0,1,1]",0,49,49,49,1,1,1,,,0,FALSE,,,,,,,,,,,,,,,,,,,,,,,,,,,,,,
,Gloria Cervantes,001,2022-04-28_18h57.05.722,classification_task,2021.2.3,Win32,61.56877232,613a70774e42055f91081fc5,626b377229c10585ec392f8a,626b37bd3faadc900a728b5c,,,,,,,,,,,,,,,,,,,,,,,l,0,0.9143,"[""0.069"",""0.547"",""0.867"",""0.946""]","[0,1,1,1]",0,50,50,50,1,0,0,,,0,FALSE,,,,,,,,,,,,,,,,,,,,,,,,,,,,,,
,Gloria Cervantes,001,2022-04-28_18h57.05.722,classification_task,2021.2.3,Win32,61.56877232,613a70774e42055f91081fc5,626b377229c10585ec392f8a,626b37bd3faadc900a728b5c,,,,,,,,,,,,,,,,,,,,,,,a,0,1.3974,"[""0.130"",""0.425"",""0.463"",""0.391""]","[1,1,1,0]",0,51,51,51,1,1,1,,,0,FALSE,,,,,,,,,,,,,,,,,,,,,,,,,,,,,,
,Gloria Cervantes,001,2022-04-28_18h57.05.722,classification_task,2021.2.3,Win32,61.56877232,613a70774e42055f91081fc5,626b377229c10585ec392f8a,626b37bd3faadc900a728b5c,,,,,,,,,,,,,,,,,,,,,,,a,0,1.3621,"[""0.034"",""0.342"",""0.289"",""0.714""]","[1,1,0,1]",0,52,52,52,1,1,0,,,0,FALSE,,,,,,,,,,,,,,,,,,,,,,,,,,,,,,
,Gloria Cervantes,001,2022-04-28_18h57.05.722,classification_task,2021.2.3,Win32,61.56877232,613a70774e42055f91081fc5,626b377229c10585ec392f8a,626b37bd3faadc900a728b5c,,,,,,,,,,,,,,,,,,,,,,,l,0,0.9395,"[""0.759"",""0.499"",""0.798"",""0.907""]","[0,1,1,1]",0,53,53,53,1,0,1,,,0,FALSE,,,,,,,,,,,,,,,,,,,,,,,,,,,,,,
,Gloria Cervantes,001,2022-04-28_18h57.05.722,classification_task,2021.2.3,Win32,61.56877232,613a70774e42055f91081fc5,626b377229c10585ec392f8a,626b37bd3faadc900a728b5c,,,,,,,,,,,,,,,,,,,,,,,a,0,0.4637,"[""0.086"",""0.425"",""0.463"",""0.833""]","[0,1,1,1]",0,54,54,54,1,1,1,,,0,FALSE,,,,,,,,,,,,,,,,,,,,,,,,,,,,,,
,Gloria Cervantes,001,2022-04-28_18h57.05.722,classification_task,2021.2.3,Win32,61.56877232,613a70774e42055f91081fc5,626b377229c10585ec392f8a,626b37bd3faadc900a728b5c,,,,,,,,,,,,,,,,,,,,,,,a,0,1.7955,"[""0.591"",""0.342"",""0.673"",""0.714""]","[0,1,1,1]",0,55,55,55,1,1,0,,,0,FALSE,,,,,,,,,,,,,,,,,,,,,,,,,,,,,,
,Gloria Cervantes,001,2022-04-28_18h57.05.722,classification_task,2021.2.3,Win32,61.56877232,613a70774e42055f91081fc5,626b377229c10585ec392f8a,626b37bd3faadc900a728b5c,,,,,,,,,,,,,,,,,,,,,,,l,0,0.9215,"[""0.175"",""0.638"",""0.867"",""0.946""]","[1,0,1,1]",0,56,56,56,1,0,0,,,0,FALSE,,,,,,,,,,,,,,,,,,,,,,,,,,,,,,
,Gloria Cervantes,001,2022-04-28_18h57.05.722,classification_task,2021.2.3,Win32,61.56877232,613a70774e42055f91081fc5,626b377229c10585ec392f8a,626b37bd3faadc900a728b5c,,,,,,,,,,,,,,,,,,,,,,,a,1,0.6799,"[""0.247"",""0.499"",""0.391"",""0.907""]","[1,1,0,1]",0,57,57,57,1,0,1,,,0,FALSE,,,,,,,,,,,,,,,,,,,,,,,,,,,,,,
,Gloria Cervantes,001,2022-04-28_18h57.05.722,classification_task,2021.2.3,Win32,61.56877232,613a70774e42055f91081fc5,626b377229c10585ec392f8a,626b37bd3faadc900a728b5c,,,,,,,,,,,,,,,,,,,,,,,a,1,1.249,"[""0.175"",""0.547"",""0.086"",""0.946""]","[1,1,0,1]",0,58,58,58,1,0,0,,,0,FALSE,,,,,,,,,,,,,,,,,,,,,,,,,,,,,,
,Gloria Cervantes,001,2022-04-28_18h57.05.722,classification_task,2021.2.3,Win32,61.56877232,613a70774e42055f91081fc5,626b377229c10585ec392f8a,626b37bd3faadc900a728b5c,,,,,,,,,,,,,,,,,,,,,,,a,1,0.8149,"[""0.247"",""0.069"",""0.798"",""0.907""]","[1,0,1,1]",0,59,59,59,1,0,1,,,0,FALSE,,,,,,,,,,,,,,,,,,,,,,,,,,,,,,
,Gloria Cervantes,001,2022-04-28_18h57.05.722,classification_task,2021.2.3,Win32,61.56877232,613a70774e42055f91081fc5,626b377229c10585ec392f8a,626b37bd3faadc900a728b5c,,,,,,,,,,,,,,,,,,,,,,,a,0,0.5486,"[""0.034"",""0.342"",""0.673"",""0.391""]","[1,1,1,0]",0,60,60,60,1,1,0,,,0,FALSE,,,,,,,,,,,,,,,,,,,,,,,,,,,,,,
,Gloria Cervantes,001,2022-04-28_18h57.05.722,classification_task,2021.2.3,Win32,61.56877232,613a70774e42055f91081fc5,626b377229c10585ec392f8a,626b37bd3faadc900a728b5c,,,,,,,,,,,,,,,,,,,,,,,l,0,0.6457,"[""0.175"",""0.547"",""0.867"",""0.303""]","[1,1,1,0]",0,61,61,61,1,0,0,,,0,FALSE,,,,,,,,,,,,,,,,,,,,,,,,,,,,,,
,Gloria Cervantes,001,2022-04-28_18h57.05.722,classification_task,2021.2.3,Win32,61.56877232,613a70774e42055f91081fc5,626b377229c10585ec392f8a,626b37bd3faadc900a728b5c,,,,,,,,,,,,,,,,,,,,,,,l,1,1.797,"[""0.034"",""0.289"",""0.673"",""0.714""]","[1,0,1,1]",0,62,62,62,1,1,0,,,0,FALSE,,,,,,,,,,,,,,,,,,,,,,,,,,,,,,
,Gloria Cervantes,001,2022-04-28_18h57.05.722,classification_task,2021.2.3,Win32,61.56877232,613a70774e42055f91081fc5,626b377229c10585ec392f8a,626b37bd3faadc900a728b5c,,,,,,,,,,,,,,,,,,,,,,,a,1,1.0573,"[""0.247"",""0.499"",""0.798"",""0.289""]","[1,1,1,0]",0,63,63,63,1,0,1,,,0,FALSE,,,,,,,,,,,,,,,,,,,,,,,,,,,,,,
,Gloria Cervantes,001,2022-04-28_18h57.05.722,classification_task,2021.2.3,Win32,61.56877232,613a70774e42055f91081fc5,626b377229c10585ec392f8a,626b37bd3faadc900a728b5c,,,,,,,,,,,,,,,,,,,,,,,,,,,,,,,,,,,,,,,0, ,,0,,,0,0,0,0,1,2,1,,,,,,,,,,,,,,,,,
,Gloria Cervantes,001,2022-04-28_18h57.05.722,classification_task,2021.2.3,Win32,61.56877232,613a70774e42055f91081fc5,626b377229c10585ec392f8a,626b37bd3faadc900a728b5c,,,,,,,,,,,,,,,,,,,,,,,,,,,,,,,,,,,,,,,1,  ,,0,,,0,0,0,0,1,2,1,,,,,,,,,,,,,,,,,
,Gloria Cervantes,001,2022-04-28_18h57.05.722,classification_task,2021.2.3,Win32,61.56877232,613a70774e42055f91081fc5,626b377229c10585ec392f8a,626b37bd3faadc900a728b5c,,,,,,,,,,,,,,,,,,,,,,,,,,,,,,,,,,,,,,,2,  ,,0,,,0,0,0,0,1,2,1,,,,,,,,,,,,,,,,,
,Gloria Cervantes,001,2022-04-28_18h57.05.722,classification_task,2021.2.3,Win32,61.56877232,613a70774e42055f91081fc5,626b377229c10585ec392f8a,626b37bd3faadc900a728b5c,,,,,,,,,,,,,,,,,,,,,,,,,,,,,,,,,,,,,,,,,,,,,0,0,0,0,1,,1,,,,,,,,,,,,,,,,,
,Gloria Cervantes,001,2022-04-28_18h57.05.722,classification_task,2021.2.3,Win32,61.56877232,613a70774e42055f91081fc5,626b377229c10585ec392f8a,626b37bd3faadc900a728b5c,,,,,,,,,,,,,,,,,,,,,space,9.954,l,1,5.8554,"[""0.034"",""0.342"",""0.073"",""0.714""]","[1,1,0,1]",0,0,0,0,1,1,0,,,0,FALSE,,,,,,,,,,,,,,,,,,,,,,,,,,,,,,
,Gloria Cervantes,001,2022-04-28_18h57.05.722,classification_task,2021.2.3,Win32,61.56877232,613a70774e42055f91081fc5,626b377229c10585ec392f8a,626b37bd3faadc900a728b5c,,,,,,,,,,,,,,,,,,,,,,,a,0,3.2224,"[""0.130"",""0.425"",""0.307"",""0.833""]","[1,1,0,1]",0,1,1,1,1,1,1,,,0,FALSE,,,,,,,,,,,,,,,,,,,,,,,,,,,,,,
,Gloria Cervantes,001,2022-04-28_18h57.05.722,classification_task,2021.2.3,Win32,61.56877232,613a70774e42055f91081fc5,626b377229c10585ec392f8a,626b37bd3faadc900a728b5c,,,,,,,,,,,,,,,,,,,,,,,l,1,0.7997,"[""0.069"",""0.342"",""0.673"",""0.714""]","[0,1,1,1]",0,2,2,2,1,1,0,,,0,FALSE,,,,,,,,,,,,,,,,,,,,,,,,,,,,,,
,Gloria Cervantes,001,2022-04-28_18h57.05.722,classification_task,2021.2.3,Win32,61.56877232,613a70774e42055f91081fc5,626b377229c10585ec392f8a,626b37bd3faadc900a728b5c,,,,,,,,,,,,,,,,,,,,,,,l,1,0.7491,"[""0.034"",""0.086"",""0.673"",""0.714""]","[1,0,1,1]",0,3,3,3,1,1,0,,,0,FALSE,,,,,,,,,,,,,,,,,,,,,,,,,,,,,,
,Gloria Cervantes,001,2022-04-28_18h57.05.722,classification_task,2021.2.3,Win32,61.56877232,613a70774e42055f91081fc5,626b377229c10585ec392f8a,626b37bd3faadc900a728b5c,,,,,,,,,,,,,,,,,,,,,,,a,0,1.1971,"[""0.130"",""0.425"",""0.463"",""0.069""]","[1,1,1,0]",0,4,4,4,1,1,1,,,0,FALSE,,,,,,,,,,,,,,,,,,,,,,,,,,,,,,
,Gloria Cervantes,001,2022-04-28_18h57.05.722,classification_task,2021.2.3,Win32,61.56877232,613a70774e42055f91081fc5,626b377229c10585ec392f8a,626b37bd3faadc900a728b5c,,,,,,,,,,,,,,,,,,,,,,,a,1,0.9313,"[""0.247"",""0.755"",""0.798"",""0.907""]","[1,0,1,1]",0,5,5,5,1,0,1,,,0,FALSE,,,,,,,,,,,,,,,,,,,,,,,,,,,,,,
,Gloria Cervantes,001,2022-04-28_18h57.05.722,classification_task,2021.2.3,Win32,61.56877232,613a70774e42055f91081fc5,626b377229c10585ec392f8a,626b37bd3faadc900a728b5c,,,,,,,,,,,,,,,,,,,,,,,a,1,0.6615,"[""0.175"",""0.547"",""0.289"",""0.946""]","[1,1,0,1]",0,6,6,6,1,0,0,,,0,FALSE,,,,,,,,,,,,,,,,,,,,,,,,,,,,,,
,Gloria Cervantes,001,2022-04-28_18h57.05.722,classification_task,2021.2.3,Win32,61.56877232,613a70774e42055f91081fc5,626b377229c10585ec392f8a,626b37bd3faadc900a728b5c,,,,,,,,,,,,,,,,,,,,,,,l,0,1.6093,"[""0.073"",""0.499"",""0.798"",""0.907""]","[0,1,1,1]",0,7,7,7,1,0,1,,,0,FALSE,,,,,,,,,,,,,,,,,,,,,,,,,,,,,,
,Gloria Cervantes,001,2022-04-28_18h57.05.722,classification_task,2021.2.3,Win32,61.56877232,613a70774e42055f91081fc5,626b377229c10585ec392f8a,626b37bd3faadc900a728b5c,,,,,,,,,,,,,,,,,,,,,,,a,1,0.6632,"[""0.175"",""0.089"",""0.867"",""0.946""]","[1,0,1,1]",0,8,8,8,1,0,0,,,0,FALSE,,,,,,,,,,,,,,,,,,,,,,,,,,,,,,
,Gloria Cervantes,001,2022-04-28_18h57.05.722,classification_task,2021.2.3,Win32,61.56877232,613a70774e42055f91081fc5,626b377229c10585ec392f8a,626b37bd3faadc900a728b5c,,,,,,,,,,,,,,,,,,,,,,,a,1,0.7278,"[""0.247"",""0.499"",""0.073"",""0.907""]","[1,1,0,1]",0,9,9,9,1,0,1,,,0,FALSE,,,,,,,,,,,,,,,,,,,,,,,,,,,,,,
,Gloria Cervantes,001,2022-04-28_18h57.05.722,classification_task,2021.2.3,Win32,61.56877232,613a70774e42055f91081fc5,626b377229c10585ec392f8a,626b37bd3faadc900a728b5c,,,,,,,,,,,,,,,,,,,,,,,a,1,0.997,"[""0.247"",""0.499"",""0.798"",""0.073""]","[1,1,1,0]",0,10,10,10,1,0,1,,,0,FALSE,,,,,,,,,,,,,,,,,,,,,,,,,,,,,,
,Gloria Cervantes,001,2022-04-28_18h57.05.722,classification_task,2021.2.3,Win32,61.56877232,613a70774e42055f91081fc5,626b377229c10585ec392f8a,626b37bd3faadc900a728b5c,,,,,,,,,,,,,,,,,,,,,,,a,1,0.6603,"[""0.286"",""0.547"",""0.867"",""0.946""]","[0,1,1,1]",0,11,11,11,1,0,0,,,0,FALSE,,,,,,,,,,,,,,,,,,,,,,,,,,,,,,
,Gloria Cervantes,001,2022-04-28_18h57.05.722,classification_task,2021.2.3,Win32,61.56877232,613a70774e42055f91081fc5,626b377229c10585ec392f8a,626b37bd3faadc900a728b5c,,,,,,,,,,,,,,,,,,,,,,,a,1,0.7319,"[""0.175"",""0.547"",""0.867"",""0.086""]","[1,1,1,0]",0,12,12,12,1,0,0,,,0,FALSE,,,,,,,,,,,,,,,,,,,,,,,,,,,,,,
,Gloria Cervantes,001,2022-04-28_18h57.05.722,classification_task,2021.2.3,Win32,61.56877232,613a70774e42055f91081fc5,626b377229c10585ec392f8a,626b37bd3faadc900a728b5c,,,,,,,,,,,,,,,,,,,,,,,l,1,1.4941,"[""0.638"",""0.425"",""0.463"",""0.833""]","[0,1,1,1]",0,13,13,13,1,1,1,,,0,FALSE,,,,,,,,,,,,,,,,,,,,,,,,,,,,,,
,Gloria Cervantes,001,2022-04-28_18h57.05.722,classification_task,2021.2.3,Win32,61.56877232,613a70774e42055f91081fc5,626b377229c10585ec392f8a,626b37bd3faadc900a728b5c,,,,,,,,,,,,,,,,,,,,,,,l,1,0.5677,"[""0.034"",""0.342"",""0.673"",""0.069""]","[1,1,1,0]",0,14,14,14,1,1,0,,,0,FALSE,,,,,,,,,,,,,,,,,,,,,,,,,,,,,,
,Gloria Cervantes,001,2022-04-28_18h57.05.722,classification_task,2021.2.3,Win32,61.56877232,613a70774e42055f91081fc5,626b377229c10585ec392f8a,626b37bd3faadc900a728b5c,,,,,,,,,,,,,,,,,,,,,,,l,1,1.0099,"[""0.130"",""0.755"",""0.463"",""0.833""]","[1,0,1,1]",0,15,15,15,1,1,1,,,0,FALSE,,,,,,,,,,,,,,,,,,,,,,,,,,,,,,
,Gloria Cervantes,001,2022-04-28_18h57.05.722,classification_task,2021.2.3,Win32,61.56877232,613a70774e42055f91081fc5,626b377229c10585ec392f8a,626b37bd3faadc900a728b5c,,,,,,,,,,,,,,,,,,,,,,,a,1,0.709,"[""0.391"",""0.547"",""0.867"",""0.946""]","[0,1,1,1]",0,16,16,16,1,0,0,,,0,FALSE,,,,,,,,,,,,,,,,,,,,,,,,,,,,,,
,Gloria Cervantes,001,2022-04-28_18h57.05.722,classification_task,2021.2.3,Win32,61.56877232,613a70774e42055f91081fc5,626b377229c10585ec392f8a,626b37bd3faadc900a728b5c,,,,,,,,,,,,,,,,,,,,,,,a,1,0.6184,"[""0.175"",""0.547"",""0.591"",""0.946""]","[1,1,0,1]",0,17,17,17,1,0,0,,,0,FALSE,,,,,,,,,,,,,,,,,,,,,,,,,,,,,,
,Gloria Cervantes,001,2022-04-28_18h57.05.722,classification_task,2021.2.3,Win32,61.56877232,613a70774e42055f91081fc5,626b377229c10585ec392f8a,626b37bd3faadc900a728b5c,,,,,,,,,,,,,,,,,,,,,,,a,0,0.9937,"[""0.130"",""0.425"",""0.625"",""0.833""]","[1,1,0,1]",0,18,18,18,1,1,1,,,0,FALSE,,,,,,,,,,,,,,,,,,,,,,,,,,,,,,
,Gloria Cervantes,001,2022-04-28_18h57.05.722,classification_task,2021.2.3,Win32,61.56877232,613a70774e42055f91081fc5,626b377229c10585ec392f8a,626b37bd3faadc900a728b5c,,,,,,,,,,,,,,,,,,,,,,,l,1,0.5785,"[""0.289"",""0.342"",""0.673"",""0.714""]","[0,1,1,1]",0,19,19,19,1,1,0,,,0,FALSE,,,,,,,,,,,,,,,,,,,,,,,,,,,,,,
,Gloria Cervantes,001,2022-04-28_18h57.05.722,classification_task,2021.2.3,Win32,61.56877232,613a70774e42055f91081fc5,626b377229c10585ec392f8a,626b37bd3faadc900a728b5c,,,,,,,,,,,,,,,,,,,,,,,l,1,0.5455,"[""0.130"",""0.077"",""0.463"",""0.833""]","[1,0,1,1]",0,20,20,20,1,1,1,,,0,FALSE,,,,,,,,,,,,,,,,,,,,,,,,,,,,,,
,Gloria Cervantes,001,2022-04-28_18h57.05.722,classification_task,2021.2.3,Win32,61.56877232,613a70774e42055f91081fc5,626b377229c10585ec392f8a,626b37bd3faadc900a728b5c,,,,,,,,,,,,,,,,,,,,,,,a,0,0.9317,"[""0.130"",""0.425"",""0.463"",""0.638""]","[1,1,1,0]",0,21,21,21,1,1,1,,,0,FALSE,,,,,,,,,,,,,,,,,,,,,,,,,,,,,,
,Gloria Cervantes,001,2022-04-28_18h57.05.722,classification_task,2021.2.3,Win32,61.56877232,613a70774e42055f91081fc5,626b377229c10585ec392f8a,626b37bd3faadc900a728b5c,,,,,,,,,,,,,,,,,,,,,,,a,1,0.6255,"[""0.175"",""0.547"",""0.867"",""0.755""]","[1,1,1,0]",0,22,22,22,1,0,0,,,0,FALSE,,,,,,,,,,,,,,,,,,,,,,,,,,,,,,
,Gloria Cervantes,001,2022-04-28_18h57.05.722,classification_task,2021.2.3,Win32,61.56877232,613a70774e42055f91081fc5,626b377229c10585ec392f8a,626b37bd3faadc900a728b5c,,,,,,,,,,,,,,,,,,,,,,,l,1,0.76,"[""0.591"",""0.425"",""0.463"",""0.833""]","[0,1,1,1]",0,23,23,23,1,1,1,,,0,FALSE,,,,,,,,,,,,,,,,,,,,,,,,,,,,,,
,Gloria Cervantes,001,2022-04-28_18h57.05.722,classification_task,2021.2.3,Win32,61.56877232,613a70774e42055f91081fc5,626b377229c10585ec392f8a,626b37bd3faadc900a728b5c,,,,,,,,,,,,,,,,,,,,,,,l,0,0.9325,"[""0.303"",""0.499"",""0.798"",""0.907""]","[0,1,1,1]",0,24,24,24,1,0,1,,,0,FALSE,,,,,,,,,,,,,,,,,,,,,,,,,,,,,,
,Gloria Cervantes,001,2022-04-28_18h57.05.722,classification_task,2021.2.3,Win32,61.56877232,613a70774e42055f91081fc5,626b377229c10585ec392f8a,626b37bd3faadc900a728b5c,,,,,,,,,,,,,,,,,,,,,,,l,1,0.6763,"[""0.034"",""0.342"",""0.591"",""0.714""]","[1,1,0,1]",0,25,25,25,1,1,0,,,0,FALSE,,,,,,,,,,,,,,,,,,,,,,,,,,,,,,
,Gloria Cervantes,001,2022-04-28_18h57.05.722,classification_task,2021.2.3,Win32,61.56877232,613a70774e42055f91081fc5,626b377229c10585ec392f8a,626b37bd3faadc900a728b5c,,,,,,,,,,,,,,,,,,,,,,,l,1,0.548,"[""0.034"",""0.342"",""0.673"",""0.591""]","[1,1,1,0]",0,26,26,26,1,1,0,,,0,FALSE,,,,,,,,,,,,,,,,,,,,,,,,,,,,,,
,Gloria Cervantes,001,2022-04-28_18h57.05.722,classification_task,2021.2.3,Win32,61.56877232,613a70774e42055f91081fc5,626b377229c10585ec392f8a,626b37bd3faadc900a728b5c,,,,,,,,,,,,,,,,,,,,,,,a,1,0.6808,"[""0.175"",""0.073"",""0.867"",""0.946""]","[1,0,1,1]",0,27,27,27,1,0,0,,,0,FALSE,,,,,,,,,,,,,,,,,,,,,,,,,,,,,,
,Gloria Cervantes,001,2022-04-28_18h57.05.722,classification_task,2021.2.3,Win32,61.56877232,613a70774e42055f91081fc5,626b377229c10585ec392f8a,626b37bd3faadc900a728b5c,,,,,,,,,,,,,,,,,,,,,,,l,1,0.649,"[""0.034"",""0.086"",""0.673"",""0.714""]","[1,0,1,1]",0,28,28,28,1,1,0,,,0,FALSE,,,,,,,,,,,,,,,,,,,,,,,,,,,,,,
,Gloria Cervantes,001,2022-04-28_18h57.05.722,classification_task,2021.2.3,Win32,61.56877232,613a70774e42055f91081fc5,626b377229c10585ec392f8a,626b37bd3faadc900a728b5c,,,,,,,,,,,,,,,,,,,,,,,a,1,0.9639,"[""0.247"",""0.499"",""0.798"",""0.289""]","[1,1,1,0]",0,29,29,29,1,0,1,,,0,FALSE,,,,,,,,,,,,,,,,,,,,,,,,,,,,,,
,Gloria Cervantes,001,2022-04-28_18h57.05.722,classification_task,2021.2.3,Win32,61.56877232,613a70774e42055f91081fc5,626b377229c10585ec392f8a,626b37bd3faadc900a728b5c,,,,,,,,,,,,,,,,,,,,,,,a,1,0.7637,"[""0.247"",""0.499"",""0.755"",""0.907""]","[1,1,0,1]",0,30,30,30,1,0,1,,,0,FALSE,,,,,,,,,,,,,,,,,,,,,,,,,,,,,,
,Gloria Cervantes,001,2022-04-28_18h57.05.722,classification_task,2021.2.3,Win32,61.56877232,613a70774e42055f91081fc5,626b377229c10585ec392f8a,626b37bd3faadc900a728b5c,,,,,,,,,,,,,,,,,,,,,,,l,0,1.2987,"[""0.247"",""0.303"",""0.798"",""0.907""]","[1,0,1,1]",0,31,31,31,1,0,1,,,0,FALSE,,,,,,,,,,,,,,,,,,,,,,,,,,,,,,
,Gloria Cervantes,001,2022-04-28_18h57.05.722,classification_task,2021.2.3,Win32,61.56877232,613a70774e42055f91081fc5,626b377229c10585ec392f8a,626b37bd3faadc900a728b5c,,,,,,,,,,,,,,,,,,,,,,,l,0,0.6613,"[""0.175"",""0.547"",""0.073"",""0.946""]","[1,1,0,1]",0,32,32,32,1,0,0,,,0,FALSE,,,,,,,,,,,,,,,,,,,,,,,,,,,,,,
,Gloria Cervantes,001,2022-04-28_18h57.05.722,classification_task,2021.2.3,Win32,61.56877232,613a70774e42055f91081fc5,626b377229c10585ec392f8a,626b37bd3faadc900a728b5c,,,,,,,,,,,,,,,,,,,,,,,a,1,0.9788,"[""0.247"",""0.591"",""0.798"",""0.907""]","[1,0,1,1]",0,33,33,33,1,0,1,,,0,FALSE,,,,,,,,,,,,,,,,,,,,,,,,,,,,,,
,Gloria Cervantes,001,2022-04-28_18h57.05.722,classification_task,2021.2.3,Win32,61.56877232,613a70774e42055f91081fc5,626b377229c10585ec392f8a,626b37bd3faadc900a728b5c,,,,,,,,,,,,,,,,,,,,,,,l,1,0.8769,"[""0.034"",""0.342"",""0.673"",""0.303""]","[1,1,1,0]",0,34,34,34,1,1,0,,,0,FALSE,,,,,,,,,,,,,,,,,,,,,,,,,,,,,,
,Gloria Cervantes,001,2022-04-28_18h57.05.722,classification_task,2021.2.3,Win32,61.56877232,613a70774e42055f91081fc5,626b377229c10585ec392f8a,626b37bd3faadc900a728b5c,,,,,,,,,,,,,,,,,,,,,,,a,1,0.5825,"[""0.069"",""0.547"",""0.867"",""0.946""]","[0,1,1,1]",0,35,35,35,1,0,0,,,0,FALSE,,,,,,,,,,,,,,,,,,,,,,,,,,,,,,
,Gloria Cervantes,001,2022-04-28_18h57.05.722,classification_task,2021.2.3,Win32,61.56877232,613a70774e42055f91081fc5,626b377229c10585ec392f8a,626b37bd3faadc900a728b5c,,,,,,,,,,,,,,,,,,,,,,,a,1,0.4486,"[""0.175"",""0.547"",""0.867"",""0.303""]","[1,1,1,0]",0,36,36,36,1,0,0,,,0,FALSE,,,,,,,,,,,,,,,,,,,,,,,,,,,,,,
,Gloria Cervantes,001,2022-04-28_18h57.05.722,classification_task,2021.2.3,Win32,61.56877232,613a70774e42055f91081fc5,626b377229c10585ec392f8a,626b37bd3faadc900a728b5c,,,,,,,,,,,,,,,,,,,,,,,a,1,1.2954,"[""0.247"",""0.499"",""0.286"",""0.907""]","[1,1,0,1]",0,37,37,37,1,0,1,,,0,FALSE,,,,,,,,,,,,,,,,,,,,,,,,,,,,,,
,Gloria Cervantes,001,2022-04-28_18h57.05.722,classification_task,2021.2.3,Win32,61.56877232,613a70774e42055f91081fc5,626b377229c10585ec392f8a,626b37bd3faadc900a728b5c,,,,,,,,,,,,,,,,,,,,,,,l,1,0.6453,"[""0.759"",""0.342"",""0.673"",""0.714""]","[0,1,1,1]",0,38,38,38,1,1,0,,,0,FALSE,,,,,,,,,,,,,,,,,,,,,,,,,,,,,,
,Gloria Cervantes,001,2022-04-28_18h57.05.722,classification_task,2021.2.3,Win32,61.56877232,613a70774e42055f91081fc5,626b377229c10585ec392f8a,626b37bd3faadc900a728b5c,,,,,,,,,,,,,,,,,,,,,,,l,1,1.7127,"[""0.130"",""0.425"",""0.463"",""0.626""]","[1,1,1,0]",0,39,39,39,1,1,1,,,0,FALSE,,,,,,,,,,,,,,,,,,,,,,,,,,,,,,
,Gloria Cervantes,001,2022-04-28_18h57.05.722,classification_task,2021.2.3,Win32,61.56877232,613a70774e42055f91081fc5,626b377229c10585ec392f8a,626b37bd3faadc900a728b5c,,,,,,,,,,,,,,,,,,,,,,,l,0,0.8993,"[""0.755"",""0.499"",""0.798"",""0.907""]","[0,1,1,1]",0,40,40,40,1,0,1,,,0,FALSE,,,,,,,,,,,,,,,,,,,,,,,,,,,,,,
,Gloria Cervantes,001,2022-04-28_18h57.05.722,classification_task,2021.2.3,Win32,61.56877232,613a70774e42055f91081fc5,626b377229c10585ec392f8a,626b37bd3faadc900a728b5c,,,,,,,,,,,,,,,,,,,,,,,l,1,1.1459,"[""0.069"",""0.425"",""0.463"",""0.833""]","[0,1,1,1]",0,41,41,41,1,1,1,,,0,FALSE,,,,,,,,,,,,,,,,,,,,,,,,,,,,,,
,Gloria Cervantes,001,2022-04-28_18h57.05.722,classification_task,2021.2.3,Win32,61.56877232,613a70774e42055f91081fc5,626b377229c10585ec392f8a,626b37bd3faadc900a728b5c,,,,,,,,,,,,,,,,,,,,,,,l,1,0.8481,"[""0.034"",""0.342"",""0.069"",""0.714""]","[1,1,0,1]",0,42,42,42,1,1,0,,,0,FALSE,,,,,,,,,,,,,,,,,,,,,,,,,,,,,,
,Gloria Cervantes,001,2022-04-28_18h57.05.722,classification_task,2021.2.3,Win32,61.56877232,613a70774e42055f91081fc5,626b377229c10585ec392f8a,626b37bd3faadc900a728b5c,,,,,,,,,,,,,,,,,,,,,,,l,1,0.7593,"[""0.034"",""0.626"",""0.673"",""0.714""]","[1,0,1,1]",0,43,43,43,1,1,0,,,0,FALSE,,,,,,,,,,,,,,,,,,,,,,,,,,,,,,
,Gloria Cervantes,001,2022-04-28_18h57.05.722,classification_task,2021.2.3,Win32,61.56877232,613a70774e42055f91081fc5,626b377229c10585ec392f8a,626b37bd3faadc900a728b5c,,,,,,,,,,,,,,,,,,,,,,,a,0,0.5313,"[""0.130"",""0.086"",""0.463"",""0.833""]","[1,0,1,1]",0,44,44,44,1,1,1,,,0,FALSE,,,,,,,,,,,,,,,,,,,,,,,,,,,,,,
,Gloria Cervantes,001,2022-04-28_18h57.05.722,classification_task,2021.2.3,Win32,61.56877232,613a70774e42055f91081fc5,626b377229c10585ec392f8a,626b37bd3faadc900a728b5c,,,,,,,,,,,,,,,,,,,,,,,a,1,0.7323,"[""0.247"",""0.499"",""0.798"",""0.073""]","[1,1,1,0]",0,45,45,45,1,0,1,,,0,FALSE,,,,,,,,,,,,,,,,,,,,,,,,,,,,,,
,Gloria Cervantes,001,2022-04-28_18h57.05.722,classification_task,2021.2.3,Win32,61.56877232,613a70774e42055f91081fc5,626b377229c10585ec392f8a,626b37bd3faadc900a728b5c,,,,,,,,,,,,,,,,,,,,,,,l,1,0.5158,"[""0.130"",""0.425"",""0.591"",""0.833""]","[1,1,0,1]",0,46,46,46,1,1,1,,,0,FALSE,,,,,,,,,,,,,,,,,,,,,,,,,,,,,,
,Gloria Cervantes,001,2022-04-28_18h57.05.722,classification_task,2021.2.3,Win32,61.56877232,613a70774e42055f91081fc5,626b377229c10585ec392f8a,626b37bd3faadc900a728b5c,,,,,,,,,,,,,,,,,,,,,,,a,1,0.7946,"[""0.175"",""0.591"",""0.867"",""0.946""]","[1,0,1,1]",0,47,47,47,1,0,0,,,0,FALSE,,,,,,,,,,,,,,,,,,,,,,,,,,,,,,
,Gloria Cervantes,001,2022-04-28_18h57.05.722,classification_task,2021.2.3,Win32,61.56877232,613a70774e42055f91081fc5,626b377229c10585ec392f8a,626b37bd3faadc900a728b5c,,,,,,,,,,,,,,,,,,,,,,,a,1,2.7144,"[""0.175"",""0.547"",""0.591"",""0.946""]","[1,1,0,1]",0,48,48,48,1,0,0,,,0,FALSE,,,,,,,,,,,,,,,,,,,,,,,,,,,,,,
,Gloria Cervantes,001,2022-04-28_18h57.05.722,classification_task,2021.2.3,Win32,61.56877232,613a70774e42055f91081fc5,626b377229c10585ec392f8a,626b37bd3faadc900a728b5c,,,,,,,,,,,,,,,,,,,,,,,a,0,1.2505,"[""0.130"",""0.425"",""0.625"",""0.833""]","[1,1,0,1]",0,49,49,49,1,1,1,,,0,FALSE,,,,,,,,,,,,,,,,,,,,,,,,,,,,,,
,Gloria Cervantes,001,2022-04-28_18h57.05.722,classification_task,2021.2.3,Win32,61.56877232,613a70774e42055f91081fc5,626b377229c10585ec392f8a,626b37bd3faadc900a728b5c,,,,,,,,,,,,,,,,,,,,,,,a,0,0.9989,"[""0.130"",""0.086"",""0.463"",""0.833""]","[1,0,1,1]",0,50,50,50,1,1,1,,,0,FALSE,,,,,,,,,,,,,,,,,,,,,,,,,,,,,,
,Gloria Cervantes,001,2022-04-28_18h57.05.722,classification_task,2021.2.3,Win32,61.56877232,613a70774e42055f91081fc5,626b377229c10585ec392f8a,626b37bd3faadc900a728b5c,,,,,,,,,,,,,,,,,,,,,,,a,1,0.8306,"[""0.175"",""0.286"",""0.867"",""0.946""]","[1,0,1,1]",0,51,51,51,1,0,0,,,0,FALSE,,,,,,,,,,,,,,,,,,,,,,,,,,,,,,
,Gloria Cervantes,001,2022-04-28_18h57.05.722,classification_task,2021.2.3,Win32,61.56877232,613a70774e42055f91081fc5,626b377229c10585ec392f8a,626b37bd3faadc900a728b5c,,,,,,,,,,,,,,,,,,,,,,,l,1,0.8312,"[""0.034"",""0.591"",""0.673"",""0.714""]","[1,0,1,1]",0,52,52,52,1,1,0,,,0,FALSE,,,,,,,,,,,,,,,,,,,,,,,,,,,,,,
,Gloria Cervantes,001,2022-04-28_18h57.05.722,classification_task,2021.2.3,Win32,61.56877232,613a70774e42055f91081fc5,626b377229c10585ec392f8a,626b37bd3faadc900a728b5c,,,,,,,,,,,,,,,,,,,,,,,a,1,0.6146,"[""0.626"",""0.547"",""0.867"",""0.946""]","[0,1,1,1]",0,53,53,53,1,0,0,,,0,FALSE,,,,,,,,,,,,,,,,,,,,,,,,,,,,,,
,Gloria Cervantes,001,2022-04-28_18h57.05.722,classification_task,2021.2.3,Win32,61.56877232,613a70774e42055f91081fc5,626b377229c10585ec392f8a,626b37bd3faadc900a728b5c,,,,,,,,,,,,,,,,,,,,,,,l,1,0.711,"[""0.286"",""0.425"",""0.463"",""0.833""]","[0,1,1,1]",0,54,54,54,1,1,1,,,0,FALSE,,,,,,,,,,,,,,,,,,,,,,,,,,,,,,
,Gloria Cervantes,001,2022-04-28_18h57.05.722,classification_task,2021.2.3,Win32,61.56877232,613a70774e42055f91081fc5,626b377229c10585ec392f8a,626b37bd3faadc900a728b5c,,,,,,,,,,,,,,,,,,,,,,,l,1,0.5834,"[""0.130"",""0.425"",""0.463"",""0.638""]","[1,1,1,0]",0,55,55,55,1,1,1,,,0,FALSE,,,,,,,,,,,,,,,,,,,,,,,,,,,,,,
,Gloria Cervantes,001,2022-04-28_18h57.05.722,classification_task,2021.2.3,Win32,61.56877232,613a70774e42055f91081fc5,626b377229c10585ec392f8a,626b37bd3faadc900a728b5c,,,,,,,,,,,,,,,,,,,,,,,a,1,0.9995,"[""0.625"",""0.499"",""0.798"",""0.907""]","[0,1,1,1]",0,56,56,56,1,0,1,,,0,FALSE,,,,,,,,,,,,,,,,,,,,,,,,,,,,,,
,Gloria Cervantes,001,2022-04-28_18h57.05.722,classification_task,2021.2.3,Win32,61.56877232,613a70774e42055f91081fc5,626b377229c10585ec392f8a,626b37bd3faadc900a728b5c,,,,,,,,,,,,,,,,,,,,,,,l,0,0.9297,"[""0.247"",""0.499"",""0.798"",""0.073""]","[1,1,1,0]",0,57,57,57,1,0,1,,,0,FALSE,,,,,,,,,,,,,,,,,,,,,,,,,,,,,,
,Gloria Cervantes,001,2022-04-28_18h57.05.722,classification_task,2021.2.3,Win32,61.56877232,613a70774e42055f91081fc5,626b377229c10585ec392f8a,626b37bd3faadc900a728b5c,,,,,,,,,,,,,,,,,,,,,,,l,1,0.7964,"[""0.086"",""0.342"",""0.673"",""0.714""]","[0,1,1,1]",0,58,58,58,1,1,0,,,0,FALSE,,,,,,,,,,,,,,,,,,,,,,,,,,,,,,
,Gloria Cervantes,001,2022-04-28_18h57.05.722,classification_task,2021.2.3,Win32,61.56877232,613a70774e42055f91081fc5,626b377229c10585ec392f8a,626b37bd3faadc900a728b5c,,,,,,,,,,,,,,,,,,,,,,,l,1,0.8306,"[""0.034"",""0.342"",""0.673"",""0.303""]","[1,1,1,0]",0,59,59,59,1,1,0,,,0,FALSE,,,,,,,,,,,,,,,,,,,,,,,,,,,,,,
,Gloria Cervantes,001,2022-04-28_18h57.05.722,classification_task,2021.2.3,Win32,61.56877232,613a70774e42055f91081fc5,626b377229c10585ec392f8a,626b37bd3faadc900a728b5c,,,,,,,,,,,,,,,,,,,,,,,a,1,1.2944,"[""0.247"",""0.638"",""0.798"",""0.907""]","[1,0,1,1]",0,60,60,60,1,0,1,,,0,FALSE,,,,,,,,,,,,,,,,,,,,,,,,,,,,,,
,Gloria Cervantes,001,2022-04-28_18h57.05.722,classification_task,2021.2.3,Win32,61.56877232,613a70774e42055f91081fc5,626b377229c10585ec392f8a,626b37bd3faadc900a728b5c,,,,,,,,,,,,,,,,,,,,,,,a,1,0.7348,"[""0.247"",""0.499"",""0.759"",""0.907""]","[1,1,0,1]",0,61,61,61,1,0,1,,,0,FALSE,,,,,,,,,,,,,,,,,,,,,,,,,,,,,,
,Gloria Cervantes,001,2022-04-28_18h57.05.722,classification_task,2021.2.3,Win32,61.56877232,613a70774e42055f91081fc5,626b377229c10585ec392f8a,626b37bd3faadc900a728b5c,,,,,,,,,,,,,,,,,,,,,,,a,1,0.6594,"[""0.175"",""0.547"",""0.867"",""0.286""]","[1,1,1,0]",0,62,62,62,1,0,0,,,0,FALSE,,,,,,,,,,,,,,,,,,,,,,,,,,,,,,
,Gloria Cervantes,001,2022-04-28_18h57.05.722,classification_task,2021.2.3,Win32,61.56877232,613a70774e42055f91081fc5,626b377229c10585ec392f8a,626b37bd3faadc900a728b5c,,,,,,,,,,,,,,,,,,,,,,,l,1,1.0641,"[""0.034"",""0.342"",""0.759"",""0.714""]","[1,1,0,1]",0,63,63,63,1,1,0,,,0,FALSE,,,,,,,,,,,,,,,,,,,,,,,,,,,,,,
,Gloria Cervantes,001,2022-04-28_18h57.05.722,classification_task,2021.2.3,Win32,61.56877232,613a70774e42055f91081fc5,626b377229c10585ec392f8a,626b37bd3faadc900a728b5c,,,,,,,,,,,,,,,,,,,,,,,,,,,,,,,,,,,,,,,0, ,,0,,,0,1,1,1,1,2,2,,,,,,,,,,,,,,,,,
,Gloria Cervantes,001,2022-04-28_18h57.05.722,classification_task,2021.2.3,Win32,61.56877232,613a70774e42055f91081fc5,626b377229c10585ec392f8a,626b37bd3faadc900a728b5c,,,,,,,,,,,,,,,,,,,,,,,,,,,,,,,,,,,,,,,1,  ,,0,,,0,1,1,1,1,2,2,,,,,,,,,,,,,,,,,
,Gloria Cervantes,001,2022-04-28_18h57.05.722,classification_task,2021.2.3,Win32,61.56877232,613a70774e42055f91081fc5,626b377229c10585ec392f8a,626b37bd3faadc900a728b5c,,,,,,,,,,,,,,,,,,,,,,,,,,,,,,,,,,,,,,,2,  ,,0,,,0,1,1,1,1,2,2,,,,,,,,,,,,,,,,,
,Gloria Cervantes,001,2022-04-28_18h57.05.722,classification_task,2021.2.3,Win32,61.56877232,613a70774e42055f91081fc5,626b377229c10585ec392f8a,626b37bd3faadc900a728b5c,,,,,,,,,,,,,,,,,,,,,,,,,,,,,,,,,,,,,,,,,,,,,0,1,1,1,1,,2,,,,,,,,,,,,,,,,,
,Gloria Cervantes,001,2022-04-28_18h57.05.722,classification_task,2021.2.3,Win32,61.56877232,613a70774e42055f91081fc5,626b377229c10585ec392f8a,626b37bd3faadc900a728b5c,,,,,,,,,,,,,,,,,,,,,space,9.0853,a,0,1.0843,"[""0.130"",""0.425"",""0.463"",""0.626""]","[1,1,1,0]",0,0,0,0,1,1,1,,,0,FALSE,,,,,,,,,,,,,,,,,,,,,,,,,,,,,,
,Gloria Cervantes,001,2022-04-28_18h57.05.722,classification_task,2021.2.3,Win32,61.56877232,613a70774e42055f91081fc5,626b377229c10585ec392f8a,626b37bd3faadc900a728b5c,,,,,,,,,,,,,,,,,,,,,,,a,0,1.7811,"[""0.086"",""0.425"",""0.463"",""0.833""]","[0,1,1,1]",0,1,1,1,1,1,1,,,0,FALSE,,,,,,,,,,,,,,,,,,,,,,,,,,,,,,
,Gloria Cervantes,001,2022-04-28_18h57.05.722,classification_task,2021.2.3,Win32,61.56877232,613a70774e42055f91081fc5,626b377229c10585ec392f8a,626b37bd3faadc900a728b5c,,,,,,,,,,,,,,,,,,,,,,,l,0,1.6628,"[""0.175"",""0.547"",""0.591"",""0.946""]","[1,1,0,1]",0,2,2,2,1,0,0,,,0,FALSE,,,,,,,,,,,,,,,,,,,,,,,,,,,,,,
,Gloria Cervantes,001,2022-04-28_18h57.05.722,classification_task,2021.2.3,Win32,61.56877232,613a70774e42055f91081fc5,626b377229c10585ec392f8a,626b37bd3faadc900a728b5c,,,,,,,,,,,,,,,,,,,,,,,l,0,1.2392,"[""0.247"",""0.499"",""0.798"",""0.289""]","[1,1,1,0]",0,3,3,3,1,0,1,,,0,FALSE,,,,,,,,,,,,,,,,,,,,,,,,,,,,,,
,Gloria Cervantes,001,2022-04-28_18h57.05.722,classification_task,2021.2.3,Win32,61.56877232,613a70774e42055f91081fc5,626b377229c10585ec392f8a,626b37bd3faadc900a728b5c,,,,,,,,,,,,,,,,,,,,,,,a,0,0.4175,"[""0.130"",""0.625"",""0.463"",""0.833""]","[1,0,1,1]",0,4,4,4,1,1,1,,,0,FALSE,,,,,,,,,,,,,,,,,,,,,,,,,,,,,,
,Gloria Cervantes,001,2022-04-28_18h57.05.722,classification_task,2021.2.3,Win32,61.56877232,613a70774e42055f91081fc5,626b377229c10585ec392f8a,626b37bd3faadc900a728b5c,,,,,,,,,,,,,,,,,,,,,,,a,1,0.7658,"[""0.175"",""0.286"",""0.867"",""0.946""]","[1,0,1,1]",0,5,5,5,1,0,0,,,0,FALSE,,,,,,,,,,,,,,,,,,,,,,,,,,,,,,
,Gloria Cervantes,001,2022-04-28_18h57.05.722,classification_task,2021.2.3,Win32,61.56877232,613a70774e42055f91081fc5,626b377229c10585ec392f8a,626b37bd3faadc900a728b5c,,,,,,,,,,,,,,,,,,,,,,,a,1,2.3454,"[""0.175"",""0.547"",""0.867"",""0.755""]","[1,1,1,0]",0,6,6,6,1,0,0,,,0,FALSE,,,,,,,,,,,,,,,,,,,,,,,,,,,,,,
,Gloria Cervantes,001,2022-04-28_18h57.05.722,classification_task,2021.2.3,Win32,61.56877232,613a70774e42055f91081fc5,626b377229c10585ec392f8a,626b37bd3faadc900a728b5c,,,,,,,,,,,,,,,,,,,,,,,l,1,1.5796,"[""0.034"",""0.342"",""0.289"",""0.714""]","[1,1,0,1]",0,7,7,7,1,1,0,,,0,FALSE,,,,,,,,,,,,,,,,,,,,,,,,,,,,,,
,Gloria Cervantes,001,2022-04-28_18h57.05.722,classification_task,2021.2.3,Win32,61.56877232,613a70774e42055f91081fc5,626b377229c10585ec392f8a,626b37bd3faadc900a728b5c,,,,,,,,,,,,,,,,,,,,,,,l,0,1.5831,"[""0.073"",""0.547"",""0.867"",""0.946""]","[0,1,1,1]",0,8,8,8,1,0,0,,,0,FALSE,,,,,,,,,,,,,,,,,,,,,,,,,,,,,,
,Gloria Cervantes,001,2022-04-28_18h57.05.722,classification_task,2021.2.3,Win32,61.56877232,613a70774e42055f91081fc5,626b377229c10585ec392f8a,626b37bd3faadc900a728b5c,,,,,,,,,,,,,,,,,,,,,,,a,1,0.9811,"[""0.247"",""0.499"",""0.625"",""0.907""]","[1,1,0,1]",0,9,9,9,1,0,1,,,0,FALSE,,,,,,,,,,,,,,,,,,,,,,,,,,,,,,
,Gloria Cervantes,001,2022-04-28_18h57.05.722,classification_task,2021.2.3,Win32,61.56877232,613a70774e42055f91081fc5,626b377229c10585ec392f8a,626b37bd3faadc900a728b5c,,,,,,,,,,,,,,,,,,,,,,,l,1,1.7141,"[""0.034"",""0.625"",""0.673"",""0.714""]","[1,0,1,1]",0,10,10,10,1,1,0,,,0,FALSE,,,,,,,,,,,,,,,,,,,,,,,,,,,,,,
,Gloria Cervantes,001,2022-04-28_18h57.05.722,classification_task,2021.2.3,Win32,61.56877232,613a70774e42055f91081fc5,626b377229c10585ec392f8a,626b37bd3faadc900a728b5c,,,,,,,,,,,,,,,,,,,,,,,a,0,1.175,"[""0.307"",""0.342"",""0.673"",""0.714""]","[0,1,1,1]",0,11,11,11,1,1,0,,,0,FALSE,,,,,,,,,,,,,,,,,,,,,,,,,,,,,,
,Gloria Cervantes,001,2022-04-28_18h57.05.722,classification_task,2021.2.3,Win32,61.56877232,613a70774e42055f91081fc5,626b377229c10585ec392f8a,626b37bd3faadc900a728b5c,,,,,,,,,,,,,,,,,,,,,,,a,1,0.9811,"[""0.247"",""0.077"",""0.798"",""0.907""]","[1,0,1,1]",0,12,12,12,1,0,1,,,0,FALSE,,,,,,,,,,,,,,,,,,,,,,,,,,,,,,
,Gloria Cervantes,001,2022-04-28_18h57.05.722,classification_task,2021.2.3,Win32,61.56877232,613a70774e42055f91081fc5,626b377229c10585ec392f8a,626b37bd3faadc900a728b5c,,,,,,,,,,,,,,,,,,,,,,,l,1,0.7632,"[""0.130"",""0.425"",""0.289"",""0.833""]","[1,1,0,1]",0,13,13,13,1,1,1,,,0,FALSE,,,,,,,,,,,,,,,,,,,,,,,,,,,,,,
,Gloria Cervantes,001,2022-04-28_18h57.05.722,classification_task,2021.2.3,Win32,61.56877232,613a70774e42055f91081fc5,626b377229c10585ec392f8a,626b37bd3faadc900a728b5c,,,,,,,,,,,,,,,,,,,,,,,l,0,1.8145,"[""0.286"",""0.499"",""0.798"",""0.907""]","[0,1,1,1]",0,14,14,14,1,0,1,,,0,FALSE,,,,,,,,,,,,,,,,,,,,,,,,,,,,,,
,Gloria Cervantes,001,2022-04-28_18h57.05.722,classification_task,2021.2.3,Win32,61.56877232,613a70774e42055f91081fc5,626b377229c10585ec392f8a,626b37bd3faadc900a728b5c,,,,,,,,,,,,,,,,,,,,,,,l,1,1.2505,"[""0.034"",""0.342"",""0.673"",""0.638""]","[1,1,1,0]",0,15,15,15,1,1,0,,,0,FALSE,,,,,,,,,,,,,,,,,,,,,,,,,,,,,,
,Gloria Cervantes,001,2022-04-28_18h57.05.722,classification_task,2021.2.3,Win32,61.56877232,613a70774e42055f91081fc5,626b377229c10585ec392f8a,626b37bd3faadc900a728b5c,,,,,,,,,,,,,,,,,,,,,,,a,1,0.8992,"[""0.591"",""0.499"",""0.798"",""0.907""]","[0,1,1,1]",0,16,16,16,1,0,1,,,0,FALSE,,,,,,,,,,,,,,,,,,,,,,,,,,,,,,
,Gloria Cervantes,001,2022-04-28_18h57.05.722,classification_task,2021.2.3,Win32,61.56877232,613a70774e42055f91081fc5,626b377229c10585ec392f8a,626b37bd3faadc900a728b5c,,,,,,,,,,,,,,,,,,,,,,,l,0,0.7476,"[""0.175"",""0.547"",""0.867"",""0.591""]","[1,1,1,0]",0,17,17,17,1,0,0,,,0,FALSE,,,,,,,,,,,,,,,,,,,,,,,,,,,,,,
,Gloria Cervantes,001,2022-04-28_18h57.05.722,classification_task,2021.2.3,Win32,61.56877232,613a70774e42055f91081fc5,626b377229c10585ec392f8a,626b37bd3faadc900a728b5c,,,,,,,,,,,,,,,,,,,,,,,a,0,1.8449,"[""0.130"",""0.425"",""0.463"",""0.089""]","[1,1,1,0]",0,18,18,18,1,1,1,,,0,FALSE,,,,,,,,,,,,,,,,,,,,,,,,,,,,,,
,Gloria Cervantes,001,2022-04-28_18h57.05.722,classification_task,2021.2.3,Win32,61.56877232,613a70774e42055f91081fc5,626b377229c10585ec392f8a,626b37bd3faadc900a728b5c,,,,,,,,,,,,,,,,,,,,,,,l,1,1.4034,"[""0.034"",""0.755"",""0.673"",""0.714""]","[1,0,1,1]",0,19,19,19,1,1,0,,,0,FALSE,,,,,,,,,,,,,,,,,,,,,,,,,,,,,,
,Gloria Cervantes,001,2022-04-28_18h57.05.722,classification_task,2021.2.3,Win32,61.56877232,613a70774e42055f91081fc5,626b377229c10585ec392f8a,626b37bd3faadc900a728b5c,,,,,,,,,,,,,,,,,,,,,,,a,1,1.4972,"[""0.247"",""0.499"",""0.073"",""0.907""]","[1,1,0,1]",0,20,20,20,1,0,1,,,0,FALSE,,,,,,,,,,,,,,,,,,,,,,,,,,,,,,
,Gloria Cervantes,001,2022-04-28_18h57.05.722,classification_task,2021.2.3,Win32,61.56877232,613a70774e42055f91081fc5,626b377229c10585ec392f8a,626b37bd3faadc900a728b5c,,,,,,,,,,,,,,,,,,,,,,,l,0,0.3675,"[""0.247"",""0.499"",""0.798"",""0.069""]","[1,1,1,0]",0,21,21,21,1,0,1,,,0,FALSE,,,,,,,,,,,,,,,,,,,,,,,,,,,,,,
,Gloria Cervantes,001,2022-04-28_18h57.05.722,classification_task,2021.2.3,Win32,61.56877232,613a70774e42055f91081fc5,626b377229c10585ec392f8a,626b37bd3faadc900a728b5c,,,,,,,,,,,,,,,,,,,,,,,l,1,0.8657,"[""0.130"",""0.425"",""0.626"",""0.833""]","[1,1,0,1]",0,22,22,22,1,1,1,,,0,FALSE,,,,,,,,,,,,,,,,,,,,,,,,,,,,,,
,Gloria Cervantes,001,2022-04-28_18h57.05.722,classification_task,2021.2.3,Win32,61.56877232,613a70774e42055f91081fc5,626b377229c10585ec392f8a,626b37bd3faadc900a728b5c,,,,,,,,,,,,,,,,,,,,,,,l,1,0.8657,"[""0.626"",""0.342"",""0.673"",""0.714""]","[0,1,1,1]",0,23,23,23,1,1,0,,,0,FALSE,,,,,,,,,,,,,,,,,,,,,,,,,,,,,,
,Gloria Cervantes,001,2022-04-28_18h57.05.722,classification_task,2021.2.3,Win32,61.56877232,613a70774e42055f91081fc5,626b377229c10585ec392f8a,626b37bd3faadc900a728b5c,,,,,,,,,,,,,,,,,,,,,,,a,0,0.6311,"[""0.130"",""0.086"",""0.463"",""0.833""]","[1,0,1,1]",0,24,24,24,1,1,1,,,0,FALSE,,,,,,,,,,,,,,,,,,,,,,,,,,,,,,
,Gloria Cervantes,001,2022-04-28_18h57.05.722,classification_task,2021.2.3,Win32,61.56877232,613a70774e42055f91081fc5,626b377229c10585ec392f8a,626b37bd3faadc900a728b5c,,,,,,,,,,,,,,,,,,,,,,,a,1,1.0826,"[""0.247"",""0.625"",""0.798"",""0.907""]","[1,0,1,1]",0,25,25,25,1,0,1,,,0,FALSE,,,,,,,,,,,,,,,,,,,,,,,,,,,,,,
,Gloria Cervantes,001,2022-04-28_18h57.05.722,classification_task,2021.2.3,Win32,61.56877232,613a70774e42055f91081fc5,626b377229c10585ec392f8a,626b37bd3faadc900a728b5c,,,,,,,,,,,,,,,,,,,,,,,a,0,1.0482,"[""0.034"",""0.342"",""0.755"",""0.714""]","[1,1,0,1]",0,26,26,26,1,1,0,,,0,FALSE,,,,,,,,,,,,,,,,,,,,,,,,,,,,,,
,Gloria Cervantes,001,2022-04-28_18h57.05.722,classification_task,2021.2.3,Win32,61.56877232,613a70774e42055f91081fc5,626b377229c10585ec392f8a,626b37bd3faadc900a728b5c,,,,,,,,,,,,,,,,,,,,,,,a,1,0.815,"[""0.175"",""0.077"",""0.867"",""0.946""]","[1,0,1,1]",0,27,27,27,1,0,0,,,0,FALSE,,,,,,,,,,,,,,,,,,,,,,,,,,,,,,
,Gloria Cervantes,001,2022-04-28_18h57.05.722,classification_task,2021.2.3,Win32,61.56877232,613a70774e42055f91081fc5,626b377229c10585ec392f8a,626b37bd3faadc900a728b5c,,,,,,,,,,,,,,,,,,,,,,,l,1,0.4487,"[""0.077"",""0.425"",""0.463"",""0.833""]","[0,1,1,1]",0,28,28,28,1,1,1,,,0,FALSE,,,,,,,,,,,,,,,,,,,,,,,,,,,,,,
,Gloria Cervantes,001,2022-04-28_18h57.05.722,classification_task,2021.2.3,Win32,61.56877232,613a70774e42055f91081fc5,626b377229c10585ec392f8a,626b37bd3faadc900a728b5c,,,,,,,,,,,,,,,,,,,,,,,l,0,0.6168,"[""0.175"",""0.547"",""0.286"",""0.946""]","[1,1,0,1]",0,29,29,29,1,0,0,,,0,FALSE,,,,,,,,,,,,,,,,,,,,,,,,,,,,,,
,Gloria Cervantes,001,2022-04-28_18h57.05.722,classification_task,2021.2.3,Win32,61.56877232,613a70774e42055f91081fc5,626b377229c10585ec392f8a,626b37bd3faadc900a728b5c,,,,,,,,,,,,,,,,,,,,,,,l,1,0.9811,"[""0.034"",""0.342"",""0.673"",""0.759""]","[1,1,1,0]",0,30,30,30,1,1,0,,,0,FALSE,,,,,,,,,,,,,,,,,,,,,,,,,,,,,,
,Gloria Cervantes,001,2022-04-28_18h57.05.722,classification_task,2021.2.3,Win32,61.56877232,613a70774e42055f91081fc5,626b377229c10585ec392f8a,626b37bd3faadc900a728b5c,,,,,,,,,,,,,,,,,,,,,,,l,0,1.0813,"[""0.638"",""0.547"",""0.867"",""0.946""]","[0,1,1,1]",0,31,31,31,1,0,0,,,0,FALSE,,,,,,,,,,,,,,,,,,,,,,,,,,,,,,
,Gloria Cervantes,001,2022-04-28_18h57.05.722,classification_task,2021.2.3,Win32,61.56877232,613a70774e42055f91081fc5,626b377229c10585ec392f8a,626b37bd3faadc900a728b5c,,,,,,,,,,,,,,,,,,,,,,,l,0,0.8472,"[""0.247"",""0.303"",""0.798"",""0.907""]","[1,0,1,1]",0,32,32,32,1,0,1,,,0,FALSE,,,,,,,,,,,,,,,,,,,,,,,,,,,,,,
,Gloria Cervantes,001,2022-04-28_18h57.05.722,classification_task,2021.2.3,Win32,61.56877232,613a70774e42055f91081fc5,626b377229c10585ec392f8a,626b37bd3faadc900a728b5c,,,,,,,,,,,,,,,,,,,,,,,a,0,0.5347,"[""0.130"",""0.425"",""0.463"",""0.303""]","[1,1,1,0]",0,33,33,33,1,1,1,,,0,FALSE,,,,,,,,,,,,,,,,,,,,,,,,,,,,,,
,Gloria Cervantes,001,2022-04-28_18h57.05.722,classification_task,2021.2.3,Win32,61.56877232,613a70774e42055f91081fc5,626b377229c10585ec392f8a,626b37bd3faadc900a728b5c,,,,,,,,,,,,,,,,,,,,,,,a,1,0.6175,"[""0.175"",""0.547"",""0.638"",""0.946""]","[1,1,0,1]",0,34,34,34,1,0,0,,,0,FALSE,,,,,,,,,,,,,,,,,,,,,,,,,,,,,,
,Gloria Cervantes,001,2022-04-28_18h57.05.722,classification_task,2021.2.3,Win32,61.56877232,613a70774e42055f91081fc5,626b377229c10585ec392f8a,626b37bd3faadc900a728b5c,,,,,,,,,,,,,,,,,,,,,,,a,1,0.5649,"[""0.289"",""0.547"",""0.867"",""0.946""]","[0,1,1,1]",0,35,35,35,1,0,0,,,0,FALSE,,,,,,,,,,,,,,,,,,,,,,,,,,,,,,
,Gloria Cervantes,001,2022-04-28_18h57.05.722,classification_task,2021.2.3,Win32,61.56877232,613a70774e42055f91081fc5,626b377229c10585ec392f8a,626b37bd3faadc900a728b5c,,,,,,,,,,,,,,,,,,,,,,,l,0,0.466,"[""0.247"",""0.499"",""0.625"",""0.907""]","[1,1,0,1]",0,36,36,36,1,0,1,,,0,FALSE,,,,,,,,,,,,,,,,,,,,,,,,,,,,,,
,Gloria Cervantes,001,2022-04-28_18h57.05.722,classification_task,2021.2.3,Win32,61.56877232,613a70774e42055f91081fc5,626b377229c10585ec392f8a,626b37bd3faadc900a728b5c,,,,,,,,,,,,,,,,,,,,,,,a,0,0.4159,"[""0.130"",""0.425"",""0.077"",""0.833""]","[1,1,0,1]",0,37,37,37,1,1,1,,,0,FALSE,,,,,,,,,,,,,,,,,,,,,,,,,,,,,,
,Gloria Cervantes,001,2022-04-28_18h57.05.722,classification_task,2021.2.3,Win32,61.56877232,613a70774e42055f91081fc5,626b377229c10585ec392f8a,626b37bd3faadc900a728b5c,,,,,,,,,,,,,,,,,,,,,,,a,1,0.399,"[""0.086"",""0.499"",""0.798"",""0.907""]","[0,1,1,1]",0,38,38,38,1,0,1,,,0,FALSE,,,,,,,,,,,,,,,,,,,,,,,,,,,,,,
,Gloria Cervantes,001,2022-04-28_18h57.05.722,classification_task,2021.2.3,Win32,61.56877232,613a70774e42055f91081fc5,626b377229c10585ec392f8a,626b37bd3faadc900a728b5c,,,,,,,,,,,,,,,,,,,,,,,l,0,0.6693,"[""0.175"",""0.547"",""0.867"",""0.069""]","[1,1,1,0]",0,39,39,39,1,0,0,,,0,FALSE,,,,,,,,,,,,,,,,,,,,,,,,,,,,,,
,Gloria Cervantes,001,2022-04-28_18h57.05.722,classification_task,2021.2.3,Win32,61.56877232,613a70774e42055f91081fc5,626b377229c10585ec392f8a,626b37bd3faadc900a728b5c,,,,,,,,,,,,,,,,,,,,,,,a,0,0.3814,"[""0.034"",""0.342"",""0.759"",""0.714""]","[1,1,0,1]",0,40,40,40,1,1,0,,,0,FALSE,,,,,,,,,,,,,,,,,,,,,,,,,,,,,,
,Gloria Cervantes,001,2022-04-28_18h57.05.722,classification_task,2021.2.3,Win32,61.56877232,613a70774e42055f91081fc5,626b377229c10585ec392f8a,626b37bd3faadc900a728b5c,,,,,,,,,,,,,,,,,,,,,,,l,0,1.2143,"[""0.175"",""0.289"",""0.867"",""0.946""]","[1,0,1,1]",0,41,41,41,1,0,0,,,0,FALSE,,,,,,,,,,,,,,,,,,,,,,,,,,,,,,
,Gloria Cervantes,001,2022-04-28_18h57.05.722,classification_task,2021.2.3,Win32,61.56877232,613a70774e42055f91081fc5,626b377229c10585ec392f8a,626b37bd3faadc900a728b5c,,,,,,,,,,,,,,,,,,,,,,,l,0,0.7257,"[""0.247"",""0.499"",""0.798"",""0.638""]","[1,1,1,0]",0,42,42,42,1,0,1,,,0,FALSE,,,,,,,,,,,,,,,,,,,,,,,,,,,,,,
,Gloria Cervantes,001,2022-04-28_18h57.05.722,classification_task,2021.2.3,Win32,61.56877232,613a70774e42055f91081fc5,626b377229c10585ec392f8a,626b37bd3faadc900a728b5c,,,,,,,,,,,,,,,,,,,,,,,a,0,0.5154,"[""0.034"",""0.086"",""0.673"",""0.714""]","[1,0,1,1]",0,43,43,43,1,1,0,,,0,FALSE,,,,,,,,,,,,,,,,,,,,,,,,,,,,,,
,Gloria Cervantes,001,2022-04-28_18h57.05.722,classification_task,2021.2.3,Win32,61.56877232,613a70774e42055f91081fc5,626b377229c10585ec392f8a,626b37bd3faadc900a728b5c,,,,,,,,,,,,,,,,,,,,,,,a,0,0.3478,"[""0.591"",""0.342"",""0.673"",""0.714""]","[0,1,1,1]",0,44,44,44,1,1,0,,,0,FALSE,,,,,,,,,,,,,,,,,,,,,,,,,,,,,,
,Gloria Cervantes,001,2022-04-28_18h57.05.722,classification_task,2021.2.3,Win32,61.56877232,613a70774e42055f91081fc5,626b377229c10585ec392f8a,626b37bd3faadc900a728b5c,,,,,,,,,,,,,,,,,,,,,,,l,1,0.3159,"[""0.086"",""0.425"",""0.463"",""0.833""]","[0,1,1,1]",0,45,45,45,1,1,1,,,0,FALSE,,,,,,,,,,,,,,,,,,,,,,,,,,,,,,
,Gloria Cervantes,001,2022-04-28_18h57.05.722,classification_task,2021.2.3,Win32,61.56877232,613a70774e42055f91081fc5,626b377229c10585ec392f8a,626b37bd3faadc900a728b5c,,,,,,,,,,,,,,,,,,,,,,,l,1,0.3322,"[""0.034"",""0.342"",""0.673"",""0.759""]","[1,1,1,0]",0,46,46,46,1,1,0,,,0,FALSE,,,,,,,,,,,,,,,,,,,,,,,,,,,,,,
,Gloria Cervantes,001,2022-04-28_18h57.05.722,classification_task,2021.2.3,Win32,61.56877232,613a70774e42055f91081fc5,626b377229c10585ec392f8a,626b37bd3faadc900a728b5c,,,,,,,,,,,,,,,,,,,,,,,l,1,0.6317,"[""0.130"",""0.755"",""0.463"",""0.833""]","[1,0,1,1]",0,47,47,47,1,1,1,,,0,FALSE,,,,,,,,,,,,,,,,,,,,,,,,,,,,,,
,Gloria Cervantes,001,2022-04-28_18h57.05.722,classification_task,2021.2.3,Win32,61.56877232,613a70774e42055f91081fc5,626b377229c10585ec392f8a,626b37bd3faadc900a728b5c,,,,,,,,,,,,,,,,,,,,,,,a,1,0.2678,"[""0.175"",""0.547"",""0.626"",""0.946""]","[1,1,0,1]",0,48,48,48,1,0,0,,,0,FALSE,,,,,,,,,,,,,,,,,,,,,,,,,,,,,,
,Gloria Cervantes,001,2022-04-28_18h57.05.722,classification_task,2021.2.3,Win32,61.56877232,613a70774e42055f91081fc5,626b377229c10585ec392f8a,626b37bd3faadc900a728b5c,,,,,,,,,,,,,,,,,,,,,,,a,0,0.2357,"[""0.289"",""0.342"",""0.673"",""0.714""]","[0,1,1,1]",0,49,49,49,1,1,0,,,0,FALSE,,,,,,,,,,,,,,,,,,,,,,,,,,,,,,
,Gloria Cervantes,001,2022-04-28_18h57.05.722,classification_task,2021.2.3,Win32,61.56877232,613a70774e42055f91081fc5,626b377229c10585ec392f8a,626b37bd3faadc900a728b5c,,,,,,,,,,,,,,,,,,,,,,,a,1,0.3795,"[""0.247"",""0.286"",""0.798"",""0.907""]","[1,0,1,1]",0,50,50,50,1,0,1,,,0,FALSE,,,,,,,,,,,,,,,,,,,,,,,,,,,,,,
,Gloria Cervantes,001,2022-04-28_18h57.05.722,classification_task,2021.2.3,Win32,61.56877232,613a70774e42055f91081fc5,626b377229c10585ec392f8a,626b37bd3faadc900a728b5c,,,,,,,,,,,,,,,,,,,,,,,l,0,0.3831,"[""0.175"",""0.591"",""0.867"",""0.946""]","[1,0,1,1]",0,51,51,51,1,0,0,,,0,FALSE,,,,,,,,,,,,,,,,,,,,,,,,,,,,,,
,Gloria Cervantes,001,2022-04-28_18h57.05.722,classification_task,2021.2.3,Win32,61.56877232,613a70774e42055f91081fc5,626b377229c10585ec392f8a,626b37bd3faadc900a728b5c,,,,,,,,,,,,,,,,,,,,,,,a,0,0.3162,"[""0.034"",""0.342"",""0.086"",""0.714""]","[1,1,0,1]",0,52,52,52,1,1,0,,,0,FALSE,,,,,,,,,,,,,,,,,,,,,,,,,,,,,,
,Gloria Cervantes,001,2022-04-28_18h57.05.722,classification_task,2021.2.3,Win32,61.56877232,613a70774e42055f91081fc5,626b377229c10585ec392f8a,626b37bd3faadc900a728b5c,,,,,,,,,,,,,,,,,,,,,,,a,1,1.4649,"[""0.625"",""0.499"",""0.798"",""0.907""]","[0,1,1,1]",0,53,53,53,1,0,1,,,0,FALSE,,,,,,,,,,,,,,,,,,,,,,,,,,,,,,
,Gloria Cervantes,001,2022-04-28_18h57.05.722,classification_task,2021.2.3,Win32,61.56877232,613a70774e42055f91081fc5,626b377229c10585ec392f8a,626b37bd3faadc900a728b5c,,,,,,,,,,,,,,,,,,,,,,,a,0,0.7751,"[""0.130"",""0.591"",""0.463"",""0.833""]","[1,0,1,1]",0,54,54,54,1,1,1,,,0,FALSE,,,,,,,,,,,,,,,,,,,,,,,,,,,,,,
,Gloria Cervantes,001,2022-04-28_18h57.05.722,classification_task,2021.2.3,Win32,61.56877232,613a70774e42055f91081fc5,626b377229c10585ec392f8a,626b37bd3faadc900a728b5c,,,,,,,,,,,,,,,,,,,,,,,l,0,0.4152,"[""0.591"",""0.547"",""0.867"",""0.946""]","[0,1,1,1]",0,55,55,55,1,0,0,,,0,FALSE,,,,,,,,,,,,,,,,,,,,,,,,,,,,,,
,Gloria Cervantes,001,2022-04-28_18h57.05.722,classification_task,2021.2.3,Win32,61.56877232,613a70774e42055f91081fc5,626b377229c10585ec392f8a,626b37bd3faadc900a728b5c,,,,,,,,,,,,,,,,,,,,,,,a,1,0.2808,"[""0.247"",""0.499"",""0.759"",""0.907""]","[1,1,0,1]",0,56,56,56,1,0,1,,,0,FALSE,,,,,,,,,,,,,,,,,,,,,,,,,,,,,,
,Gloria Cervantes,001,2022-04-28_18h57.05.722,classification_task,2021.2.3,Win32,61.56877232,613a70774e42055f91081fc5,626b377229c10585ec392f8a,626b37bd3faadc900a728b5c,,,,,,,,,,,,,,,,,,,,,,,l,1,0.2981,"[""0.130"",""0.425"",""0.463"",""0.089""]","[1,1,1,0]",0,57,57,57,1,1,1,,,0,FALSE,,,,,,,,,,,,,,,,,,,,,,,,,,,,,,
,Gloria Cervantes,001,2022-04-28_18h57.05.722,classification_task,2021.2.3,Win32,61.56877232,613a70774e42055f91081fc5,626b377229c10585ec392f8a,626b37bd3faadc900a728b5c,,,,,,,,,,,,,,,,,,,,,,,l,0,0.6312,"[""0.175"",""0.547"",""0.867"",""0.625""]","[1,1,1,0]",0,58,58,58,1,0,0,,,0,FALSE,,,,,,,,,,,,,,,,,,,,,,,,,,,,,,
,Gloria Cervantes,001,2022-04-28_18h57.05.722,classification_task,2021.2.3,Win32,61.56877232,613a70774e42055f91081fc5,626b377229c10585ec392f8a,626b37bd3faadc900a728b5c,,,,,,,,,,,,,,,,,,,,,,,a,0,0.315,"[""0.130"",""0.425"",""0.077"",""0.833""]","[1,1,0,1]",0,59,59,59,1,1,1,,,0,FALSE,,,,,,,,,,,,,,,,,,,,,,,,,,,,,,
,Gloria Cervantes,001,2022-04-28_18h57.05.722,classification_task,2021.2.3,Win32,61.56877232,613a70774e42055f91081fc5,626b377229c10585ec392f8a,626b37bd3faadc900a728b5c,,,,,,,,,,,,,,,,,,,,,,,l,1,0.3992,"[""0.089"",""0.425"",""0.463"",""0.833""]","[0,1,1,1]",0,60,60,60,1,1,1,,,0,FALSE,,,,,,,,,,,,,,,,,,,,,,,,,,,,,,
,Gloria Cervantes,001,2022-04-28_18h57.05.722,classification_task,2021.2.3,Win32,61.56877232,613a70774e42055f91081fc5,626b377229c10585ec392f8a,626b37bd3faadc900a728b5c,,,,,,,,,,,,,,,,,,,,,,,a,0,0.3808,"[""0.034"",""0.591"",""0.673"",""0.714""]","[1,0,1,1]",0,61,61,61,1,1,0,,,0,FALSE,,,,,,,,,,,,,,,,,,,,,,,,,,,,,,
,Gloria Cervantes,001,2022-04-28_18h57.05.722,classification_task,2021.2.3,Win32,61.56877232,613a70774e42055f91081fc5,626b377229c10585ec392f8a,626b37bd3faadc900a728b5c,,,,,,,,,,,,,,,,,,,,,,,l,0,0.9812,"[""0.247"",""0.499"",""0.798"",""0.303""]","[1,1,1,0]",0,62,62,62,1,0,1,,,0,FALSE,,,,,,,,,,,,,,,,,,,,,,,,,,,,,,
,Gloria Cervantes,001,2022-04-28_18h57.05.722,classification_task,2021.2.3,Win32,61.56877232,613a70774e42055f91081fc5,626b377229c10585ec392f8a,626b37bd3faadc900a728b5c,,,,,,,,,,,,,,,,,,,,,,,a,0,0.648,"[""0.034"",""0.342"",""0.673"",""0.086""]","[1,1,1,0]",0,63,63,63,1,1,0,,,0,FALSE,,,,,,,,,,,,,,,,,,,,,,,,,,,,,,
,Gloria Cervantes,001,2022-04-28_18h57.05.722,classification_task,2021.2.3,Win32,61.56877232,613a70774e42055f91081fc5,626b377229c10585ec392f8a,626b37bd3faadc900a728b5c,,,,,,,,,,,,,,,,,,,,,,,,,,,,,,,,,,,,,,,0, ,,0,,,0,2,2,2,1,2,3,,,,,,,,,,,,,,,,,
,Gloria Cervantes,001,2022-04-28_18h57.05.722,classification_task,2021.2.3,Win32,61.56877232,613a70774e42055f91081fc5,626b377229c10585ec392f8a,626b37bd3faadc900a728b5c,,,,,,,,,,,,,,,,,,,,,,,,,,,,,,,,,,,,,,,1,  ,,0,,,0,2,2,2,1,2,3,,,,,,,,,,,,,,,,,
,Gloria Cervantes,001,2022-04-28_18h57.05.722,classification_task,2021.2.3,Win32,61.56877232,613a70774e42055f91081fc5,626b377229c10585ec392f8a,626b37bd3faadc900a728b5c,,,,,,,,,,,,,,,,,,,,,,,,,,,,,,,,,,,,,,,2,  ,,0,,,0,2,2,2,1,2,3,,,,,,,,,,,,,,,,,
,Gloria Cervantes,001,2022-04-28_18h57.05.722,classification_task,2021.2.3,Win32,61.56877232,613a70774e42055f91081fc5,626b377229c10585ec392f8a,626b37bd3faadc900a728b5c,,,,,,,,,,,,,,,,,,,,,,,,,,,,,,,,,,,,,,,,,,,,,0,2,2,2,1,,3,,,,,,,,,,,,,,,,,
,Gloria Cervantes,001,2022-04-28_18h57.05.722,classification_task,2021.2.3,Win32,61.56877232,613a70774e42055f91081fc5,626b377229c10585ec392f8a,626b37bd3faadc900a728b5c,,,,,,,,,,,,,,,,,,,,,,,,,,,,,,,,,,,,,,,,,,,,,,,,,,,,,I believe the aid is a competent performer,,0.7,0,5,607.9775,0,0,0,0,1,0,,,,
,Gloria Cervantes,001,2022-04-28_18h57.05.722,classification_task,2021.2.3,Win32,61.56877232,613a70774e42055f91081fc5,626b377229c10585ec392f8a,626b37bd3faadc900a728b5c,,,,,,,,,,,,,,,,,,,,,,,,,,,,,,,,,,,,,,,,,,,,,,,,,,,,,I trust the aid,,0.7,0,4,610.197,0,0,0,0,1,0,,,,
,Gloria Cervantes,001,2022-04-28_18h57.05.722,classification_task,2021.2.3,Win32,61.56877232,613a70774e42055f91081fc5,626b377229c10585ec392f8a,626b37bd3faadc900a728b5c,,,,,,,,,,,,,,,,,,,,,,,,,,,,,,,,,,,,,,,,,,,,,,,,,,,,,I have confidence in the advice given by the aid,,0.7,0,4,614.7156,0,0,0,0,1,0,,,,
,Gloria Cervantes,001,2022-04-28_18h57.05.722,classification_task,2021.2.3,Win32,61.56877232,613a70774e42055f91081fc5,626b377229c10585ec392f8a,626b37bd3faadc900a728b5c,,,,,,,,,,,,,,,,,,,,,,,,,,,,,,,,,,,,,,,,,,,,,,,,,,,,,I can depend on the aid,,0.7,0,5,616.8633,0,0,0,0,1,0,,,,
,Gloria Cervantes,001,2022-04-28_18h57.05.722,classification_task,2021.2.3,Win32,61.56877232,613a70774e42055f91081fc5,626b377229c10585ec392f8a,626b37bd3faadc900a728b5c,,,,,,,,,,,,,,,,,,,,,,,,,,,,,,,,,,,,,,,,,,,,,,,,,,,,,I can rely on the aid to behave in consistent ways,,0.7,0,4,619.5325,0,0,0,0,1,0,,,,
,Gloria Cervantes,001,2022-04-28_18h57.05.722,classification_task,2021.2.3,Win32,61.56877232,613a70774e42055f91081fc5,626b377229c10585ec392f8a,626b37bd3faadc900a728b5c,,,,,,,,,,,,,,,,,,,,,,,,,,,,,,,,,,,,,,,,,,,,,,,,,,,,,I can rely on the aid to do its best every time I take its advice,,0.7,0,4,620.8975,0,0,0,0,1,0,,,,
,Gloria Cervantes,001,2022-04-28_18h57.05.722,classification_task,2021.2.3,Win32,61.56877232,613a70774e42055f91081fc5,626b377229c10585ec392f8a,626b37bd3faadc900a728b5c,,,,,,,,,,,,,,,,,,,,,,,,,,,,,,,,,,,,,,,,,,,,,,,,,,,,,"On trials you completed with assistance from the aid, how frequently did you think the aid was correct?",,0.7,0,100%,,0,0,0,0,1,0,,,,
,Gloria Cervantes,001,2022-04-28_18h57.05.722,classification_task,2021.2.3,Win32,61.56877232,613a70774e42055f91081fc5,626b377229c10585ec392f8a,626b37bd3faadc900a728b5c,,,,,,,,,,,,,,,,,,,,,,,,,,,,,,,,,,,,,,,,,,,,,,,,,,,,,"On trials you completed without the aid, how frequently did you think you were correct?",,0.7,0,78%,,0,0,0,0,1,0,,,,
,Gloria Cervantes,001,2022-04-28_18h57.05.722,classification_task,2021.2.3,Win32,61.56877232,613a70774e42055f91081fc5,626b377229c10585ec392f8a,626b37bd3faadc900a728b5c,,,,,,,,,,,,,,,,,,,,,,,,,,,,,,,,,,,,,,,,,,,,,,,,,,,,,,,,,,,0,0,0,0,1,,,,,
,Gloria Cervantes,001,2022-04-28_18h57.05.722,classification_task,2021.2.3,Win32,61.56877232,613a70774e42055f91081fc5,626b377229c10585ec392f8a,626b37bd3faadc900a728b5c,,,,,,,,,,,,,,,,,,,,,,,,,,,,,,,,,,,,,,,,,,,,,,,,,,,,,,,,,,,,,,,,,space,7.622,652.6183,
,Gloria Cervantes,001,2022-04-28_18h57.05.722,classification_task,2021.2.3,Win32,61.56877232,613a70774e42055f91081fc5,626b377229c10585ec392f8a,626b37bd3faadc900a728b5c,,,,,,,,,,,,,,,,,,,,,,,,,,,,,,,,,,,,,,,,,,,,,,,,,,,,,,,,,,,,,,,,,,,,"Mozilla/5.0 (Windows NT 10.0; Win64; x64) AppleWebKit/537.36 (KHTML, like Gecko) Chrome/100.0.4896.127 Safari/537.36"
