usingWebGL,participant,session,date,expName,psychopyVersion,OS,frameRate,PROLIFIC_PID,STUDY_ID,SESSION_ID,signatures_friend,signatures_foe,band_ranges_top,band_ranges_bottom,formitemText,formtype,formundefined,formitemWidth,formindex,formresponse,formrt,key_resp_2.keys,key_resp_2.rt,tute_resp.keys,tute_resp.rt,tutorial.thisRepN,tutorial.thisTrialN,tutorial.thisN,tutorial.thisIndex,tutorial.ran,key_resp_4.keys,key_resp_4.rt,key_resp.keys,key_resp.corr,key_resp.rt,lines_presented,is_signal_presented,trials.thisRepN,trials.thisTrialN,trials.thisN,trials.thisIndex,trials.ran,vessel,active_band,lines,is_signal,supported_pos,catch_trial,debrief_formindex,debrief_formitemText,debrief_formtype,debrief_formitemWidth,debrief_formresponse,debrief_formrt,phases.thisRepN,phases.thisTrialN,phases.thisN,phases.thisIndex,phases.ran,phases.order,phase,key_resp_3.keys,trustitemText,trusttype,trustitemWidth,trustindex,trustresponse,trustrt,support_status.thisRepN,support_status.thisTrialN,support_status.thisN,support_status.thisIndex,support_status.ran,support_status.order,key_resp_5.keys,key_resp_5.rt,globalClockTime,userAgent
TRUE,HUNRobi,001,2022-04-29_04h38.35.363,classification_task,2021.2.3,Win32,119.9616123,59bda1adab8d830001fe5e4b,626b377229c10585ec392f89,626b4f55ded97edb650b23d1,,,,,,,,,,,,,,,,,,,,,,,,,,,,,,,,,,,,,,,,,,,,,,,,,,,,,,,,,,,,,,,,,,,,
,HUNRobi,001,2022-04-29_04h38.35.363,classification_task,2021.2.3,Win32,119.9616123,59bda1adab8d830001fe5e4b,626b377229c10585ec392f89,626b4f55ded97edb650b23d1,"[[""0.268"",""0.539"",""0.790"",""0.916""],[""0.175"",""0.367"",""0.615"",""0.956""]]","[[""0.077"",""0.330"",""0.500"",""0.711""],[""0.140"",""0.223"",""0.449"",""0.842""]]","[1,10]","[100,1000]",Video game experience,,,0.7,0,,,,,,,,,,,,,,,,,,,,,,,,,,,,,,,,,,,,,,,,,,,,,,,,,,,,,,,,,,,
,HUNRobi,001,2022-04-29_04h38.35.363,classification_task,2021.2.3,Win32,119.9616123,59bda1adab8d830001fe5e4b,626b377229c10585ec392f89,626b4f55ded97edb650b23d1,,,,,Approximately how many hours did you spend playing video games in the last week?,,,0.7,0,30,,,,,,,,,,,,,,,,,,,,,,,,,,,,,,,,,,,,,,,,,,,,,,,,,,,,,,,,,,
,HUNRobi,001,2022-04-29_04h38.35.363,classification_task,2021.2.3,Win32,119.9616123,59bda1adab8d830001fe5e4b,626b377229c10585ec392f89,626b4f55ded97edb650b23d1,,,,,"Which game did you play the most this year? (Enter ""None"" if you didn't play any)",,,0.7,0,league of legends,,,,,,,,,,,,,,,,,,,,,,,,,,,,,,,,,,,,,,,,,,,,,,,,,,,,,,,,,,
,HUNRobi,001,2022-04-29_04h38.35.363,classification_task,2021.2.3,Win32,119.9616123,59bda1adab8d830001fe5e4b,626b377229c10585ec392f89,626b4f55ded97edb650b23d1,,,,,Visual perception,,,0.7,0,,,,,,,,,,,,,,,,,,,,,,,,,,,,,,,,,,,,,,,,,,,,,,,,,,,,,,,,,,,
,HUNRobi,001,2022-04-29_04h38.35.363,classification_task,2021.2.3,Win32,119.9616123,59bda1adab8d830001fe5e4b,626b377229c10585ec392f89,626b4f55ded97edb650b23d1,,,,,Do you have any form of color blindness?,,,0.7,0,No,56.9223,,,,,,,,,,,,,,,,,,,,,,,,,,,,,,,,,,,,,,,,,,,,,,,,,,,,,,,,,
,HUNRobi,001,2022-04-29_04h38.35.363,classification_task,2021.2.3,Win32,119.9616123,59bda1adab8d830001fe5e4b,626b377229c10585ec392f89,626b4f55ded97edb650b23d1,,,,,Do you use software to change the colour temperature of your screen (e.g. f.lux)?,,,0.7,0,No,59.7288,,,,,,,,,,,,,,,,,,,,,,,,,,,,,,,,,,,,,,,,,,,,,,,,,,,,,,,,,
,HUNRobi,001,2022-04-29_04h38.35.363,classification_task,2021.2.3,Win32,119.9616123,59bda1adab8d830001fe5e4b,626b377229c10585ec392f89,626b4f55ded97edb650b23d1,,,,,,,,,,,,space,25.8094,space,6.1834,0,0,0,0,1,,,,,,,,,,,,,,,,,,,,,,,,,,,,,,,,,,,,,,,,,,,,,,,,
,HUNRobi,001,2022-04-29_04h38.35.363,classification_task,2021.2.3,Win32,119.9616123,59bda1adab8d830001fe5e4b,626b377229c10585ec392f89,626b4f55ded97edb650b23d1,,,,,,,,,,,,,,space,7.3483,1,0,1,0,1,,,,,,,,,,,,,,,,,,,,,,,,,,,,,,,,,,,,,,,,,,,,,,,,
,HUNRobi,001,2022-04-29_04h38.35.363,classification_task,2021.2.3,Win32,119.9616123,59bda1adab8d830001fe5e4b,626b377229c10585ec392f89,626b4f55ded97edb650b23d1,,,,,,,,,,,,,,space,17.3651,2,0,2,0,1,,,,,,,,,,,,,,,,,,,,,,,,,,,,,,,,,,,,,,,,,,,,,,,,
,HUNRobi,001,2022-04-29_04h38.35.363,classification_task,2021.2.3,Win32,119.9616123,59bda1adab8d830001fe5e4b,626b377229c10585ec392f89,626b4f55ded97edb650b23d1,,,,,,,,,,,,,,space,4.3397,3,0,3,0,1,,,,,,,,,,,,,,,,,,,,,,,,,,,,,,,,,,,,,,,,,,,,,,,,
,HUNRobi,001,2022-04-29_04h38.35.363,classification_task,2021.2.3,Win32,119.9616123,59bda1adab8d830001fe5e4b,626b377229c10585ec392f89,626b4f55ded97edb650b23d1,,,,,,,,,,,,,,space,14.2827,4,0,4,0,1,,,,,,,,,,,,,,,,,,,,,,,,,,,,,,,,,,,,,,,,,,,,,,,,
,HUNRobi,001,2022-04-29_04h38.35.363,classification_task,2021.2.3,Win32,119.9616123,59bda1adab8d830001fe5e4b,626b377229c10585ec392f89,626b4f55ded97edb650b23d1,,,,,,,,,,,,,,,,,,,,,space,13.5002,l,1,7.0646,"[""0.140"",""0.654"",""0.449"",""0.842""]","[1,0,1,1]",0,0,0,0,1,1,1,,,0,FALSE,,,,,,,,,,,,,,,,,,,,,,,,,,,,,,
,HUNRobi,001,2022-04-29_04h38.35.363,classification_task,2021.2.3,Win32,119.9616123,59bda1adab8d830001fe5e4b,626b377229c10585ec392f89,626b4f55ded97edb650b23d1,,,,,,,,,,,,,,,,,,,,,,,l,1,5.2431,"[""0.077"",""0.330"",""0.500"",""0.654""]","[1,1,1,0]",0,1,1,1,1,1,0,,,0,FALSE,,,,,,,,,,,,,,,,,,,,,,,,,,,,,,
,HUNRobi,001,2022-04-29_04h38.35.363,classification_task,2021.2.3,Win32,119.9616123,59bda1adab8d830001fe5e4b,626b377229c10585ec392f89,626b4f55ded97edb650b23d1,,,,,,,,,,,,,,,,,,,,,,,l,0,3.0824,"[""0.268"",""0.036"",""0.790"",""0.916""]","[1,0,1,1]",0,2,2,2,1,0,0,,,0,FALSE,,,,,,,,,,,,,,,,,,,,,,,,,,,,,,
,HUNRobi,001,2022-04-29_04h38.35.363,classification_task,2021.2.3,Win32,119.9616123,59bda1adab8d830001fe5e4b,626b377229c10585ec392f89,626b4f55ded97edb650b23d1,,,,,,,,,,,,,,,,,,,,,,,,0,,"[""0.268"",""0.539"",""0.040"",""0.916""]","[1,1,0,1]",0,3,3,3,1,0,0,,,0,FALSE,,,,,,,,,,,,,,,,,,,,,,,,,,,,,,
,HUNRobi,001,2022-04-29_04h38.35.363,classification_task,2021.2.3,Win32,119.9616123,59bda1adab8d830001fe5e4b,626b377229c10585ec392f89,626b4f55ded97edb650b23d1,,,,,,,,,,,,,,,,,,,,,,,l,1,5.1488,"[""0.879"",""0.223"",""0.449"",""0.842""]","[0,1,1,1]",0,4,4,4,1,1,1,,,0,FALSE,,,,,,,,,,,,,,,,,,,,,,,,,,,,,,
,HUNRobi,001,2022-04-29_04h38.35.363,classification_task,2021.2.3,Win32,119.9616123,59bda1adab8d830001fe5e4b,626b377229c10585ec392f89,626b4f55ded97edb650b23d1,,,,,,,,,,,,,,,,,,,,,,,l,1,3.544,"[""0.140"",""0.223"",""0.449"",""0.879""]","[1,1,1,0]",0,5,5,5,1,1,1,,,0,FALSE,,,,,,,,,,,,,,,,,,,,,,,,,,,,,,
,HUNRobi,001,2022-04-29_04h38.35.363,classification_task,2021.2.3,Win32,119.9616123,59bda1adab8d830001fe5e4b,626b377229c10585ec392f89,626b4f55ded97edb650b23d1,,,,,,,,,,,,,,,,,,,,,,,l,1,6.5033,"[""0.077"",""0.040"",""0.500"",""0.711""]","[1,0,1,1]",0,6,6,6,1,1,0,,,0,FALSE,,,,,,,,,,,,,,,,,,,,,,,,,,,,,,
,HUNRobi,001,2022-04-29_04h38.35.363,classification_task,2021.2.3,Win32,119.9616123,59bda1adab8d830001fe5e4b,626b377229c10585ec392f89,626b4f55ded97edb650b23d1,,,,,,,,,,,,,,,,,,,,,,,a,1,4.6581,"[""0.175"",""0.649"",""0.615"",""0.956""]","[1,0,1,1]",0,7,7,7,1,0,1,,,0,FALSE,,,,,,,,,,,,,,,,,,,,,,,,,,,,,,
,HUNRobi,001,2022-04-29_04h38.35.363,classification_task,2021.2.3,Win32,119.9616123,59bda1adab8d830001fe5e4b,626b377229c10585ec392f89,626b4f55ded97edb650b23d1,,,,,,,,,,,,,,,,,,,,,,,l,1,6.8919,"[""0.040"",""0.330"",""0.500"",""0.711""]","[0,1,1,1]",0,8,8,8,1,1,0,,,0,FALSE,,,,,,,,,,,,,,,,,,,,,,,,,,,,,,
,HUNRobi,001,2022-04-29_04h38.35.363,classification_task,2021.2.3,Win32,119.9616123,59bda1adab8d830001fe5e4b,626b377229c10585ec392f89,626b4f55ded97edb650b23d1,,,,,,,,,,,,,,,,,,,,,,,a,1,6.618,"[""0.175"",""0.367"",""0.036"",""0.956""]","[1,1,0,1]",0,9,9,9,1,0,1,,,0,FALSE,,,,,,,,,,,,,,,,,,,,,,,,,,,,,,
,HUNRobi,001,2022-04-29_04h38.35.363,classification_task,2021.2.3,Win32,119.9616123,59bda1adab8d830001fe5e4b,626b377229c10585ec392f89,626b4f55ded97edb650b23d1,,,,,,,,,,,,,,,,,,,,,,,l,1,5.7983,"[""0.077"",""0.330"",""0.572"",""0.711""]","[1,1,0,1]",0,10,10,10,1,1,0,,,0,FALSE,,,,,,,,,,,,,,,,,,,,,,,,,,,,,,
,HUNRobi,001,2022-04-29_04h38.35.363,classification_task,2021.2.3,Win32,119.9616123,59bda1adab8d830001fe5e4b,626b377229c10585ec392f89,626b4f55ded97edb650b23d1,,,,,,,,,,,,,,,,,,,,,,,a,1,5.4949,"[""0.675"",""0.367"",""0.615"",""0.956""]","[0,1,1,1]",0,11,11,11,1,0,1,,,0,FALSE,,,,,,,,,,,,,,,,,,,,,,,,,,,,,,
,HUNRobi,001,2022-04-29_04h38.35.363,classification_task,2021.2.3,Win32,119.9616123,59bda1adab8d830001fe5e4b,626b377229c10585ec392f89,626b4f55ded97edb650b23d1,,,,,,,,,,,,,,,,,,,,,,,a,1,5.5306,"[""0.175"",""0.367"",""0.615"",""0.879""]","[1,1,1,0]",0,12,12,12,1,0,1,,,0,FALSE,,,,,,,,,,,,,,,,,,,,,,,,,,,,,,
,HUNRobi,001,2022-04-29_04h38.35.363,classification_task,2021.2.3,Win32,119.9616123,59bda1adab8d830001fe5e4b,626b377229c10585ec392f89,626b4f55ded97edb650b23d1,,,,,,,,,,,,,,,,,,,,,,,a,1,6.5679,"[""0.034"",""0.539"",""0.790"",""0.916""]","[0,1,1,1]",0,13,13,13,1,0,0,,,0,FALSE,,,,,,,,,,,,,,,,,,,,,,,,,,,,,,
,HUNRobi,001,2022-04-29_04h38.35.363,classification_task,2021.2.3,Win32,119.9616123,59bda1adab8d830001fe5e4b,626b377229c10585ec392f89,626b4f55ded97edb650b23d1,,,,,,,,,,,,,,,,,,,,,,,a,1,6.645,"[""0.268"",""0.539"",""0.790"",""0.034""]","[1,1,1,0]",0,14,14,14,1,0,0,,,0,FALSE,,,,,,,,,,,,,,,,,,,,,,,,,,,,,,
,HUNRobi,001,2022-04-29_04h38.35.363,classification_task,2021.2.3,Win32,119.9616123,59bda1adab8d830001fe5e4b,626b377229c10585ec392f89,626b4f55ded97edb650b23d1,,,,,,,,,,,,,,,,,,,,,,,l,1,5.3086,"[""0.140"",""0.223"",""0.030"",""0.842""]","[1,1,0,1]",0,15,15,15,1,1,1,,,0,FALSE,,,,,,,,,,,,,,,,,,,,,,,,,,,,,,
,HUNRobi,001,2022-04-29_04h38.35.363,classification_task,2021.2.3,Win32,119.9616123,59bda1adab8d830001fe5e4b,626b377229c10585ec392f89,626b4f55ded97edb650b23d1,,,,,,,,,,,,,,,,,,,,,,,a,1,7.4192,"[""0.746"",""0.367"",""0.615"",""0.956""]","[0,1,1,1]",0,16,16,16,1,0,1,,,0,FALSE,,,,,,,,,,,,,,,,,,,,,,,,,,,,,,
,HUNRobi,001,2022-04-29_04h38.35.363,classification_task,2021.2.3,Win32,119.9616123,59bda1adab8d830001fe5e4b,626b377229c10585ec392f89,626b4f55ded97edb650b23d1,,,,,,,,,,,,,,,,,,,,,,,l,1,4.066,"[""0.077"",""0.330"",""0.500"",""0.649""]","[1,1,1,0]",0,17,17,17,1,1,0,,,0,FALSE,,,,,,,,,,,,,,,,,,,,,,,,,,,,,,
,HUNRobi,001,2022-04-29_04h38.35.363,classification_task,2021.2.3,Win32,119.9616123,59bda1adab8d830001fe5e4b,626b377229c10585ec392f89,626b4f55ded97edb650b23d1,,,,,,,,,,,,,,,,,,,,,,,a,1,5.0535,"[""0.268"",""0.410"",""0.790"",""0.916""]","[1,0,1,1]",0,18,18,18,1,0,0,,,0,FALSE,,,,,,,,,,,,,,,,,,,,,,,,,,,,,,
,HUNRobi,001,2022-04-29_04h38.35.363,classification_task,2021.2.3,Win32,119.9616123,59bda1adab8d830001fe5e4b,626b377229c10585ec392f89,626b4f55ded97edb650b23d1,,,,,,,,,,,,,,,,,,,,,,,l,1,5.3629,"[""0.030"",""0.223"",""0.449"",""0.842""]","[0,1,1,1]",0,19,19,19,1,1,1,,,0,FALSE,,,,,,,,,,,,,,,,,,,,,,,,,,,,,,
,HUNRobi,001,2022-04-29_04h38.35.363,classification_task,2021.2.3,Win32,119.9616123,59bda1adab8d830001fe5e4b,626b377229c10585ec392f89,626b4f55ded97edb650b23d1,,,,,,,,,,,,,,,,,,,,,,,l,1,4.4411,"[""0.140"",""0.223"",""0.030"",""0.842""]","[1,1,0,1]",0,20,20,20,1,1,1,,,0,FALSE,,,,,,,,,,,,,,,,,,,,,,,,,,,,,,
,HUNRobi,001,2022-04-29_04h38.35.363,classification_task,2021.2.3,Win32,119.9616123,59bda1adab8d830001fe5e4b,626b377229c10585ec392f89,626b4f55ded97edb650b23d1,,,,,,,,,,,,,,,,,,,,,,,l,1,5.2437,"[""0.140"",""0.030"",""0.449"",""0.842""]","[1,0,1,1]",0,21,21,21,1,1,1,,,0,FALSE,,,,,,,,,,,,,,,,,,,,,,,,,,,,,,
,HUNRobi,001,2022-04-29_04h38.35.363,classification_task,2021.2.3,Win32,119.9616123,59bda1adab8d830001fe5e4b,626b377229c10585ec392f89,626b4f55ded97edb650b23d1,,,,,,,,,,,,,,,,,,,,,,,l,1,4.6329,"[""0.140"",""0.223"",""0.449"",""0.876""]","[1,1,1,0]",0,22,22,22,1,1,1,,,0,FALSE,,,,,,,,,,,,,,,,,,,,,,,,,,,,,,
,HUNRobi,001,2022-04-29_04h38.35.363,classification_task,2021.2.3,Win32,119.9616123,59bda1adab8d830001fe5e4b,626b377229c10585ec392f89,626b4f55ded97edb650b23d1,,,,,,,,,,,,,,,,,,,,,,,a,1,6.8641,"[""0.175"",""0.036"",""0.615"",""0.956""]","[1,0,1,1]",0,23,23,23,1,0,1,,,0,FALSE,,,,,,,,,,,,,,,,,,,,,,,,,,,,,,
,HUNRobi,001,2022-04-29_04h38.35.363,classification_task,2021.2.3,Win32,119.9616123,59bda1adab8d830001fe5e4b,626b377229c10585ec392f89,626b4f55ded97edb650b23d1,,,,,,,,,,,,,,,,,,,,,,,a,1,5.7709,"[""0.877"",""0.539"",""0.790"",""0.916""]","[0,1,1,1]",0,24,24,24,1,0,0,,,0,FALSE,,,,,,,,,,,,,,,,,,,,,,,,,,,,,,
,HUNRobi,001,2022-04-29_04h38.35.363,classification_task,2021.2.3,Win32,119.9616123,59bda1adab8d830001fe5e4b,626b377229c10585ec392f89,626b4f55ded97edb650b23d1,,,,,,,,,,,,,,,,,,,,,,,a,1,6.4079,"[""0.268"",""0.539"",""0.790"",""0.036""]","[1,1,1,0]",0,25,25,25,1,0,0,,,0,FALSE,,,,,,,,,,,,,,,,,,,,,,,,,,,,,,
,HUNRobi,001,2022-04-29_04h38.35.363,classification_task,2021.2.3,Win32,119.9616123,59bda1adab8d830001fe5e4b,626b377229c10585ec392f89,626b4f55ded97edb650b23d1,,,,,,,,,,,,,,,,,,,,,,,a,1,4.0657,"[""0.268"",""0.539"",""0.877"",""0.916""]","[1,1,0,1]",0,26,26,26,1,0,0,,,0,FALSE,,,,,,,,,,,,,,,,,,,,,,,,,,,,,,
,HUNRobi,001,2022-04-29_04h38.35.363,classification_task,2021.2.3,Win32,119.9616123,59bda1adab8d830001fe5e4b,626b377229c10585ec392f89,626b4f55ded97edb650b23d1,,,,,,,,,,,,,,,,,,,,,,,a,1,5.6383,"[""0.175"",""0.367"",""0.615"",""0.746""]","[1,1,1,0]",0,27,27,27,1,0,1,,,0,FALSE,,,,,,,,,,,,,,,,,,,,,,,,,,,,,,
,HUNRobi,001,2022-04-29_04h38.35.363,classification_task,2021.2.3,Win32,119.9616123,59bda1adab8d830001fe5e4b,626b377229c10585ec392f89,626b4f55ded97edb650b23d1,,,,,,,,,,,,,,,,,,,,,,,l,1,6.4796,"[""0.077"",""0.330"",""0.030"",""0.711""]","[1,1,0,1]",0,28,28,28,1,1,0,,,0,FALSE,,,,,,,,,,,,,,,,,,,,,,,,,,,,,,
,HUNRobi,001,2022-04-29_04h38.35.363,classification_task,2021.2.3,Win32,119.9616123,59bda1adab8d830001fe5e4b,626b377229c10585ec392f89,626b4f55ded97edb650b23d1,,,,,,,,,,,,,,,,,,,,,,,l,1,6.6548,"[""0.077"",""0.651"",""0.500"",""0.711""]","[1,0,1,1]",0,29,29,29,1,1,0,,,0,FALSE,,,,,,,,,,,,,,,,,,,,,,,,,,,,,,
,HUNRobi,001,2022-04-29_04h38.35.363,classification_task,2021.2.3,Win32,119.9616123,59bda1adab8d830001fe5e4b,626b377229c10585ec392f89,626b4f55ded97edb650b23d1,,,,,,,,,,,,,,,,,,,,,,,a,1,4.8265,"[""0.175"",""0.367"",""0.040"",""0.956""]","[1,1,0,1]",0,30,30,30,1,0,1,,,0,FALSE,,,,,,,,,,,,,,,,,,,,,,,,,,,,,,
,HUNRobi,001,2022-04-29_04h38.35.363,classification_task,2021.2.3,Win32,119.9616123,59bda1adab8d830001fe5e4b,626b377229c10585ec392f89,626b4f55ded97edb650b23d1,,,,,,,,,,,,,,,,,,,,,,,l,1,5.2782,"[""0.751"",""0.330"",""0.500"",""0.711""]","[0,1,1,1]",0,31,31,31,1,1,0,,,0,FALSE,,,,,,,,,,,,,,,,,,,,,,,,,,,,,,
,HUNRobi,001,2022-04-29_04h38.35.363,classification_task,2021.2.3,Win32,119.9616123,59bda1adab8d830001fe5e4b,626b377229c10585ec392f89,626b4f55ded97edb650b23d1,,,,,,,,,,,,,,,,,,,,,,,l,1,7.6767,"[""0.746"",""0.223"",""0.449"",""0.842""]","[0,1,1,1]",0,32,32,32,1,1,1,,,0,FALSE,,,,,,,,,,,,,,,,,,,,,,,,,,,,,,
,HUNRobi,001,2022-04-29_04h38.35.363,classification_task,2021.2.3,Win32,119.9616123,59bda1adab8d830001fe5e4b,626b377229c10585ec392f89,626b4f55ded97edb650b23d1,,,,,,,,,,,,,,,,,,,,,,,a,0,5.1852,"[""0.077"",""0.330"",""0.410"",""0.711""]","[1,1,0,1]",0,33,33,33,1,1,0,,,0,FALSE,,,,,,,,,,,,,,,,,,,,,,,,,,,,,,
,HUNRobi,001,2022-04-29_04h38.35.363,classification_task,2021.2.3,Win32,119.9616123,59bda1adab8d830001fe5e4b,626b377229c10585ec392f89,626b4f55ded97edb650b23d1,,,,,,,,,,,,,,,,,,,,,,,a,1,3.2021,"[""0.175"",""0.367"",""0.615"",""0.034""]","[1,1,1,0]",0,34,34,34,1,0,1,,,0,FALSE,,,,,,,,,,,,,,,,,,,,,,,,,,,,,,
,HUNRobi,001,2022-04-29_04h38.35.363,classification_task,2021.2.3,Win32,119.9616123,59bda1adab8d830001fe5e4b,626b377229c10585ec392f89,626b4f55ded97edb650b23d1,,,,,,,,,,,,,,,,,,,,,,,l,0,3.6158,"[""0.175"",""0.034"",""0.615"",""0.956""]","[1,0,1,1]",0,35,35,35,1,0,1,,,0,FALSE,,,,,,,,,,,,,,,,,,,,,,,,,,,,,,
,HUNRobi,001,2022-04-29_04h38.35.363,classification_task,2021.2.3,Win32,119.9616123,59bda1adab8d830001fe5e4b,626b377229c10585ec392f89,626b4f55ded97edb650b23d1,,,,,,,,,,,,,,,,,,,,,,,l,0,1.4064,"[""0.654"",""0.539"",""0.790"",""0.916""]","[0,1,1,1]",0,36,36,36,1,0,0,,,0,FALSE,,,,,,,,,,,,,,,,,,,,,,,,,,,,,,
,HUNRobi,001,2022-04-29_04h38.35.363,classification_task,2021.2.3,Win32,119.9616123,59bda1adab8d830001fe5e4b,626b377229c10585ec392f89,626b4f55ded97edb650b23d1,,,,,,,,,,,,,,,,,,,,,,,l,1,4.9006,"[""0.077"",""0.572"",""0.500"",""0.711""]","[1,0,1,1]",0,37,37,37,1,1,0,,,0,FALSE,,,,,,,,,,,,,,,,,,,,,,,,,,,,,,
,HUNRobi,001,2022-04-29_04h38.35.363,classification_task,2021.2.3,Win32,119.9616123,59bda1adab8d830001fe5e4b,626b377229c10585ec392f89,626b4f55ded97edb650b23d1,,,,,,,,,,,,,,,,,,,,,,,a,0,2.6521,"[""0.140"",""0.877"",""0.449"",""0.842""]","[1,0,1,1]",0,38,38,38,1,1,1,,,0,FALSE,,,,,,,,,,,,,,,,,,,,,,,,,,,,,,
,HUNRobi,001,2022-04-29_04h38.35.363,classification_task,2021.2.3,Win32,119.9616123,59bda1adab8d830001fe5e4b,626b377229c10585ec392f89,626b4f55ded97edb650b23d1,,,,,,,,,,,,,,,,,,,,,,,a,1,4.8948,"[""0.268"",""0.654"",""0.790"",""0.916""]","[1,0,1,1]",0,39,39,39,1,0,0,,,0,FALSE,,,,,,,,,,,,,,,,,,,,,,,,,,,,,,
,HUNRobi,001,2022-04-29_04h38.35.363,classification_task,2021.2.3,Win32,119.9616123,59bda1adab8d830001fe5e4b,626b377229c10585ec392f89,626b4f55ded97edb650b23d1,,,,,,,,,,,,,,,,,,,,,,,a,0,2.8386,"[""0.140"",""0.223"",""0.675"",""0.842""]","[1,1,0,1]",0,40,40,40,1,1,1,,,0,FALSE,,,,,,,,,,,,,,,,,,,,,,,,,,,,,,
,HUNRobi,001,2022-04-29_04h38.35.363,classification_task,2021.2.3,Win32,119.9616123,59bda1adab8d830001fe5e4b,626b377229c10585ec392f89,626b4f55ded97edb650b23d1,,,,,,,,,,,,,,,,,,,,,,,a,0,0.9605,"[""0.077"",""0.330"",""0.500"",""0.034""]","[1,1,1,0]",0,41,41,41,1,1,0,,,0,FALSE,,,,,,,,,,,,,,,,,,,,,,,,,,,,,,
,HUNRobi,001,2022-04-29_04h38.35.363,classification_task,2021.2.3,Win32,119.9616123,59bda1adab8d830001fe5e4b,626b377229c10585ec392f89,626b4f55ded97edb650b23d1,,,,,,,,,,,,,,,,,,,,,,,a,0,1.1358,"[""0.140"",""0.223"",""0.449"",""0.746""]","[1,1,1,0]",0,42,42,42,1,1,1,,,0,FALSE,,,,,,,,,,,,,,,,,,,,,,,,,,,,,,
,HUNRobi,001,2022-04-29_04h38.35.363,classification_task,2021.2.3,Win32,119.9616123,59bda1adab8d830001fe5e4b,626b377229c10585ec392f89,626b4f55ded97edb650b23d1,,,,,,,,,,,,,,,,,,,,,,,a,0,2.0802,"[""0.654"",""0.330"",""0.500"",""0.711""]","[0,1,1,1]",0,43,43,43,1,1,0,,,0,FALSE,,,,,,,,,,,,,,,,,,,,,,,,,,,,,,
,HUNRobi,001,2022-04-29_04h38.35.363,classification_task,2021.2.3,Win32,119.9616123,59bda1adab8d830001fe5e4b,626b377229c10585ec392f89,626b4f55ded97edb650b23d1,,,,,,,,,,,,,,,,,,,,,,,l,0,1.1995,"[""0.746"",""0.367"",""0.615"",""0.956""]","[0,1,1,1]",0,44,44,44,1,0,1,,,0,FALSE,,,,,,,,,,,,,,,,,,,,,,,,,,,,,,
,HUNRobi,001,2022-04-29_04h38.35.363,classification_task,2021.2.3,Win32,119.9616123,59bda1adab8d830001fe5e4b,626b377229c10585ec392f89,626b4f55ded97edb650b23d1,,,,,,,,,,,,,,,,,,,,,,,l,0,1.8706,"[""0.268"",""0.539"",""0.030"",""0.916""]","[1,1,0,1]",0,45,45,45,1,0,0,,,0,FALSE,,,,,,,,,,,,,,,,,,,,,,,,,,,,,,
,HUNRobi,001,2022-04-29_04h38.35.363,classification_task,2021.2.3,Win32,119.9616123,59bda1adab8d830001fe5e4b,626b377229c10585ec392f89,626b4f55ded97edb650b23d1,,,,,,,,,,,,,,,,,,,,,,,l,0,0.2865,"[""0.268"",""0.539"",""0.790"",""0.654""]","[1,1,1,0]",0,46,46,46,1,0,0,,,0,FALSE,,,,,,,,,,,,,,,,,,,,,,,,,,,,,,
,HUNRobi,001,2022-04-29_04h38.35.363,classification_task,2021.2.3,Win32,119.9616123,59bda1adab8d830001fe5e4b,626b377229c10585ec392f89,626b4f55ded97edb650b23d1,,,,,,,,,,,,,,,,,,,,,,,l,0,1.6284,"[""0.175"",""0.367"",""0.876"",""0.956""]","[1,1,0,1]",0,47,47,47,1,0,1,,,0,FALSE,,,,,,,,,,,,,,,,,,,,,,,,,,,,,,
,HUNRobi,001,2022-04-29_04h38.35.363,classification_task,2021.2.3,Win32,119.9616123,59bda1adab8d830001fe5e4b,626b377229c10585ec392f89,626b4f55ded97edb650b23d1,,,,,,,,,,,,,,,,,,,,,,,l,0,1.4834,"[""0.175"",""0.410"",""0.615"",""0.956""]","[1,0,1,1]",0,48,48,48,1,0,1,,,0,FALSE,,,,,,,,,,,,,,,,,,,,,,,,,,,,,,
,HUNRobi,001,2022-04-29_04h38.35.363,classification_task,2021.2.3,Win32,119.9616123,59bda1adab8d830001fe5e4b,626b377229c10585ec392f89,626b4f55ded97edb650b23d1,,,,,,,,,,,,,,,,,,,,,,,a,0,1.0661,"[""0.040"",""0.330"",""0.500"",""0.711""]","[0,1,1,1]",0,49,49,49,1,1,0,,,0,FALSE,,,,,,,,,,,,,,,,,,,,,,,,,,,,,,
,HUNRobi,001,2022-04-29_04h38.35.363,classification_task,2021.2.3,Win32,119.9616123,59bda1adab8d830001fe5e4b,626b377229c10585ec392f89,626b4f55ded97edb650b23d1,,,,,,,,,,,,,,,,,,,,,,,a,1,0.1832,"[""0.268"",""0.876"",""0.790"",""0.916""]","[1,0,1,1]",0,50,50,50,1,0,0,,,0,FALSE,,,,,,,,,,,,,,,,,,,,,,,,,,,,,,
,HUNRobi,001,2022-04-29_04h38.35.363,classification_task,2021.2.3,Win32,119.9616123,59bda1adab8d830001fe5e4b,626b377229c10585ec392f89,626b4f55ded97edb650b23d1,,,,,,,,,,,,,,,,,,,,,,,a,0,1.013,"[""0.077"",""0.651"",""0.500"",""0.711""]","[1,0,1,1]",0,51,51,51,1,1,0,,,0,FALSE,,,,,,,,,,,,,,,,,,,,,,,,,,,,,,
,HUNRobi,001,2022-04-29_04h38.35.363,classification_task,2021.2.3,Win32,119.9616123,59bda1adab8d830001fe5e4b,626b377229c10585ec392f89,626b4f55ded97edb650b23d1,,,,,,,,,,,,,,,,,,,,,,,l,1,0.2945,"[""0.876"",""0.223"",""0.449"",""0.842""]","[0,1,1,1]",0,52,52,52,1,1,1,,,0,FALSE,,,,,,,,,,,,,,,,,,,,,,,,,,,,,,
,HUNRobi,001,2022-04-29_04h38.35.363,classification_task,2021.2.3,Win32,119.9616123,59bda1adab8d830001fe5e4b,626b377229c10585ec392f89,626b4f55ded97edb650b23d1,,,,,,,,,,,,,,,,,,,,,,,a,0,1.1668,"[""0.140"",""0.223"",""0.651"",""0.842""]","[1,1,0,1]",0,53,53,53,1,1,1,,,0,FALSE,,,,,,,,,,,,,,,,,,,,,,,,,,,,,,
,HUNRobi,001,2022-04-29_04h38.35.363,classification_task,2021.2.3,Win32,119.9616123,59bda1adab8d830001fe5e4b,626b377229c10585ec392f89,626b4f55ded97edb650b23d1,,,,,,,,,,,,,,,,,,,,,,,l,0,1.43,"[""0.030"",""0.539"",""0.790"",""0.916""]","[0,1,1,1]",0,54,54,54,1,0,0,,,0,FALSE,,,,,,,,,,,,,,,,,,,,,,,,,,,,,,
,HUNRobi,001,2022-04-29_04h38.35.363,classification_task,2021.2.3,Win32,119.9616123,59bda1adab8d830001fe5e4b,626b377229c10585ec392f89,626b4f55ded97edb650b23d1,,,,,,,,,,,,,,,,,,,,,,,l,0,0.3332,"[""0.268"",""0.539"",""0.790"",""0.651""]","[1,1,1,0]",0,55,55,55,1,0,0,,,0,FALSE,,,,,,,,,,,,,,,,,,,,,,,,,,,,,,
,HUNRobi,001,2022-04-29_04h38.35.363,classification_task,2021.2.3,Win32,119.9616123,59bda1adab8d830001fe5e4b,626b377229c10585ec392f89,626b4f55ded97edb650b23d1,,,,,,,,,,,,,,,,,,,,,,,l,1,0.2284,"[""0.077"",""0.330"",""0.500"",""0.030""]","[1,1,1,0]",0,56,56,56,1,1,0,,,0,FALSE,,,,,,,,,,,,,,,,,,,,,,,,,,,,,,
,HUNRobi,001,2022-04-29_04h38.35.363,classification_task,2021.2.3,Win32,119.9616123,59bda1adab8d830001fe5e4b,626b377229c10585ec392f89,626b4f55ded97edb650b23d1,,,,,,,,,,,,,,,,,,,,,,,l,0,0.6037,"[""0.030"",""0.367"",""0.615"",""0.956""]","[0,1,1,1]",0,57,57,57,1,0,1,,,0,FALSE,,,,,,,,,,,,,,,,,,,,,,,,,,,,,,
,HUNRobi,001,2022-04-29_04h38.35.363,classification_task,2021.2.3,Win32,119.9616123,59bda1adab8d830001fe5e4b,626b377229c10585ec392f89,626b4f55ded97edb650b23d1,,,,,,,,,,,,,,,,,,,,,,,a,0,0.3664,"[""0.140"",""0.876"",""0.449"",""0.842""]","[1,0,1,1]",0,58,58,58,1,1,1,,,0,FALSE,,,,,,,,,,,,,,,,,,,,,,,,,,,,,,
,HUNRobi,001,2022-04-29_04h38.35.363,classification_task,2021.2.3,Win32,119.9616123,59bda1adab8d830001fe5e4b,626b377229c10585ec392f89,626b4f55ded97edb650b23d1,,,,,,,,,,,,,,,,,,,,,,,l,0,0.2127,"[""0.268"",""0.539"",""0.030"",""0.916""]","[1,1,0,1]",0,59,59,59,1,0,0,,,0,FALSE,,,,,,,,,,,,,,,,,,,,,,,,,,,,,,
,HUNRobi,001,2022-04-29_04h38.35.363,classification_task,2021.2.3,Win32,119.9616123,59bda1adab8d830001fe5e4b,626b377229c10585ec392f89,626b4f55ded97edb650b23d1,,,,,,,,,,,,,,,,,,,,,,,a,1,0.2997,"[""0.175"",""0.367"",""0.675"",""0.956""]","[1,1,0,1]",0,60,60,60,1,0,1,,,0,FALSE,,,,,,,,,,,,,,,,,,,,,,,,,,,,,,
,HUNRobi,001,2022-04-29_04h38.35.363,classification_task,2021.2.3,Win32,119.9616123,59bda1adab8d830001fe5e4b,626b377229c10585ec392f89,626b4f55ded97edb650b23d1,,,,,,,,,,,,,,,,,,,,,,,a,0,0.8913,"[""0.140"",""0.223"",""0.449"",""0.410""]","[1,1,1,0]",0,61,61,61,1,1,1,,,0,FALSE,,,,,,,,,,,,,,,,,,,,,,,,,,,,,,
,HUNRobi,001,2022-04-29_04h38.35.363,classification_task,2021.2.3,Win32,119.9616123,59bda1adab8d830001fe5e4b,626b377229c10585ec392f89,626b4f55ded97edb650b23d1,,,,,,,,,,,,,,,,,,,,,,,l,0,0.7018,"[""0.175"",""0.367"",""0.615"",""0.034""]","[1,1,1,0]",0,62,62,62,1,0,1,,,0,FALSE,,,,,,,,,,,,,,,,,,,,,,,,,,,,,,
,HUNRobi,001,2022-04-29_04h38.35.363,classification_task,2021.2.3,Win32,119.9616123,59bda1adab8d830001fe5e4b,626b377229c10585ec392f89,626b4f55ded97edb650b23d1,,,,,,,,,,,,,,,,,,,,,,,l,1,0.2916,"[""0.077"",""0.330"",""0.034"",""0.711""]","[1,1,0,1]",0,63,63,63,1,1,0,,,0,FALSE,,,,,,,,,,,,,,,,,,,,,,,,,,,,,,
,HUNRobi,001,2022-04-29_04h38.35.363,classification_task,2021.2.3,Win32,119.9616123,59bda1adab8d830001fe5e4b,626b377229c10585ec392f89,626b4f55ded97edb650b23d1,,,,,,,,,,,,,,,,,,,,,,,,,,,,,,,,,,,,,,,0, ,,0,4.559082892,479.4101,0,0,0,0,1,2,1,,,,,,,,,,,,,,,,,
,HUNRobi,001,2022-04-29_04h38.35.363,classification_task,2021.2.3,Win32,119.9616123,59bda1adab8d830001fe5e4b,626b377229c10585ec392f89,626b4f55ded97edb650b23d1,,,,,,,,,,,,,,,,,,,,,,,,,,,,,,,,,,,,,,,1,  ,,0,5.808348031,485.1274,0,0,0,0,1,2,1,,,,,,,,,,,,,,,,,
,HUNRobi,001,2022-04-29_04h38.35.363,classification_task,2021.2.3,Win32,119.9616123,59bda1adab8d830001fe5e4b,626b377229c10585ec392f89,626b4f55ded97edb650b23d1,,,,,,,,,,,,,,,,,,,,,,,,,,,,,,,,,,,,,,,2,  ,,0,1.399176955,491.8725,0,0,0,0,1,2,1,,,,,,,,,,,,,,,,,
,HUNRobi,001,2022-04-29_04h38.35.363,classification_task,2021.2.3,Win32,119.9616123,59bda1adab8d830001fe5e4b,626b377229c10585ec392f89,626b4f55ded97edb650b23d1,,,,,,,,,,,,,,,,,,,,,,,,,,,,,,,,,,,,,,,,,,,,,0,0,0,0,1,,1,,,,,,,,,,,,,,,,,
,HUNRobi,001,2022-04-29_04h38.35.363,classification_task,2021.2.3,Win32,119.9616123,59bda1adab8d830001fe5e4b,626b377229c10585ec392f89,626b4f55ded97edb650b23d1,,,,,,,,,,,,,,,,,,,,,space,7.4439,,0,,"[""0.675"",""0.367"",""0.615"",""0.956""]","[0,1,1,1]",0,0,0,0,1,0,1,,,0,FALSE,,,,,,,,,,,,,,,,,,,,,,,,,,,,,,
,HUNRobi,001,2022-04-29_04h38.35.363,classification_task,2021.2.3,Win32,119.9616123,59bda1adab8d830001fe5e4b,626b377229c10585ec392f89,626b4f55ded97edb650b23d1,,,,,,,,,,,,,,,,,,,,,,,l,0,5.7572,"[""0.268"",""0.040"",""0.790"",""0.916""]","[1,0,1,1]",0,1,1,1,1,0,0,,,0,FALSE,,,,,,,,,,,,,,,,,,,,,,,,,,,,,,
,HUNRobi,001,2022-04-29_04h38.35.363,classification_task,2021.2.3,Win32,119.9616123,59bda1adab8d830001fe5e4b,626b377229c10585ec392f89,626b4f55ded97edb650b23d1,,,,,,,,,,,,,,,,,,,,,,,l,1,2.5435,"[""0.077"",""0.330"",""0.034"",""0.711""]","[1,1,0,1]",0,2,2,2,1,1,0,,,0,FALSE,,,,,,,,,,,,,,,,,,,,,,,,,,,,,,
,HUNRobi,001,2022-04-29_04h38.35.363,classification_task,2021.2.3,Win32,119.9616123,59bda1adab8d830001fe5e4b,626b377229c10585ec392f89,626b4f55ded97edb650b23d1,,,,,,,,,,,,,,,,,,,,,,,a,0,4.4038,"[""0.649"",""0.223"",""0.449"",""0.842""]","[0,1,1,1]",0,3,3,3,1,1,1,,,0,FALSE,,,,,,,,,,,,,,,,,,,,,,,,,,,,,,
,HUNRobi,001,2022-04-29_04h38.35.363,classification_task,2021.2.3,Win32,119.9616123,59bda1adab8d830001fe5e4b,626b377229c10585ec392f89,626b4f55ded97edb650b23d1,,,,,,,,,,,,,,,,,,,,,,,a,1,2.7574,"[""0.175"",""0.367"",""0.877"",""0.956""]","[1,1,0,1]",0,4,4,4,1,0,1,,,0,FALSE,,,,,,,,,,,,,,,,,,,,,,,,,,,,,,
,HUNRobi,001,2022-04-29_04h38.35.363,classification_task,2021.2.3,Win32,119.9616123,59bda1adab8d830001fe5e4b,626b377229c10585ec392f89,626b4f55ded97edb650b23d1,,,,,,,,,,,,,,,,,,,,,,,a,1,3.0716,"[""0.175"",""0.367"",""0.615"",""0.654""]","[1,1,1,0]",0,5,5,5,1,0,1,,,0,FALSE,,,,,,,,,,,,,,,,,,,,,,,,,,,,,,
,HUNRobi,001,2022-04-29_04h38.35.363,classification_task,2021.2.3,Win32,119.9616123,59bda1adab8d830001fe5e4b,626b377229c10585ec392f89,626b4f55ded97edb650b23d1,,,,,,,,,,,,,,,,,,,,,,,l,0,1.4098,"[""0.175"",""0.036"",""0.615"",""0.956""]","[1,0,1,1]",0,6,6,6,1,0,1,,,0,FALSE,,,,,,,,,,,,,,,,,,,,,,,,,,,,,,
,HUNRobi,001,2022-04-29_04h38.35.363,classification_task,2021.2.3,Win32,119.9616123,59bda1adab8d830001fe5e4b,626b377229c10585ec392f89,626b4f55ded97edb650b23d1,,,,,,,,,,,,,,,,,,,,,,,a,1,1.3536,"[""0.675"",""0.539"",""0.790"",""0.916""]","[0,1,1,1]",0,7,7,7,1,0,0,,,0,FALSE,,,,,,,,,,,,,,,,,,,,,,,,,,,,,,
,HUNRobi,001,2022-04-29_04h38.35.363,classification_task,2021.2.3,Win32,119.9616123,59bda1adab8d830001fe5e4b,626b377229c10585ec392f89,626b4f55ded97edb650b23d1,,,,,,,,,,,,,,,,,,,,,,,a,0,1.5511,"[""0.140"",""0.223"",""0.449"",""0.410""]","[1,1,1,0]",0,8,8,8,1,1,1,,,0,FALSE,,,,,,,,,,,,,,,,,,,,,,,,,,,,,,
,HUNRobi,001,2022-04-29_04h38.35.363,classification_task,2021.2.3,Win32,119.9616123,59bda1adab8d830001fe5e4b,626b377229c10585ec392f89,626b4f55ded97edb650b23d1,,,,,,,,,,,,,,,,,,,,,,,l,1,0.9486,"[""0.654"",""0.330"",""0.500"",""0.711""]","[0,1,1,1]",0,9,9,9,1,1,0,,,0,FALSE,,,,,,,,,,,,,,,,,,,,,,,,,,,,,,
,HUNRobi,001,2022-04-29_04h38.35.363,classification_task,2021.2.3,Win32,119.9616123,59bda1adab8d830001fe5e4b,626b377229c10585ec392f89,626b4f55ded97edb650b23d1,,,,,,,,,,,,,,,,,,,,,,,a,1,0.5324,"[""0.268"",""0.539"",""0.879"",""0.916""]","[1,1,0,1]",0,10,10,10,1,0,0,,,0,FALSE,,,,,,,,,,,,,,,,,,,,,,,,,,,,,,
,HUNRobi,001,2022-04-29_04h38.35.363,classification_task,2021.2.3,Win32,119.9616123,59bda1adab8d830001fe5e4b,626b377229c10585ec392f89,626b4f55ded97edb650b23d1,,,,,,,,,,,,,,,,,,,,,,,a,0,0.8806,"[""0.140"",""0.223"",""0.877"",""0.842""]","[1,1,0,1]",0,11,11,11,1,1,1,,,0,FALSE,,,,,,,,,,,,,,,,,,,,,,,,,,,,,,
,HUNRobi,001,2022-04-29_04h38.35.363,classification_task,2021.2.3,Win32,119.9616123,59bda1adab8d830001fe5e4b,626b377229c10585ec392f89,626b4f55ded97edb650b23d1,,,,,,,,,,,,,,,,,,,,,,,a,0,0.8621,"[""0.140"",""0.675"",""0.449"",""0.842""]","[1,0,1,1]",0,12,12,12,1,1,1,,,0,FALSE,,,,,,,,,,,,,,,,,,,,,,,,,,,,,,
,HUNRobi,001,2022-04-29_04h38.35.363,classification_task,2021.2.3,Win32,119.9616123,59bda1adab8d830001fe5e4b,626b377229c10585ec392f89,626b4f55ded97edb650b23d1,,,,,,,,,,,,,,,,,,,,,,,a,1,0.7763,"[""0.268"",""0.539"",""0.790"",""0.876""]","[1,1,1,0]",0,13,13,13,1,0,0,,,0,FALSE,,,,,,,,,,,,,,,,,,,,,,,,,,,,,,
,HUNRobi,001,2022-04-29_04h38.35.363,classification_task,2021.2.3,Win32,119.9616123,59bda1adab8d830001fe5e4b,626b377229c10585ec392f89,626b4f55ded97edb650b23d1,,,,,,,,,,,,,,,,,,,,,,,l,1,0.4498,"[""0.077"",""0.330"",""0.500"",""0.651""]","[1,1,1,0]",0,14,14,14,1,1,0,,,0,FALSE,,,,,,,,,,,,,,,,,,,,,,,,,,,,,,
,HUNRobi,001,2022-04-29_04h38.35.363,classification_task,2021.2.3,Win32,119.9616123,59bda1adab8d830001fe5e4b,626b377229c10585ec392f89,626b4f55ded97edb650b23d1,,,,,,,,,,,,,,,,,,,,,,,l,1,0.4325,"[""0.077"",""0.746"",""0.500"",""0.711""]","[1,0,1,1]",0,15,15,15,1,1,0,,,0,FALSE,,,,,,,,,,,,,,,,,,,,,,,,,,,,,,
,HUNRobi,001,2022-04-29_04h38.35.363,classification_task,2021.2.3,Win32,119.9616123,59bda1adab8d830001fe5e4b,626b377229c10585ec392f89,626b4f55ded97edb650b23d1,,,,,,,,,,,,,,,,,,,,,,,a,1,1.2154,"[""0.175"",""0.877"",""0.615"",""0.956""]","[1,0,1,1]",0,16,16,16,1,0,1,,,0,FALSE,,,,,,,,,,,,,,,,,,,,,,,,,,,,,,
,HUNRobi,001,2022-04-29_04h38.35.363,classification_task,2021.2.3,Win32,119.9616123,59bda1adab8d830001fe5e4b,626b377229c10585ec392f89,626b4f55ded97edb650b23d1,,,,,,,,,,,,,,,,,,,,,,,a,0,1.5244,"[""0.877"",""0.223"",""0.449"",""0.842""]","[0,1,1,1]",0,17,17,17,1,1,1,,,0,FALSE,,,,,,,,,,,,,,,,,,,,,,,,,,,,,,
,HUNRobi,001,2022-04-29_04h38.35.363,classification_task,2021.2.3,Win32,119.9616123,59bda1adab8d830001fe5e4b,626b377229c10585ec392f89,626b4f55ded97edb650b23d1,,,,,,,,,,,,,,,,,,,,,,,l,1,0.7085,"[""0.077"",""0.877"",""0.500"",""0.711""]","[1,0,1,1]",0,18,18,18,1,1,0,,,0,FALSE,,,,,,,,,,,,,,,,,,,,,,,,,,,,,,
,HUNRobi,001,2022-04-29_04h38.35.363,classification_task,2021.2.3,Win32,119.9616123,59bda1adab8d830001fe5e4b,626b377229c10585ec392f89,626b4f55ded97edb650b23d1,,,,,,,,,,,,,,,,,,,,,,,a,0,1.4003,"[""0.140"",""0.223"",""0.449"",""0.030""]","[1,1,1,0]",0,19,19,19,1,1,1,,,0,FALSE,,,,,,,,,,,,,,,,,,,,,,,,,,,,,,
,HUNRobi,001,2022-04-29_04h38.35.363,classification_task,2021.2.3,Win32,119.9616123,59bda1adab8d830001fe5e4b,626b377229c10585ec392f89,626b4f55ded97edb650b23d1,,,,,,,,,,,,,,,,,,,,,,,a,1,1.216,"[""0.175"",""0.367"",""0.615"",""0.651""]","[1,1,1,0]",0,20,20,20,1,0,1,,,0,FALSE,,,,,,,,,,,,,,,,,,,,,,,,,,,,,,
,HUNRobi,001,2022-04-29_04h38.35.363,classification_task,2021.2.3,Win32,119.9616123,59bda1adab8d830001fe5e4b,626b377229c10585ec392f89,626b4f55ded97edb650b23d1,,,,,,,,,,,,,,,,,,,,,,,l,1,1.3001,"[""0.140"",""0.223"",""0.876"",""0.842""]","[1,1,0,1]",0,21,21,21,1,1,1,,,0,FALSE,,,,,,,,,,,,,,,,,,,,,,,,,,,,,,
,HUNRobi,001,2022-04-29_04h38.35.363,classification_task,2021.2.3,Win32,119.9616123,59bda1adab8d830001fe5e4b,626b377229c10585ec392f89,626b4f55ded97edb650b23d1,,,,,,,,,,,,,,,,,,,,,,,a,1,1.4902,"[""0.036"",""0.367"",""0.615"",""0.956""]","[0,1,1,1]",0,22,22,22,1,0,1,,,0,FALSE,,,,,,,,,,,,,,,,,,,,,,,,,,,,,,
,HUNRobi,001,2022-04-29_04h38.35.363,classification_task,2021.2.3,Win32,119.9616123,59bda1adab8d830001fe5e4b,626b377229c10585ec392f89,626b4f55ded97edb650b23d1,,,,,,,,,,,,,,,,,,,,,,,l,0,1.2599,"[""0.175"",""0.367"",""0.876"",""0.956""]","[1,1,0,1]",0,23,23,23,1,0,1,,,0,FALSE,,,,,,,,,,,,,,,,,,,,,,,,,,,,,,
,HUNRobi,001,2022-04-29_04h38.35.363,classification_task,2021.2.3,Win32,119.9616123,59bda1adab8d830001fe5e4b,626b377229c10585ec392f89,626b4f55ded97edb650b23d1,,,,,,,,,,,,,,,,,,,,,,,a,1,0.8805,"[""0.030"",""0.539"",""0.790"",""0.916""]","[0,1,1,1]",0,24,24,24,1,0,0,,,0,FALSE,,,,,,,,,,,,,,,,,,,,,,,,,,,,,,
,HUNRobi,001,2022-04-29_04h38.35.363,classification_task,2021.2.3,Win32,119.9616123,59bda1adab8d830001fe5e4b,626b377229c10585ec392f89,626b4f55ded97edb650b23d1,,,,,,,,,,,,,,,,,,,,,,,l,1,0.9161,"[""0.077"",""0.330"",""0.876"",""0.711""]","[1,1,0,1]",0,25,25,25,1,1,0,,,0,FALSE,,,,,,,,,,,,,,,,,,,,,,,,,,,,,,
,HUNRobi,001,2022-04-29_04h38.35.363,classification_task,2021.2.3,Win32,119.9616123,59bda1adab8d830001fe5e4b,626b377229c10585ec392f89,626b4f55ded97edb650b23d1,,,,,,,,,,,,,,,,,,,,,,,a,1,1.0748,"[""0.268"",""0.034"",""0.790"",""0.916""]","[1,0,1,1]",0,26,26,26,1,0,0,,,0,FALSE,,,,,,,,,,,,,,,,,,,,,,,,,,,,,,
,HUNRobi,001,2022-04-29_04h38.35.363,classification_task,2021.2.3,Win32,119.9616123,59bda1adab8d830001fe5e4b,626b377229c10585ec392f89,626b4f55ded97edb650b23d1,,,,,,,,,,,,,,,,,,,,,,,l,1,0.724,"[""0.675"",""0.330"",""0.500"",""0.711""]","[0,1,1,1]",0,27,27,27,1,1,0,,,0,FALSE,,,,,,,,,,,,,,,,,,,,,,,,,,,,,,
,HUNRobi,001,2022-04-29_04h38.35.363,classification_task,2021.2.3,Win32,119.9616123,59bda1adab8d830001fe5e4b,626b377229c10585ec392f89,626b4f55ded97edb650b23d1,,,,,,,,,,,,,,,,,,,,,,,a,1,0.5364,"[""0.268"",""0.539"",""0.790"",""0.036""]","[1,1,1,0]",0,28,28,28,1,0,0,,,0,FALSE,,,,,,,,,,,,,,,,,,,,,,,,,,,,,,
,HUNRobi,001,2022-04-29_04h38.35.363,classification_task,2021.2.3,Win32,119.9616123,59bda1adab8d830001fe5e4b,626b377229c10585ec392f89,626b4f55ded97edb650b23d1,,,,,,,,,,,,,,,,,,,,,,,l,1,0.5456,"[""0.077"",""0.330"",""0.500"",""0.030""]","[1,1,1,0]",0,29,29,29,1,1,0,,,0,FALSE,,,,,,,,,,,,,,,,,,,,,,,,,,,,,,
,HUNRobi,001,2022-04-29_04h38.35.363,classification_task,2021.2.3,Win32,119.9616123,59bda1adab8d830001fe5e4b,626b377229c10585ec392f89,626b4f55ded97edb650b23d1,,,,,,,,,,,,,,,,,,,,,,,l,1,0.8175,"[""0.140"",""0.876"",""0.449"",""0.842""]","[1,0,1,1]",0,30,30,30,1,1,1,,,0,FALSE,,,,,,,,,,,,,,,,,,,,,,,,,,,,,,
,HUNRobi,001,2022-04-29_04h38.35.363,classification_task,2021.2.3,Win32,119.9616123,59bda1adab8d830001fe5e4b,626b377229c10585ec392f89,626b4f55ded97edb650b23d1,,,,,,,,,,,,,,,,,,,,,,,a,1,0.704,"[""0.268"",""0.539"",""0.879"",""0.916""]","[1,1,0,1]",0,31,31,31,1,0,0,,,0,FALSE,,,,,,,,,,,,,,,,,,,,,,,,,,,,,,
,HUNRobi,001,2022-04-29_04h38.35.363,classification_task,2021.2.3,Win32,119.9616123,59bda1adab8d830001fe5e4b,626b377229c10585ec392f89,626b4f55ded97edb650b23d1,,,,,,,,,,,,,,,,,,,,,,,l,1,0.5039,"[""0.077"",""0.651"",""0.500"",""0.711""]","[1,0,1,1]",0,32,32,32,1,1,0,,,0,FALSE,,,,,,,,,,,,,,,,,,,,,,,,,,,,,,
,HUNRobi,001,2022-04-29_04h38.35.363,classification_task,2021.2.3,Win32,119.9616123,59bda1adab8d830001fe5e4b,626b377229c10585ec392f89,626b4f55ded97edb650b23d1,,,,,,,,,,,,,,,,,,,,,,,a,1,0.3735,"[""0.268"",""0.539"",""0.879"",""0.916""]","[1,1,0,1]",0,33,33,33,1,0,0,,,0,FALSE,,,,,,,,,,,,,,,,,,,,,,,,,,,,,,
,HUNRobi,001,2022-04-29_04h38.35.363,classification_task,2021.2.3,Win32,119.9616123,59bda1adab8d830001fe5e4b,626b377229c10585ec392f89,626b4f55ded97edb650b23d1,,,,,,,,,,,,,,,,,,,,,,,a,0,0.7489,"[""0.140"",""0.040"",""0.449"",""0.842""]","[1,0,1,1]",0,34,34,34,1,1,1,,,0,FALSE,,,,,,,,,,,,,,,,,,,,,,,,,,,,,,
,HUNRobi,001,2022-04-29_04h38.35.363,classification_task,2021.2.3,Win32,119.9616123,59bda1adab8d830001fe5e4b,626b377229c10585ec392f89,626b4f55ded97edb650b23d1,,,,,,,,,,,,,,,,,,,,,,,l,1,0.5648,"[""0.077"",""0.330"",""0.500"",""0.036""]","[1,1,1,0]",0,35,35,35,1,1,0,,,0,FALSE,,,,,,,,,,,,,,,,,,,,,,,,,,,,,,
,HUNRobi,001,2022-04-29_04h38.35.363,classification_task,2021.2.3,Win32,119.9616123,59bda1adab8d830001fe5e4b,626b377229c10585ec392f89,626b4f55ded97edb650b23d1,,,,,,,,,,,,,,,,,,,,,,,l,0,1.066,"[""0.175"",""0.651"",""0.615"",""0.956""]","[1,0,1,1]",0,36,36,36,1,0,1,,,0,FALSE,,,,,,,,,,,,,,,,,,,,,,,,,,,,,,
,HUNRobi,001,2022-04-29_04h38.35.363,classification_task,2021.2.3,Win32,119.9616123,59bda1adab8d830001fe5e4b,626b377229c10585ec392f89,626b4f55ded97edb650b23d1,,,,,,,,,,,,,,,,,,,,,,,a,0,0.9123,"[""0.140"",""0.223"",""0.876"",""0.842""]","[1,1,0,1]",0,37,37,37,1,1,1,,,0,FALSE,,,,,,,,,,,,,,,,,,,,,,,,,,,,,,
,HUNRobi,001,2022-04-29_04h38.35.363,classification_task,2021.2.3,Win32,119.9616123,59bda1adab8d830001fe5e4b,626b377229c10585ec392f89,626b4f55ded97edb650b23d1,,,,,,,,,,,,,,,,,,,,,,,l,0,1.2997,"[""0.175"",""0.367"",""0.746"",""0.956""]","[1,1,0,1]",0,38,38,38,1,0,1,,,0,FALSE,,,,,,,,,,,,,,,,,,,,,,,,,,,,,,
,HUNRobi,001,2022-04-29_04h38.35.363,classification_task,2021.2.3,Win32,119.9616123,59bda1adab8d830001fe5e4b,626b377229c10585ec392f89,626b4f55ded97edb650b23d1,,,,,,,,,,,,,,,,,,,,,,,a,1,0.7566,"[""0.268"",""0.651"",""0.790"",""0.916""]","[1,0,1,1]",0,39,39,39,1,0,0,,,0,FALSE,,,,,,,,,,,,,,,,,,,,,,,,,,,,,,
,HUNRobi,001,2022-04-29_04h38.35.363,classification_task,2021.2.3,Win32,119.9616123,59bda1adab8d830001fe5e4b,626b377229c10585ec392f89,626b4f55ded97edb650b23d1,,,,,,,,,,,,,,,,,,,,,,,a,1,1.1231,"[""0.034"",""0.367"",""0.615"",""0.956""]","[0,1,1,1]",0,40,40,40,1,0,1,,,0,FALSE,,,,,,,,,,,,,,,,,,,,,,,,,,,,,,
,HUNRobi,001,2022-04-29_04h38.35.363,classification_task,2021.2.3,Win32,119.9616123,59bda1adab8d830001fe5e4b,626b377229c10585ec392f89,626b4f55ded97edb650b23d1,,,,,,,,,,,,,,,,,,,,,,,a,0,1.0327,"[""0.140"",""0.223"",""0.449"",""0.877""]","[1,1,1,0]",0,41,41,41,1,1,1,,,0,FALSE,,,,,,,,,,,,,,,,,,,,,,,,,,,,,,
,HUNRobi,001,2022-04-29_04h38.35.363,classification_task,2021.2.3,Win32,119.9616123,59bda1adab8d830001fe5e4b,626b377229c10585ec392f89,626b4f55ded97edb650b23d1,,,,,,,,,,,,,,,,,,,,,,,a,1,0.5639,"[""0.877"",""0.539"",""0.790"",""0.916""]","[0,1,1,1]",0,42,42,42,1,0,0,,,0,FALSE,,,,,,,,,,,,,,,,,,,,,,,,,,,,,,
,HUNRobi,001,2022-04-29_04h38.35.363,classification_task,2021.2.3,Win32,119.9616123,59bda1adab8d830001fe5e4b,626b377229c10585ec392f89,626b4f55ded97edb650b23d1,,,,,,,,,,,,,,,,,,,,,,,l,0,0.8988,"[""0.175"",""0.367"",""0.615"",""0.877""]","[1,1,1,0]",0,43,43,43,1,0,1,,,0,FALSE,,,,,,,,,,,,,,,,,,,,,,,,,,,,,,
,HUNRobi,001,2022-04-29_04h38.35.363,classification_task,2021.2.3,Win32,119.9616123,59bda1adab8d830001fe5e4b,626b377229c10585ec392f89,626b4f55ded97edb650b23d1,,,,,,,,,,,,,,,,,,,,,,,l,1,0.6603,"[""0.030"",""0.223"",""0.449"",""0.842""]","[0,1,1,1]",0,44,44,44,1,1,1,,,0,FALSE,,,,,,,,,,,,,,,,,,,,,,,,,,,,,,
,HUNRobi,001,2022-04-29_04h38.35.363,classification_task,2021.2.3,Win32,119.9616123,59bda1adab8d830001fe5e4b,626b377229c10585ec392f89,626b4f55ded97edb650b23d1,,,,,,,,,,,,,,,,,,,,,,,l,1,0.6922,"[""0.077"",""0.330"",""0.572"",""0.711""]","[1,1,0,1]",0,45,45,45,1,1,0,,,0,FALSE,,,,,,,,,,,,,,,,,,,,,,,,,,,,,,
,HUNRobi,001,2022-04-29_04h38.35.363,classification_task,2021.2.3,Win32,119.9616123,59bda1adab8d830001fe5e4b,626b377229c10585ec392f89,626b4f55ded97edb650b23d1,,,,,,,,,,,,,,,,,,,,,,,l,1,0.6004,"[""0.751"",""0.330"",""0.500"",""0.711""]","[0,1,1,1]",0,46,46,46,1,1,0,,,0,FALSE,,,,,,,,,,,,,,,,,,,,,,,,,,,,,,
,HUNRobi,001,2022-04-29_04h38.35.363,classification_task,2021.2.3,Win32,119.9616123,59bda1adab8d830001fe5e4b,626b377229c10585ec392f89,626b4f55ded97edb650b23d1,,,,,,,,,,,,,,,,,,,,,,,a,1,0.474,"[""0.268"",""0.539"",""0.790"",""0.879""]","[1,1,1,0]",0,47,47,47,1,0,0,,,0,FALSE,,,,,,,,,,,,,,,,,,,,,,,,,,,,,,
,HUNRobi,001,2022-04-29_04h38.35.363,classification_task,2021.2.3,Win32,119.9616123,59bda1adab8d830001fe5e4b,626b377229c10585ec392f89,626b4f55ded97edb650b23d1,,,,,,,,,,,,,,,,,,,,,,,l,1,0.7389,"[""0.140"",""0.746"",""0.449"",""0.842""]","[1,0,1,1]",0,48,48,48,1,1,1,,,0,FALSE,,,,,,,,,,,,,,,,,,,,,,,,,,,,,,
,HUNRobi,001,2022-04-29_04h38.35.363,classification_task,2021.2.3,Win32,119.9616123,59bda1adab8d830001fe5e4b,626b377229c10585ec392f89,626b4f55ded97edb650b23d1,,,,,,,,,,,,,,,,,,,,,,,l,0,0.7743,"[""0.040"",""0.367"",""0.615"",""0.956""]","[0,1,1,1]",0,49,49,49,1,0,1,,,0,FALSE,,,,,,,,,,,,,,,,,,,,,,,,,,,,,,
,HUNRobi,001,2022-04-29_04h38.35.363,classification_task,2021.2.3,Win32,119.9616123,59bda1adab8d830001fe5e4b,626b377229c10585ec392f89,626b4f55ded97edb650b23d1,,,,,,,,,,,,,,,,,,,,,,,l,1,0.7659,"[""0.140"",""0.223"",""0.449"",""0.876""]","[1,1,1,0]",0,50,50,50,1,1,1,,,0,FALSE,,,,,,,,,,,,,,,,,,,,,,,,,,,,,,
,HUNRobi,001,2022-04-29_04h38.35.363,classification_task,2021.2.3,Win32,119.9616123,59bda1adab8d830001fe5e4b,626b377229c10585ec392f89,626b4f55ded97edb650b23d1,,,,,,,,,,,,,,,,,,,,,,,a,1,0.8753,"[""0.175"",""0.877"",""0.615"",""0.956""]","[1,0,1,1]",0,51,51,51,1,0,1,,,0,FALSE,,,,,,,,,,,,,,,,,,,,,,,,,,,,,,
,HUNRobi,001,2022-04-29_04h38.35.363,classification_task,2021.2.3,Win32,119.9616123,59bda1adab8d830001fe5e4b,626b377229c10585ec392f89,626b4f55ded97edb650b23d1,,,,,,,,,,,,,,,,,,,,,,,a,1,1.0509,"[""0.268"",""0.539"",""0.790"",""0.654""]","[1,1,1,0]",0,52,52,52,1,0,0,,,0,FALSE,,,,,,,,,,,,,,,,,,,,,,,,,,,,,,
,HUNRobi,001,2022-04-29_04h38.35.363,classification_task,2021.2.3,Win32,119.9616123,59bda1adab8d830001fe5e4b,626b377229c10585ec392f89,626b4f55ded97edb650b23d1,,,,,,,,,,,,,,,,,,,,,,,a,1,0.9015,"[""0.034"",""0.539"",""0.790"",""0.916""]","[0,1,1,1]",0,53,53,53,1,0,0,,,0,FALSE,,,,,,,,,,,,,,,,,,,,,,,,,,,,,,
,HUNRobi,001,2022-04-29_04h38.35.363,classification_task,2021.2.3,Win32,119.9616123,59bda1adab8d830001fe5e4b,626b377229c10585ec392f89,626b4f55ded97edb650b23d1,,,,,,,,,,,,,,,,,,,,,,,a,1,0.6994,"[""0.268"",""0.751"",""0.790"",""0.916""]","[1,0,1,1]",0,54,54,54,1,0,0,,,0,FALSE,,,,,,,,,,,,,,,,,,,,,,,,,,,,,,
,HUNRobi,001,2022-04-29_04h38.35.363,classification_task,2021.2.3,Win32,119.9616123,59bda1adab8d830001fe5e4b,626b377229c10585ec392f89,626b4f55ded97edb650b23d1,,,,,,,,,,,,,,,,,,,,,,,l,1,0.6037,"[""0.877"",""0.330"",""0.500"",""0.711""]","[0,1,1,1]",0,55,55,55,1,1,0,,,0,FALSE,,,,,,,,,,,,,,,,,,,,,,,,,,,,,,
,HUNRobi,001,2022-04-29_04h38.35.363,classification_task,2021.2.3,Win32,119.9616123,59bda1adab8d830001fe5e4b,626b377229c10585ec392f89,626b4f55ded97edb650b23d1,,,,,,,,,,,,,,,,,,,,,,,l,1,0.608,"[""0.077"",""0.751"",""0.500"",""0.711""]","[1,0,1,1]",0,56,56,56,1,1,0,,,0,FALSE,,,,,,,,,,,,,,,,,,,,,,,,,,,,,,
,HUNRobi,001,2022-04-29_04h38.35.363,classification_task,2021.2.3,Win32,119.9616123,59bda1adab8d830001fe5e4b,626b377229c10585ec392f89,626b4f55ded97edb650b23d1,,,,,,,,,,,,,,,,,,,,,,,a,0,1.6938,"[""0.140"",""0.223"",""0.879"",""0.842""]","[1,1,0,1]",0,57,57,57,1,1,1,,,0,FALSE,,,,,,,,,,,,,,,,,,,,,,,,,,,,,,
,HUNRobi,001,2022-04-29_04h38.35.363,classification_task,2021.2.3,Win32,119.9616123,59bda1adab8d830001fe5e4b,626b377229c10585ec392f89,626b4f55ded97edb650b23d1,,,,,,,,,,,,,,,,,,,,,,,a,1,0.7605,"[""0.268"",""0.539"",""0.572"",""0.916""]","[1,1,0,1]",0,58,58,58,1,0,0,,,0,FALSE,,,,,,,,,,,,,,,,,,,,,,,,,,,,,,
,HUNRobi,001,2022-04-29_04h38.35.363,classification_task,2021.2.3,Win32,119.9616123,59bda1adab8d830001fe5e4b,626b377229c10585ec392f89,626b4f55ded97edb650b23d1,,,,,,,,,,,,,,,,,,,,,,,a,1,1.8781,"[""0.175"",""0.367"",""0.615"",""0.572""]","[1,1,1,0]",0,59,59,59,1,0,1,,,0,FALSE,,,,,,,,,,,,,,,,,,,,,,,,,,,,,,
,HUNRobi,001,2022-04-29_04h38.35.363,classification_task,2021.2.3,Win32,119.9616123,59bda1adab8d830001fe5e4b,626b377229c10585ec392f89,626b4f55ded97edb650b23d1,,,,,,,,,,,,,,,,,,,,,,,l,1,0.806,"[""0.077"",""0.330"",""0.500"",""0.030""]","[1,1,1,0]",0,60,60,60,1,1,0,,,0,FALSE,,,,,,,,,,,,,,,,,,,,,,,,,,,,,,
,HUNRobi,001,2022-04-29_04h38.35.363,classification_task,2021.2.3,Win32,119.9616123,59bda1adab8d830001fe5e4b,626b377229c10585ec392f89,626b4f55ded97edb650b23d1,,,,,,,,,,,,,,,,,,,,,,,a,0,1.3654,"[""0.649"",""0.223"",""0.449"",""0.842""]","[0,1,1,1]",0,61,61,61,1,1,1,,,0,FALSE,,,,,,,,,,,,,,,,,,,,,,,,,,,,,,
,HUNRobi,001,2022-04-29_04h38.35.363,classification_task,2021.2.3,Win32,119.9616123,59bda1adab8d830001fe5e4b,626b377229c10585ec392f89,626b4f55ded97edb650b23d1,,,,,,,,,,,,,,,,,,,,,,,a,1,0.9532,"[""0.175"",""0.367"",""0.751"",""0.956""]","[1,1,0,1]",0,62,62,62,1,0,1,,,0,FALSE,,,,,,,,,,,,,,,,,,,,,,,,,,,,,,
,HUNRobi,001,2022-04-29_04h38.35.363,classification_task,2021.2.3,Win32,119.9616123,59bda1adab8d830001fe5e4b,626b377229c10585ec392f89,626b4f55ded97edb650b23d1,,,,,,,,,,,,,,,,,,,,,,,l,1,0.7311,"[""0.077"",""0.330"",""0.649"",""0.711""]","[1,1,0,1]",0,63,63,63,1,1,0,,,0,FALSE,,,,,,,,,,,,,,,,,,,,,,,,,,,,,,
,HUNRobi,001,2022-04-29_04h38.35.363,classification_task,2021.2.3,Win32,119.9616123,59bda1adab8d830001fe5e4b,626b377229c10585ec392f89,626b4f55ded97edb650b23d1,,,,,,,,,,,,,,,,,,,,,,,,,,,,,,,,,,,,,,,0, ,,0,1.766607878,161.87,0,1,1,1,1,2,2,,,,,,,,,,,,,,,,,
,HUNRobi,001,2022-04-29_04h38.35.363,classification_task,2021.2.3,Win32,119.9616123,59bda1adab8d830001fe5e4b,626b377229c10585ec392f89,626b4f55ded97edb650b23d1,,,,,,,,,,,,,,,,,,,,,,,,,,,,,,,,,,,,,,,1,  ,,0,4.657064472,167.7821,0,1,1,1,1,2,2,,,,,,,,,,,,,,,,,
,HUNRobi,001,2022-04-29_04h38.35.363,classification_task,2021.2.3,Win32,119.9616123,59bda1adab8d830001fe5e4b,626b377229c10585ec392f89,626b4f55ded97edb650b23d1,,,,,,,,,,,,,,,,,,,,,,,,,,,,,,,,,,,,,,,2,  ,,0,1.252204586,170.9785,0,1,1,1,1,2,2,,,,,,,,,,,,,,,,,
,HUNRobi,001,2022-04-29_04h38.35.363,classification_task,2021.2.3,Win32,119.9616123,59bda1adab8d830001fe5e4b,626b377229c10585ec392f89,626b4f55ded97edb650b23d1,,,,,,,,,,,,,,,,,,,,,,,,,,,,,,,,,,,,,,,,,,,,,0,1,1,1,1,,2,,,,,,,,,,,,,,,,,
,HUNRobi,001,2022-04-29_04h38.35.363,classification_task,2021.2.3,Win32,119.9616123,59bda1adab8d830001fe5e4b,626b377229c10585ec392f89,626b4f55ded97edb650b23d1,,,,,,,,,,,,,,,,,,,,,space,7.0453,a,0,2.7576,"[""0.746"",""0.330"",""0.500"",""0.711""]","[0,1,1,1]",0,0,0,0,1,1,0,,,0,FALSE,,,,,,,,,,,,,,,,,,,,,,,,,,,,,,
,HUNRobi,001,2022-04-29_04h38.35.363,classification_task,2021.2.3,Win32,119.9616123,59bda1adab8d830001fe5e4b,626b377229c10585ec392f89,626b4f55ded97edb650b23d1,,,,,,,,,,,,,,,,,,,,,,,l,1,1.658,"[""0.077"",""0.330"",""0.030"",""0.711""]","[1,1,0,1]",0,1,1,1,1,1,0,,,0,FALSE,,,,,,,,,,,,,,,,,,,,,,,,,,,,,,
,HUNRobi,001,2022-04-29_04h38.35.363,classification_task,2021.2.3,Win32,119.9616123,59bda1adab8d830001fe5e4b,626b377229c10585ec392f89,626b4f55ded97edb650b23d1,,,,,,,,,,,,,,,,,,,,,,,l,1,3.7277,"[""0.077"",""0.330"",""0.500"",""0.876""]","[1,1,1,0]",0,2,2,2,1,1,0,,,0,FALSE,,,,,,,,,,,,,,,,,,,,,,,,,,,,,,
,HUNRobi,001,2022-04-29_04h38.35.363,classification_task,2021.2.3,Win32,119.9616123,59bda1adab8d830001fe5e4b,626b377229c10585ec392f89,626b4f55ded97edb650b23d1,,,,,,,,,,,,,,,,,,,,,,,l,0,2.1623,"[""0.175"",""0.367"",""0.615"",""0.751""]","[1,1,1,0]",0,3,3,3,1,0,1,,,0,FALSE,,,,,,,,,,,,,,,,,,,,,,,,,,,,,,
,HUNRobi,001,2022-04-29_04h38.35.363,classification_task,2021.2.3,Win32,119.9616123,59bda1adab8d830001fe5e4b,626b377229c10585ec392f89,626b4f55ded97edb650b23d1,,,,,,,,,,,,,,,,,,,,,,,a,1,2.1859,"[""0.268"",""0.030"",""0.790"",""0.916""]","[1,0,1,1]",0,4,4,4,1,0,0,,,0,FALSE,,,,,,,,,,,,,,,,,,,,,,,,,,,,,,
,HUNRobi,001,2022-04-29_04h38.35.363,classification_task,2021.2.3,Win32,119.9616123,59bda1adab8d830001fe5e4b,626b377229c10585ec392f89,626b4f55ded97edb650b23d1,,,,,,,,,,,,,,,,,,,,,,,l,1,1.9882,"[""0.140"",""0.223"",""0.449"",""0.572""]","[1,1,1,0]",0,5,5,5,1,1,1,,,0,FALSE,,,,,,,,,,,,,,,,,,,,,,,,,,,,,,
,HUNRobi,001,2022-04-29_04h38.35.363,classification_task,2021.2.3,Win32,119.9616123,59bda1adab8d830001fe5e4b,626b377229c10585ec392f89,626b4f55ded97edb650b23d1,,,,,,,,,,,,,,,,,,,,,,,l,1,1.3157,"[""0.077"",""0.036"",""0.500"",""0.711""]","[1,0,1,1]",0,6,6,6,1,1,0,,,0,FALSE,,,,,,,,,,,,,,,,,,,,,,,,,,,,,,
,HUNRobi,001,2022-04-29_04h38.35.363,classification_task,2021.2.3,Win32,119.9616123,59bda1adab8d830001fe5e4b,626b377229c10585ec392f89,626b4f55ded97edb650b23d1,,,,,,,,,,,,,,,,,,,,,,,a,1,2.3197,"[""0.034"",""0.367"",""0.615"",""0.956""]","[0,1,1,1]",0,7,7,7,1,0,1,,,0,FALSE,,,,,,,,,,,,,,,,,,,,,,,,,,,,,,
,HUNRobi,001,2022-04-29_04h38.35.363,classification_task,2021.2.3,Win32,119.9616123,59bda1adab8d830001fe5e4b,626b377229c10585ec392f89,626b4f55ded97edb650b23d1,,,,,,,,,,,,,,,,,,,,,,,a,0,1.5788,"[""0.140"",""0.746"",""0.449"",""0.842""]","[1,0,1,1]",0,8,8,8,1,1,1,,,0,FALSE,,,,,,,,,,,,,,,,,,,,,,,,,,,,,,
,HUNRobi,001,2022-04-29_04h38.35.363,classification_task,2021.2.3,Win32,119.9616123,59bda1adab8d830001fe5e4b,626b377229c10585ec392f89,626b4f55ded97edb650b23d1,,,,,,,,,,,,,,,,,,,,,,,a,0,1.6292,"[""0.140"",""0.223"",""0.746"",""0.842""]","[1,1,0,1]",0,9,9,9,1,1,1,,,0,FALSE,,,,,,,,,,,,,,,,,,,,,,,,,,,,,,
,HUNRobi,001,2022-04-29_04h38.35.363,classification_task,2021.2.3,Win32,119.9616123,59bda1adab8d830001fe5e4b,626b377229c10585ec392f89,626b4f55ded97edb650b23d1,,,,,,,,,,,,,,,,,,,,,,,a,1,1.4412,"[""0.175"",""0.879"",""0.615"",""0.956""]","[1,0,1,1]",0,10,10,10,1,0,1,,,0,FALSE,,,,,,,,,,,,,,,,,,,,,,,,,,,,,,
,HUNRobi,001,2022-04-29_04h38.35.363,classification_task,2021.2.3,Win32,119.9616123,59bda1adab8d830001fe5e4b,626b377229c10585ec392f89,626b4f55ded97edb650b23d1,,,,,,,,,,,,,,,,,,,,,,,l,0,1.1344,"[""0.175"",""0.367"",""0.030"",""0.956""]","[1,1,0,1]",0,11,11,11,1,0,1,,,0,FALSE,,,,,,,,,,,,,,,,,,,,,,,,,,,,,,
,HUNRobi,001,2022-04-29_04h38.35.363,classification_task,2021.2.3,Win32,119.9616123,59bda1adab8d830001fe5e4b,626b377229c10585ec392f89,626b4f55ded97edb650b23d1,,,,,,,,,,,,,,,,,,,,,,,a,1,1.9298,"[""0.651"",""0.539"",""0.790"",""0.916""]","[0,1,1,1]",0,12,12,12,1,0,0,,,0,FALSE,,,,,,,,,,,,,,,,,,,,,,,,,,,,,,
,HUNRobi,001,2022-04-29_04h38.35.363,classification_task,2021.2.3,Win32,119.9616123,59bda1adab8d830001fe5e4b,626b377229c10585ec392f89,626b4f55ded97edb650b23d1,,,,,,,,,,,,,,,,,,,,,,,l,0,1.2219,"[""0.268"",""0.539"",""0.036"",""0.916""]","[1,1,0,1]",0,13,13,13,1,0,0,,,0,FALSE,,,,,,,,,,,,,,,,,,,,,,,,,,,,,,
,HUNRobi,001,2022-04-29_04h38.35.363,classification_task,2021.2.3,Win32,119.9616123,59bda1adab8d830001fe5e4b,626b377229c10585ec392f89,626b4f55ded97edb650b23d1,,,,,,,,,,,,,,,,,,,,,,,a,1,2.2416,"[""0.268"",""0.539"",""0.790"",""0.572""]","[1,1,1,0]",0,14,14,14,1,0,0,,,0,FALSE,,,,,,,,,,,,,,,,,,,,,,,,,,,,,,
,HUNRobi,001,2022-04-29_04h38.35.363,classification_task,2021.2.3,Win32,119.9616123,59bda1adab8d830001fe5e4b,626b377229c10585ec392f89,626b4f55ded97edb650b23d1,,,,,,,,,,,,,,,,,,,,,,,a,0,2.8539,"[""0.654"",""0.223"",""0.449"",""0.842""]","[0,1,1,1]",0,15,15,15,1,1,1,,,0,FALSE,,,,,,,,,,,,,,,,,,,,,,,,,,,,,,
,HUNRobi,001,2022-04-29_04h38.35.363,classification_task,2021.2.3,Win32,119.9616123,59bda1adab8d830001fe5e4b,626b377229c10585ec392f89,626b4f55ded97edb650b23d1,,,,,,,,,,,,,,,,,,,,,,,l,1,1.357,"[""0.140"",""0.223"",""0.034"",""0.842""]","[1,1,0,1]",0,16,16,16,1,1,1,,,0,FALSE,,,,,,,,,,,,,,,,,,,,,,,,,,,,,,
,HUNRobi,001,2022-04-29_04h38.35.363,classification_task,2021.2.3,Win32,119.9616123,59bda1adab8d830001fe5e4b,626b377229c10585ec392f89,626b4f55ded97edb650b23d1,,,,,,,,,,,,,,,,,,,,,,,a,0,1.3413,"[""0.077"",""0.330"",""0.746"",""0.711""]","[1,1,0,1]",0,17,17,17,1,1,0,,,0,FALSE,,,,,,,,,,,,,,,,,,,,,,,,,,,,,,
,HUNRobi,001,2022-04-29_04h38.35.363,classification_task,2021.2.3,Win32,119.9616123,59bda1adab8d830001fe5e4b,626b377229c10585ec392f89,626b4f55ded97edb650b23d1,,,,,,,,,,,,,,,,,,,,,,,a,1,1.5415,"[""0.034"",""0.539"",""0.790"",""0.916""]","[0,1,1,1]",0,18,18,18,1,0,0,,,0,FALSE,,,,,,,,,,,,,,,,,,,,,,,,,,,,,,
,HUNRobi,001,2022-04-29_04h38.35.363,classification_task,2021.2.3,Win32,119.9616123,59bda1adab8d830001fe5e4b,626b377229c10585ec392f89,626b4f55ded97edb650b23d1,,,,,,,,,,,,,,,,,,,,,,,a,1,1.6079,"[""0.175"",""0.367"",""0.675"",""0.956""]","[1,1,0,1]",0,19,19,19,1,0,1,,,0,FALSE,,,,,,,,,,,,,,,,,,,,,,,,,,,,,,
,HUNRobi,001,2022-04-29_04h38.35.363,classification_task,2021.2.3,Win32,119.9616123,59bda1adab8d830001fe5e4b,626b377229c10585ec392f89,626b4f55ded97edb650b23d1,,,,,,,,,,,,,,,,,,,,,,,l,1,1.0812,"[""0.077"",""0.330"",""0.500"",""0.030""]","[1,1,1,0]",0,20,20,20,1,1,0,,,0,FALSE,,,,,,,,,,,,,,,,,,,,,,,,,,,,,,
,HUNRobi,001,2022-04-29_04h38.35.363,classification_task,2021.2.3,Win32,119.9616123,59bda1adab8d830001fe5e4b,626b377229c10585ec392f89,626b4f55ded97edb650b23d1,,,,,,,,,,,,,,,,,,,,,,,l,1,2.5079,"[""0.140"",""0.223"",""0.449"",""0.675""]","[1,1,1,0]",0,21,21,21,1,1,1,,,0,FALSE,,,,,,,,,,,,,,,,,,,,,,,,,,,,,,
,HUNRobi,001,2022-04-29_04h38.35.363,classification_task,2021.2.3,Win32,119.9616123,59bda1adab8d830001fe5e4b,626b377229c10585ec392f89,626b4f55ded97edb650b23d1,,,,,,,,,,,,,,,,,,,,,,,a,0,1.9284,"[""0.675"",""0.330"",""0.500"",""0.711""]","[0,1,1,1]",0,22,22,22,1,1,0,,,0,FALSE,,,,,,,,,,,,,,,,,,,,,,,,,,,,,,
,HUNRobi,001,2022-04-29_04h38.35.363,classification_task,2021.2.3,Win32,119.9616123,59bda1adab8d830001fe5e4b,626b377229c10585ec392f89,626b4f55ded97edb650b23d1,,,,,,,,,,,,,,,,,,,,,,,l,1,1.8309,"[""0.410"",""0.223"",""0.449"",""0.842""]","[0,1,1,1]",0,23,23,23,1,1,1,,,0,FALSE,,,,,,,,,,,,,,,,,,,,,,,,,,,,,,
,HUNRobi,001,2022-04-29_04h38.35.363,classification_task,2021.2.3,Win32,119.9616123,59bda1adab8d830001fe5e4b,626b377229c10585ec392f89,626b4f55ded97edb650b23d1,,,,,,,,,,,,,,,,,,,,,,,a,1,1.6087,"[""0.175"",""0.367"",""0.615"",""0.751""]","[1,1,1,0]",0,24,24,24,1,0,1,,,0,FALSE,,,,,,,,,,,,,,,,,,,,,,,,,,,,,,
,HUNRobi,001,2022-04-29_04h38.35.363,classification_task,2021.2.3,Win32,119.9616123,59bda1adab8d830001fe5e4b,626b377229c10585ec392f89,626b4f55ded97edb650b23d1,,,,,,,,,,,,,,,,,,,,,,,a,1,1.2794,"[""0.876"",""0.367"",""0.615"",""0.956""]","[0,1,1,1]",0,25,25,25,1,0,1,,,0,FALSE,,,,,,,,,,,,,,,,,,,,,,,,,,,,,,
,HUNRobi,001,2022-04-29_04h38.35.363,classification_task,2021.2.3,Win32,119.9616123,59bda1adab8d830001fe5e4b,626b377229c10585ec392f89,626b4f55ded97edb650b23d1,,,,,,,,,,,,,,,,,,,,,,,l,0,1.1576,"[""0.268"",""0.539"",""0.036"",""0.916""]","[1,1,0,1]",0,26,26,26,1,0,0,,,0,FALSE,,,,,,,,,,,,,,,,,,,,,,,,,,,,,,
,HUNRobi,001,2022-04-29_04h38.35.363,classification_task,2021.2.3,Win32,119.9616123,59bda1adab8d830001fe5e4b,626b377229c10585ec392f89,626b4f55ded97edb650b23d1,,,,,,,,,,,,,,,,,,,,,,,a,1,1.46,"[""0.175"",""0.876"",""0.615"",""0.956""]","[1,0,1,1]",0,27,27,27,1,0,1,,,0,FALSE,,,,,,,,,,,,,,,,,,,,,,,,,,,,,,
,HUNRobi,001,2022-04-29_04h38.35.363,classification_task,2021.2.3,Win32,119.9616123,59bda1adab8d830001fe5e4b,626b377229c10585ec392f89,626b4f55ded97edb650b23d1,,,,,,,,,,,,,,,,,,,,,,,a,1,1.2316,"[""0.268"",""0.539"",""0.790"",""0.876""]","[1,1,1,0]",0,28,28,28,1,0,0,,,0,FALSE,,,,,,,,,,,,,,,,,,,,,,,,,,,,,,
,HUNRobi,001,2022-04-29_04h38.35.363,classification_task,2021.2.3,Win32,119.9616123,59bda1adab8d830001fe5e4b,626b377229c10585ec392f89,626b4f55ded97edb650b23d1,,,,,,,,,,,,,,,,,,,,,,,l,1,1.8161,"[""0.140"",""0.040"",""0.449"",""0.842""]","[1,0,1,1]",0,29,29,29,1,1,1,,,0,FALSE,,,,,,,,,,,,,,,,,,,,,,,,,,,,,,
,HUNRobi,001,2022-04-29_04h38.35.363,classification_task,2021.2.3,Win32,119.9616123,59bda1adab8d830001fe5e4b,626b377229c10585ec392f89,626b4f55ded97edb650b23d1,,,,,,,,,,,,,,,,,,,,,,,l,1,1.883,"[""0.077"",""0.036"",""0.500"",""0.711""]","[1,0,1,1]",0,30,30,30,1,1,0,,,0,FALSE,,,,,,,,,,,,,,,,,,,,,,,,,,,,,,
,HUNRobi,001,2022-04-29_04h38.35.363,classification_task,2021.2.3,Win32,119.9616123,59bda1adab8d830001fe5e4b,626b377229c10585ec392f89,626b4f55ded97edb650b23d1,,,,,,,,,,,,,,,,,,,,,,,a,1,1.0926,"[""0.268"",""0.751"",""0.790"",""0.916""]","[1,0,1,1]",0,31,31,31,1,0,0,,,0,FALSE,,,,,,,,,,,,,,,,,,,,,,,,,,,,,,
,HUNRobi,001,2022-04-29_04h38.35.363,classification_task,2021.2.3,Win32,119.9616123,59bda1adab8d830001fe5e4b,626b377229c10585ec392f89,626b4f55ded97edb650b23d1,,,,,,,,,,,,,,,,,,,,,,,a,0,1.8082,"[""0.654"",""0.223"",""0.449"",""0.842""]","[0,1,1,1]",0,32,32,32,1,1,1,,,0,FALSE,,,,,,,,,,,,,,,,,,,,,,,,,,,,,,
,HUNRobi,001,2022-04-29_04h38.35.363,classification_task,2021.2.3,Win32,119.9616123,59bda1adab8d830001fe5e4b,626b377229c10585ec392f89,626b4f55ded97edb650b23d1,,,,,,,,,,,,,,,,,,,,,,,l,1,1.9872,"[""0.077"",""0.040"",""0.500"",""0.711""]","[1,0,1,1]",0,33,33,33,1,1,0,,,0,FALSE,,,,,,,,,,,,,,,,,,,,,,,,,,,,,,
,HUNRobi,001,2022-04-29_04h38.35.363,classification_task,2021.2.3,Win32,119.9616123,59bda1adab8d830001fe5e4b,626b377229c10585ec392f89,626b4f55ded97edb650b23d1,,,,,,,,,,,,,,,,,,,,,,,l,1,1.659,"[""0.140"",""0.223"",""0.034"",""0.842""]","[1,1,0,1]",0,34,34,34,1,1,1,,,0,FALSE,,,,,,,,,,,,,,,,,,,,,,,,,,,,,,
,HUNRobi,001,2022-04-29_04h38.35.363,classification_task,2021.2.3,Win32,119.9616123,59bda1adab8d830001fe5e4b,626b377229c10585ec392f89,626b4f55ded97edb650b23d1,,,,,,,,,,,,,,,,,,,,,,,a,0,1.6996,"[""0.746"",""0.330"",""0.500"",""0.711""]","[0,1,1,1]",0,35,35,35,1,1,0,,,0,FALSE,,,,,,,,,,,,,,,,,,,,,,,,,,,,,,
,HUNRobi,001,2022-04-29_04h38.35.363,classification_task,2021.2.3,Win32,119.9616123,59bda1adab8d830001fe5e4b,626b377229c10585ec392f89,626b4f55ded97edb650b23d1,,,,,,,,,,,,,,,,,,,,,,,l,0,1.9906,"[""0.268"",""0.539"",""0.030"",""0.916""]","[1,1,0,1]",0,36,36,36,1,0,0,,,0,FALSE,,,,,,,,,,,,,,,,,,,,,,,,,,,,,,
,HUNRobi,001,2022-04-29_04h38.35.363,classification_task,2021.2.3,Win32,119.9616123,59bda1adab8d830001fe5e4b,626b377229c10585ec392f89,626b4f55ded97edb650b23d1,,,,,,,,,,,,,,,,,,,,,,,l,0,1.9163,"[""0.175"",""0.367"",""0.036"",""0.956""]","[1,1,0,1]",0,37,37,37,1,0,1,,,0,FALSE,,,,,,,,,,,,,,,,,,,,,,,,,,,,,,
,HUNRobi,001,2022-04-29_04h38.35.363,classification_task,2021.2.3,Win32,119.9616123,59bda1adab8d830001fe5e4b,626b377229c10585ec392f89,626b4f55ded97edb650b23d1,,,,,,,,,,,,,,,,,,,,,,,l,1,2.1871,"[""0.077"",""0.330"",""0.036"",""0.711""]","[1,1,0,1]",0,38,38,38,1,1,0,,,0,FALSE,,,,,,,,,,,,,,,,,,,,,,,,,,,,,,
,HUNRobi,001,2022-04-29_04h38.35.363,classification_task,2021.2.3,Win32,119.9616123,59bda1adab8d830001fe5e4b,626b377229c10585ec392f89,626b4f55ded97edb650b23d1,,,,,,,,,,,,,,,,,,,,,,,a,1,1.9265,"[""0.268"",""0.539"",""0.790"",""0.572""]","[1,1,1,0]",0,39,39,39,1,0,0,,,0,FALSE,,,,,,,,,,,,,,,,,,,,,,,,,,,,,,
,HUNRobi,001,2022-04-29_04h38.35.363,classification_task,2021.2.3,Win32,119.9616123,59bda1adab8d830001fe5e4b,626b377229c10585ec392f89,626b4f55ded97edb650b23d1,,,,,,,,,,,,,,,,,,,,,,,l,1,1.8532,"[""0.140"",""0.223"",""0.449"",""0.649""]","[1,1,1,0]",0,40,40,40,1,1,1,,,0,FALSE,,,,,,,,,,,,,,,,,,,,,,,,,,,,,,
,HUNRobi,001,2022-04-29_04h38.35.363,classification_task,2021.2.3,Win32,119.9616123,59bda1adab8d830001fe5e4b,626b377229c10585ec392f89,626b4f55ded97edb650b23d1,,,,,,,,,,,,,,,,,,,,,,,a,1,1.5132,"[""0.268"",""0.746"",""0.790"",""0.916""]","[1,0,1,1]",0,41,41,41,1,0,0,,,0,FALSE,,,,,,,,,,,,,,,,,,,,,,,,,,,,,,
,HUNRobi,001,2022-04-29_04h38.35.363,classification_task,2021.2.3,Win32,119.9616123,59bda1adab8d830001fe5e4b,626b377229c10585ec392f89,626b4f55ded97edb650b23d1,,,,,,,,,,,,,,,,,,,,,,,a,0,1.5103,"[""0.140"",""0.572"",""0.449"",""0.842""]","[1,0,1,1]",0,42,42,42,1,1,1,,,0,FALSE,,,,,,,,,,,,,,,,,,,,,,,,,,,,,,
,HUNRobi,001,2022-04-29_04h38.35.363,classification_task,2021.2.3,Win32,119.9616123,59bda1adab8d830001fe5e4b,626b377229c10585ec392f89,626b4f55ded97edb650b23d1,,,,,,,,,,,,,,,,,,,,,,,l,1,1.6271,"[""0.077"",""0.330"",""0.500"",""0.876""]","[1,1,1,0]",0,43,43,43,1,1,0,,,0,FALSE,,,,,,,,,,,,,,,,,,,,,,,,,,,,,,
,HUNRobi,001,2022-04-29_04h38.35.363,classification_task,2021.2.3,Win32,119.9616123,59bda1adab8d830001fe5e4b,626b377229c10585ec392f89,626b4f55ded97edb650b23d1,,,,,,,,,,,,,,,,,,,,,,,a,1,1.808,"[""0.175"",""0.367"",""0.615"",""0.651""]","[1,1,1,0]",0,44,44,44,1,0,1,,,0,FALSE,,,,,,,,,,,,,,,,,,,,,,,,,,,,,,
,HUNRobi,001,2022-04-29_04h38.35.363,classification_task,2021.2.3,Win32,119.9616123,59bda1adab8d830001fe5e4b,626b377229c10585ec392f89,626b4f55ded97edb650b23d1,,,,,,,,,,,,,,,,,,,,,,,a,1,1.768,"[""0.030"",""0.539"",""0.790"",""0.916""]","[0,1,1,1]",0,45,45,45,1,0,0,,,0,FALSE,,,,,,,,,,,,,,,,,,,,,,,,,,,,,,
,HUNRobi,001,2022-04-29_04h38.35.363,classification_task,2021.2.3,Win32,119.9616123,59bda1adab8d830001fe5e4b,626b377229c10585ec392f89,626b4f55ded97edb650b23d1,,,,,,,,,,,,,,,,,,,,,,,a,1,1.3192,"[""0.036"",""0.367"",""0.615"",""0.956""]","[0,1,1,1]",0,46,46,46,1,0,1,,,0,FALSE,,,,,,,,,,,,,,,,,,,,,,,,,,,,,,
,HUNRobi,001,2022-04-29_04h38.35.363,classification_task,2021.2.3,Win32,119.9616123,59bda1adab8d830001fe5e4b,626b377229c10585ec392f89,626b4f55ded97edb650b23d1,,,,,,,,,,,,,,,,,,,,,,,l,0,1.3379,"[""0.175"",""0.040"",""0.615"",""0.956""]","[1,0,1,1]",0,47,47,47,1,0,1,,,0,FALSE,,,,,,,,,,,,,,,,,,,,,,,,,,,,,,
,HUNRobi,001,2022-04-29_04h38.35.363,classification_task,2021.2.3,Win32,119.9616123,59bda1adab8d830001fe5e4b,626b377229c10585ec392f89,626b4f55ded97edb650b23d1,,,,,,,,,,,,,,,,,,,,,,,l,1,1.2579,"[""0.077"",""0.330"",""0.500"",""0.877""]","[1,1,1,0]",0,48,48,48,1,1,0,,,0,FALSE,,,,,,,,,,,,,,,,,,,,,,,,,,,,,,
,HUNRobi,001,2022-04-29_04h38.35.363,classification_task,2021.2.3,Win32,119.9616123,59bda1adab8d830001fe5e4b,626b377229c10585ec392f89,626b4f55ded97edb650b23d1,,,,,,,,,,,,,,,,,,,,,,,a,1,1.5505,"[""0.175"",""0.651"",""0.615"",""0.956""]","[1,0,1,1]",0,49,49,49,1,0,1,,,0,FALSE,,,,,,,,,,,,,,,,,,,,,,,,,,,,,,
,HUNRobi,001,2022-04-29_04h38.35.363,classification_task,2021.2.3,Win32,119.9616123,59bda1adab8d830001fe5e4b,626b377229c10585ec392f89,626b4f55ded97edb650b23d1,,,,,,,,,,,,,,,,,,,,,,,l,1,0.9226,"[""0.140"",""0.223"",""0.030"",""0.842""]","[1,1,0,1]",0,50,50,50,1,1,1,,,0,FALSE,,,,,,,,,,,,,,,,,,,,,,,,,,,,,,
,HUNRobi,001,2022-04-29_04h38.35.363,classification_task,2021.2.3,Win32,119.9616123,59bda1adab8d830001fe5e4b,626b377229c10585ec392f89,626b4f55ded97edb650b23d1,,,,,,,,,,,,,,,,,,,,,,,a,1,0.9911,"[""0.649"",""0.539"",""0.790"",""0.916""]","[0,1,1,1]",0,51,51,51,1,0,0,,,0,FALSE,,,,,,,,,,,,,,,,,,,,,,,,,,,,,,
,HUNRobi,001,2022-04-29_04h38.35.363,classification_task,2021.2.3,Win32,119.9616123,59bda1adab8d830001fe5e4b,626b377229c10585ec392f89,626b4f55ded97edb650b23d1,,,,,,,,,,,,,,,,,,,,,,,a,0,1.0549,"[""0.675"",""0.223"",""0.449"",""0.842""]","[0,1,1,1]",0,52,52,52,1,1,1,,,0,FALSE,,,,,,,,,,,,,,,,,,,,,,,,,,,,,,
,HUNRobi,001,2022-04-29_04h38.35.363,classification_task,2021.2.3,Win32,119.9616123,59bda1adab8d830001fe5e4b,626b377229c10585ec392f89,626b4f55ded97edb650b23d1,,,,,,,,,,,,,,,,,,,,,,,l,1,1.3417,"[""0.077"",""0.330"",""0.410"",""0.711""]","[1,1,0,1]",0,53,53,53,1,1,0,,,0,FALSE,,,,,,,,,,,,,,,,,,,,,,,,,,,,,,
,HUNRobi,001,2022-04-29_04h38.35.363,classification_task,2021.2.3,Win32,119.9616123,59bda1adab8d830001fe5e4b,626b377229c10585ec392f89,626b4f55ded97edb650b23d1,,,,,,,,,,,,,,,,,,,,,,,a,0,1.3847,"[""0.140"",""0.751"",""0.449"",""0.842""]","[1,0,1,1]",0,54,54,54,1,1,1,,,0,FALSE,,,,,,,,,,,,,,,,,,,,,,,,,,,,,,
,HUNRobi,001,2022-04-29_04h38.35.363,classification_task,2021.2.3,Win32,119.9616123,59bda1adab8d830001fe5e4b,626b377229c10585ec392f89,626b4f55ded97edb650b23d1,,,,,,,,,,,,,,,,,,,,,,,a,1,1.6246,"[""0.268"",""0.036"",""0.790"",""0.916""]","[1,0,1,1]",0,55,55,55,1,0,0,,,0,FALSE,,,,,,,,,,,,,,,,,,,,,,,,,,,,,,
,HUNRobi,001,2022-04-29_04h38.35.363,classification_task,2021.2.3,Win32,119.9616123,59bda1adab8d830001fe5e4b,626b377229c10585ec392f89,626b4f55ded97edb650b23d1,,,,,,,,,,,,,,,,,,,,,,,l,1,1.2115,"[""0.140"",""0.223"",""0.449"",""0.572""]","[1,1,1,0]",0,56,56,56,1,1,1,,,0,FALSE,,,,,,,,,,,,,,,,,,,,,,,,,,,,,,
,HUNRobi,001,2022-04-29_04h38.35.363,classification_task,2021.2.3,Win32,119.9616123,59bda1adab8d830001fe5e4b,626b377229c10585ec392f89,626b4f55ded97edb650b23d1,,,,,,,,,,,,,,,,,,,,,,,a,1,1.1866,"[""0.675"",""0.367"",""0.615"",""0.956""]","[0,1,1,1]",0,57,57,57,1,0,1,,,0,FALSE,,,,,,,,,,,,,,,,,,,,,,,,,,,,,,
,HUNRobi,001,2022-04-29_04h38.35.363,classification_task,2021.2.3,Win32,119.9616123,59bda1adab8d830001fe5e4b,626b377229c10585ec392f89,626b4f55ded97edb650b23d1,,,,,,,,,,,,,,,,,,,,,,,a,1,1.2957,"[""0.268"",""0.539"",""0.790"",""0.877""]","[1,1,1,0]",0,58,58,58,1,0,0,,,0,FALSE,,,,,,,,,,,,,,,,,,,,,,,,,,,,,,
,HUNRobi,001,2022-04-29_04h38.35.363,classification_task,2021.2.3,Win32,119.9616123,59bda1adab8d830001fe5e4b,626b377229c10585ec392f89,626b4f55ded97edb650b23d1,,,,,,,,,,,,,,,,,,,,,,,a,1,1.3111,"[""0.175"",""0.367"",""0.615"",""0.675""]","[1,1,1,0]",0,59,59,59,1,0,1,,,0,FALSE,,,,,,,,,,,,,,,,,,,,,,,,,,,,,,
,HUNRobi,001,2022-04-29_04h38.35.363,classification_task,2021.2.3,Win32,119.9616123,59bda1adab8d830001fe5e4b,626b377229c10585ec392f89,626b4f55ded97edb650b23d1,,,,,,,,,,,,,,,,,,,,,,,a,1,1.5667,"[""0.175"",""0.367"",""0.751"",""0.956""]","[1,1,0,1]",0,60,60,60,1,0,1,,,0,FALSE,,,,,,,,,,,,,,,,,,,,,,,,,,,,,,
,HUNRobi,001,2022-04-29_04h38.35.363,classification_task,2021.2.3,Win32,119.9616123,59bda1adab8d830001fe5e4b,626b377229c10585ec392f89,626b4f55ded97edb650b23d1,,,,,,,,,,,,,,,,,,,,,,,l,1,1.5208,"[""0.077"",""0.040"",""0.500"",""0.711""]","[1,0,1,1]",0,61,61,61,1,1,0,,,0,FALSE,,,,,,,,,,,,,,,,,,,,,,,,,,,,,,
,HUNRobi,001,2022-04-29_04h38.35.363,classification_task,2021.2.3,Win32,119.9616123,59bda1adab8d830001fe5e4b,626b377229c10585ec392f89,626b4f55ded97edb650b23d1,,,,,,,,,,,,,,,,,,,,,,,l,1,1.125,"[""0.034"",""0.330"",""0.500"",""0.711""]","[0,1,1,1]",0,62,62,62,1,1,0,,,0,FALSE,,,,,,,,,,,,,,,,,,,,,,,,,,,,,,
,HUNRobi,001,2022-04-29_04h38.35.363,classification_task,2021.2.3,Win32,119.9616123,59bda1adab8d830001fe5e4b,626b377229c10585ec392f89,626b4f55ded97edb650b23d1,,,,,,,,,,,,,,,,,,,,,,,l,0,1.5098,"[""0.268"",""0.539"",""0.030"",""0.916""]","[1,1,0,1]",0,63,63,63,1,0,0,,,0,FALSE,,,,,,,,,,,,,,,,,,,,,,,,,,,,,,
,HUNRobi,001,2022-04-29_04h38.35.363,classification_task,2021.2.3,Win32,119.9616123,59bda1adab8d830001fe5e4b,626b377229c10585ec392f89,626b4f55ded97edb650b23d1,,,,,,,,,,,,,,,,,,,,,,,,,,,,,,,,,,,,,,,0, ,,0,3.432294729,182.555,0,2,2,2,1,2,3,,,,,,,,,,,,,,,,,
,HUNRobi,001,2022-04-29_04h38.35.363,classification_task,2021.2.3,Win32,119.9616123,59bda1adab8d830001fe5e4b,626b377229c10585ec392f89,626b4f55ded97edb650b23d1,,,,,,,,,,,,,,,,,,,,,,,,,,,,,,,,,,,,,,,1,  ,,0,4.608073682,186.6936,0,2,2,2,1,2,3,,,,,,,,,,,,,,,,,
,HUNRobi,001,2022-04-29_04h38.35.363,classification_task,2021.2.3,Win32,119.9616123,59bda1adab8d830001fe5e4b,626b377229c10585ec392f89,626b4f55ded97edb650b23d1,,,,,,,,,,,,,,,,,,,,,,,,,,,,,,,,,,,,,,,2,  ,,0,4.975504605,190.0386,0,2,2,2,1,2,3,,,,,,,,,,,,,,,,,
,HUNRobi,001,2022-04-29_04h38.35.363,classification_task,2021.2.3,Win32,119.9616123,59bda1adab8d830001fe5e4b,626b377229c10585ec392f89,626b4f55ded97edb650b23d1,,,,,,,,,,,,,,,,,,,,,,,,,,,,,,,,,,,,,,,,,,,,,0,2,2,2,1,,3,,,,,,,,,,,,,,,,,
,HUNRobi,001,2022-04-29_04h38.35.363,classification_task,2021.2.3,Win32,119.9616123,59bda1adab8d830001fe5e4b,626b377229c10585ec392f89,626b4f55ded97edb650b23d1,,,,,,,,,,,,,,,,,,,,,,,,,,,,,,,,,,,,,,,,,,,,,,,,,,,,,I believe the aid is a competent performer,,0.7,0,5,865.8675,0,0,0,0,1,0,,,,
,HUNRobi,001,2022-04-29_04h38.35.363,classification_task,2021.2.3,Win32,119.9616123,59bda1adab8d830001fe5e4b,626b377229c10585ec392f89,626b4f55ded97edb650b23d1,,,,,,,,,,,,,,,,,,,,,,,,,,,,,,,,,,,,,,,,,,,,,,,,,,,,,I trust the aid,,0.7,0,5,866.9476,0,0,0,0,1,0,,,,
,HUNRobi,001,2022-04-29_04h38.35.363,classification_task,2021.2.3,Win32,119.9616123,59bda1adab8d830001fe5e4b,626b377229c10585ec392f89,626b4f55ded97edb650b23d1,,,,,,,,,,,,,,,,,,,,,,,,,,,,,,,,,,,,,,,,,,,,,,,,,,,,,I have confidence in the advice given by the aid,,0.7,0,5,870.5189,0,0,0,0,1,0,,,,
,HUNRobi,001,2022-04-29_04h38.35.363,classification_task,2021.2.3,Win32,119.9616123,59bda1adab8d830001fe5e4b,626b377229c10585ec392f89,626b4f55ded97edb650b23d1,,,,,,,,,,,,,,,,,,,,,,,,,,,,,,,,,,,,,,,,,,,,,,,,,,,,,I can depend on the aid,,0.7,0,5,872.5183,0,0,0,0,1,0,,,,
,HUNRobi,001,2022-04-29_04h38.35.363,classification_task,2021.2.3,Win32,119.9616123,59bda1adab8d830001fe5e4b,626b377229c10585ec392f89,626b4f55ded97edb650b23d1,,,,,,,,,,,,,,,,,,,,,,,,,,,,,,,,,,,,,,,,,,,,,,,,,,,,,I can rely on the aid to behave in consistent ways,,0.7,0,5,875.1068,0,0,0,0,1,0,,,,
,HUNRobi,001,2022-04-29_04h38.35.363,classification_task,2021.2.3,Win32,119.9616123,59bda1adab8d830001fe5e4b,626b377229c10585ec392f89,626b4f55ded97edb650b23d1,,,,,,,,,,,,,,,,,,,,,,,,,,,,,,,,,,,,,,,,,,,,,,,,,,,,,I can rely on the aid to do its best every time I take its advice,,0.7,0,5,877.8584,0,0,0,0,1,0,,,,
,HUNRobi,001,2022-04-29_04h38.35.363,classification_task,2021.2.3,Win32,119.9616123,59bda1adab8d830001fe5e4b,626b377229c10585ec392f89,626b4f55ded97edb650b23d1,,,,,,,,,,,,,,,,,,,,,,,,,,,,,,,,,,,,,,,,,,,,,,,,,,,,,"On trials you completed with assistance from the aid, how frequently did you think the aid was correct?",,0.7,0,100%,,0,0,0,0,1,0,,,,
,HUNRobi,001,2022-04-29_04h38.35.363,classification_task,2021.2.3,Win32,119.9616123,59bda1adab8d830001fe5e4b,626b377229c10585ec392f89,626b4f55ded97edb650b23d1,,,,,,,,,,,,,,,,,,,,,,,,,,,,,,,,,,,,,,,,,,,,,,,,,,,,,"On trials you completed without the aid, how frequently did you think you were correct?",,0.7,0,5%,,0,0,0,0,1,0,,,,
,HUNRobi,001,2022-04-29_04h38.35.363,classification_task,2021.2.3,Win32,119.9616123,59bda1adab8d830001fe5e4b,626b377229c10585ec392f89,626b4f55ded97edb650b23d1,,,,,,,,,,,,,,,,,,,,,,,,,,,,,,,,,,,,,,,,,,,,,,,,,,,,,,,,,,,0,0,0,0,1,,,,,
,HUNRobi,001,2022-04-29_04h38.35.363,classification_task,2021.2.3,Win32,119.9616123,59bda1adab8d830001fe5e4b,626b377229c10585ec392f89,626b4f55ded97edb650b23d1,,,,,,,,,,,,,,,,,,,,,,,,,,,,,,,,,,,,,,,,,,,,,,,,,,,,,,,,,,,,,,,,,a,10.0424,915.2482,
,HUNRobi,001,2022-04-29_04h38.35.363,classification_task,2021.2.3,Win32,119.9616123,59bda1adab8d830001fe5e4b,626b377229c10585ec392f89,626b4f55ded97edb650b23d1,,,,,,,,,,,,,,,,,,,,,,,,,,,,,,,,,,,,,,,,,,,,,,,,,,,,,,,,,,,,,,,,,,,,"Mozilla/5.0 (Windows NT 10.0; Win64; x64) AppleWebKit/537.36 (KHTML, like Gecko) Chrome/99.0.4844.84 Safari/537.36 OPR/85.0.4341.72"
