usingWebGL,participant,session,date,expName,psychopyVersion,OS,frameRate,PROLIFIC_PID,STUDY_ID,SESSION_ID,signatures_friend,signatures_foe,band_ranges_top,band_ranges_bottom,formitemText,formtype,formundefined,formitemWidth,formindex,formresponse,formrt,key_resp_2.keys,key_resp_2.rt,tute_resp.keys,tute_resp.rt,tutorial.thisRepN,tutorial.thisTrialN,tutorial.thisN,tutorial.thisIndex,tutorial.ran,key_resp_4.keys,key_resp_4.rt,key_resp.keys,key_resp.corr,key_resp.rt,lines_presented,is_signal_presented,trials.thisRepN,trials.thisTrialN,trials.thisN,trials.thisIndex,trials.ran,vessel,active_band,lines,is_signal,supported_pos,catch_trial,debrief_formindex,debrief_formitemText,debrief_formtype,debrief_formitemWidth,debrief_formresponse,debrief_formrt,phases.thisRepN,phases.thisTrialN,phases.thisN,phases.thisIndex,phases.ran,phases.order,phase,key_resp_3.keys,trustitemText,trusttype,trustitemWidth,trustindex,trustresponse,trustrt,support_status.thisRepN,support_status.thisTrialN,support_status.thisN,support_status.thisIndex,support_status.ran,support_status.order,key_resp_5.keys,key_resp_5.rt,globalClockTime,userAgent
TRUE,j,001,2022-04-28_21h09.24.041,classification_task,2021.2.3,Win32,74.97375918,5e96195dd7dbe00939d9f042,626b377229c10585ec392f89,626b3aaee8b54ad2720a8215,,,,,,,,,,,,,,,,,,,,,,,,,,,,,,,,,,,,,,,,,,,,,,,,,,,,,,,,,,,,,,,,,,,,
,j,001,2022-04-28_21h09.24.041,classification_task,2021.2.3,Win32,74.97375918,5e96195dd7dbe00939d9f042,626b377229c10585ec392f89,626b3aaee8b54ad2720a8215,"[[""0.256"",""0.475"",""0.766"",""0.944""],[""0.171"",""0.427"",""0.873"",""0.908""]]","[[""0.054"",""0.383"",""0.516"",""0.822""],[""0.097"",""0.329"",""0.641"",""0.685""]]","[1,10]","[100,1000]",Video game experience,,,0.7,0,,,,,,,,,,,,,,,,,,,,,,,,,,,,,,,,,,,,,,,,,,,,,,,,,,,,,,,,,,,
,j,001,2022-04-28_21h09.24.041,classification_task,2021.2.3,Win32,74.97375918,5e96195dd7dbe00939d9f042,626b377229c10585ec392f89,626b3aaee8b54ad2720a8215,,,,,Approximately how many hours did you spend playing video games in the last week?,,,0.7,0,13,,,,,,,,,,,,,,,,,,,,,,,,,,,,,,,,,,,,,,,,,,,,,,,,,,,,,,,,,,
,j,001,2022-04-28_21h09.24.041,classification_task,2021.2.3,Win32,74.97375918,5e96195dd7dbe00939d9f042,626b377229c10585ec392f89,626b3aaee8b54ad2720a8215,,,,,"Which game did you play the most this year? (Enter ""None"" if you didn't play any)",,,0.7,0,starcraft,,,,,,,,,,,,,,,,,,,,,,,,,,,,,,,,,,,,,,,,,,,,,,,,,,,,,,,,,,
,j,001,2022-04-28_21h09.24.041,classification_task,2021.2.3,Win32,74.97375918,5e96195dd7dbe00939d9f042,626b377229c10585ec392f89,626b3aaee8b54ad2720a8215,,,,,Visual perception,,,0.7,0,,,,,,,,,,,,,,,,,,,,,,,,,,,,,,,,,,,,,,,,,,,,,,,,,,,,,,,,,,,
,j,001,2022-04-28_21h09.24.041,classification_task,2021.2.3,Win32,74.97375918,5e96195dd7dbe00939d9f042,626b377229c10585ec392f89,626b3aaee8b54ad2720a8215,,,,,Do you have any form of color blindness?,,,0.7,0,No,26.3869,,,,,,,,,,,,,,,,,,,,,,,,,,,,,,,,,,,,,,,,,,,,,,,,,,,,,,,,,
,j,001,2022-04-28_21h09.24.041,classification_task,2021.2.3,Win32,74.97375918,5e96195dd7dbe00939d9f042,626b377229c10585ec392f89,626b3aaee8b54ad2720a8215,,,,,Do you use software to change the colour temperature of your screen (e.g. f.lux)?,,,0.7,0,No,27.0799,,,,,,,,,,,,,,,,,,,,,,,,,,,,,,,,,,,,,,,,,,,,,,,,,,,,,,,,,
,j,001,2022-04-28_21h09.24.041,classification_task,2021.2.3,Win32,74.97375918,5e96195dd7dbe00939d9f042,626b377229c10585ec392f89,626b3aaee8b54ad2720a8215,,,,,,,,,,,,space,28.7292,space,7.3862,0,0,0,0,1,,,,,,,,,,,,,,,,,,,,,,,,,,,,,,,,,,,,,,,,,,,,,,,,
,j,001,2022-04-28_21h09.24.041,classification_task,2021.2.3,Win32,74.97375918,5e96195dd7dbe00939d9f042,626b377229c10585ec392f89,626b3aaee8b54ad2720a8215,,,,,,,,,,,,,,space,8.2832,1,0,1,0,1,,,,,,,,,,,,,,,,,,,,,,,,,,,,,,,,,,,,,,,,,,,,,,,,
,j,001,2022-04-28_21h09.24.041,classification_task,2021.2.3,Win32,74.97375918,5e96195dd7dbe00939d9f042,626b377229c10585ec392f89,626b3aaee8b54ad2720a8215,,,,,,,,,,,,,,space,40.1208,2,0,2,0,1,,,,,,,,,,,,,,,,,,,,,,,,,,,,,,,,,,,,,,,,,,,,,,,,
,j,001,2022-04-28_21h09.24.041,classification_task,2021.2.3,Win32,74.97375918,5e96195dd7dbe00939d9f042,626b377229c10585ec392f89,626b3aaee8b54ad2720a8215,,,,,,,,,,,,,,space,9.7637,3,0,3,0,1,,,,,,,,,,,,,,,,,,,,,,,,,,,,,,,,,,,,,,,,,,,,,,,,
,j,001,2022-04-28_21h09.24.041,classification_task,2021.2.3,Win32,74.97375918,5e96195dd7dbe00939d9f042,626b377229c10585ec392f89,626b3aaee8b54ad2720a8215,,,,,,,,,,,,,,space,10.3106,4,0,4,0,1,,,,,,,,,,,,,,,,,,,,,,,,,,,,,,,,,,,,,,,,,,,,,,,,
,j,001,2022-04-28_21h09.24.041,classification_task,2021.2.3,Win32,74.97375918,5e96195dd7dbe00939d9f042,626b377229c10585ec392f89,626b3aaee8b54ad2720a8215,,,,,,,,,,,,,,,,,,,,,space,10.8505,l,1,3.2947,"[""0.097"",""0.329"",""0.550"",""0.685""]","[1,1,0,1]",0,0,0,0,1,1,1,,,0,FALSE,,,,,,,,,,,,,,,,,,,,,,,,,,,,,,
,j,001,2022-04-28_21h09.24.041,classification_task,2021.2.3,Win32,74.97375918,5e96195dd7dbe00939d9f042,626b377229c10585ec392f89,626b3aaee8b54ad2720a8215,,,,,,,,,,,,,,,,,,,,,,,l,1,4.2817,"[""0.097"",""0.585"",""0.641"",""0.685""]","[1,0,1,1]",0,1,1,1,1,1,1,,,0,FALSE,,,,,,,,,,,,,,,,,,,,,,,,,,,,,,
,j,001,2022-04-28_21h09.24.041,classification_task,2021.2.3,Win32,74.97375918,5e96195dd7dbe00939d9f042,626b377229c10585ec392f89,626b3aaee8b54ad2720a8215,,,,,,,,,,,,,,,,,,,,,,,a,0,7.0941,"[""0.097"",""0.329"",""0.641"",""0.138""]","[1,1,1,0]",0,2,2,2,1,1,1,,,0,FALSE,,,,,,,,,,,,,,,,,,,,,,,,,,,,,,
,j,001,2022-04-28_21h09.24.041,classification_task,2021.2.3,Win32,74.97375918,5e96195dd7dbe00939d9f042,626b377229c10585ec392f89,626b3aaee8b54ad2720a8215,,,,,,,,,,,,,,,,,,,,,,,l,1,7.4424,"[""0.726"",""0.329"",""0.641"",""0.685""]","[0,1,1,1]",0,3,3,3,1,1,1,,,0,FALSE,,,,,,,,,,,,,,,,,,,,,,,,,,,,,,
,j,001,2022-04-28_21h09.24.041,classification_task,2021.2.3,Win32,74.97375918,5e96195dd7dbe00939d9f042,626b377229c10585ec392f89,626b3aaee8b54ad2720a8215,,,,,,,,,,,,,,,,,,,,,,,l,1,6.8155,"[""0.132"",""0.383"",""0.516"",""0.822""]","[0,1,1,1]",0,4,4,4,1,1,0,,,0,FALSE,,,,,,,,,,,,,,,,,,,,,,,,,,,,,,
,j,001,2022-04-28_21h09.24.041,classification_task,2021.2.3,Win32,74.97375918,5e96195dd7dbe00939d9f042,626b377229c10585ec392f89,626b3aaee8b54ad2720a8215,,,,,,,,,,,,,,,,,,,,,,,l,1,5.1485,"[""0.054"",""0.218"",""0.516"",""0.822""]","[1,0,1,1]",0,5,5,5,1,1,0,,,0,FALSE,,,,,,,,,,,,,,,,,,,,,,,,,,,,,,
,j,001,2022-04-28_21h09.24.041,classification_task,2021.2.3,Win32,74.97375918,5e96195dd7dbe00939d9f042,626b377229c10585ec392f89,626b3aaee8b54ad2720a8215,,,,,,,,,,,,,,,,,,,,,,,a,1,6.3089,"[""0.256"",""0.475"",""0.550"",""0.944""]","[1,1,0,1]",0,6,6,6,1,0,0,,,0,FALSE,,,,,,,,,,,,,,,,,,,,,,,,,,,,,,
,j,001,2022-04-28_21h09.24.041,classification_task,2021.2.3,Win32,74.97375918,5e96195dd7dbe00939d9f042,626b377229c10585ec392f89,626b3aaee8b54ad2720a8215,,,,,,,,,,,,,,,,,,,,,,,a,1,7.0962,"[""0.171"",""0.427"",""0.873"",""0.132""]","[1,1,1,0]",0,7,7,7,1,0,1,,,0,FALSE,,,,,,,,,,,,,,,,,,,,,,,,,,,,,,
,j,001,2022-04-28_21h09.24.041,classification_task,2021.2.3,Win32,74.97375918,5e96195dd7dbe00939d9f042,626b377229c10585ec392f89,626b3aaee8b54ad2720a8215,,,,,,,,,,,,,,,,,,,,,,,a,1,5.1086,"[""0.171"",""0.427"",""0.293"",""0.908""]","[1,1,0,1]",0,8,8,8,1,0,1,,,0,FALSE,,,,,,,,,,,,,,,,,,,,,,,,,,,,,,
,j,001,2022-04-28_21h09.24.041,classification_task,2021.2.3,Win32,74.97375918,5e96195dd7dbe00939d9f042,626b377229c10585ec392f89,626b3aaee8b54ad2720a8215,,,,,,,,,,,,,,,,,,,,,,,a,1,5.4019,"[""0.725"",""0.427"",""0.873"",""0.908""]","[0,1,1,1]",0,9,9,9,1,0,1,,,0,FALSE,,,,,,,,,,,,,,,,,,,,,,,,,,,,,,
,j,001,2022-04-28_21h09.24.041,classification_task,2021.2.3,Win32,74.97375918,5e96195dd7dbe00939d9f042,626b377229c10585ec392f89,626b3aaee8b54ad2720a8215,,,,,,,,,,,,,,,,,,,,,,,a,1,8.2828,"[""0.220"",""0.475"",""0.766"",""0.944""]","[0,1,1,1]",0,10,10,10,1,0,0,,,0,FALSE,,,,,,,,,,,,,,,,,,,,,,,,,,,,,,
,j,001,2022-04-28_21h09.24.041,classification_task,2021.2.3,Win32,74.97375918,5e96195dd7dbe00939d9f042,626b377229c10585ec392f89,626b3aaee8b54ad2720a8215,,,,,,,,,,,,,,,,,,,,,,,l,1,4.1747,"[""0.054"",""0.383"",""0.606"",""0.822""]","[1,1,0,1]",0,11,11,11,1,1,0,,,0,FALSE,,,,,,,,,,,,,,,,,,,,,,,,,,,,,,
,j,001,2022-04-28_21h09.24.041,classification_task,2021.2.3,Win32,74.97375918,5e96195dd7dbe00939d9f042,626b377229c10585ec392f89,626b3aaee8b54ad2720a8215,,,,,,,,,,,,,,,,,,,,,,,l,1,5.4952,"[""0.054"",""0.383"",""0.516"",""0.216""]","[1,1,1,0]",0,12,12,12,1,1,0,,,0,FALSE,,,,,,,,,,,,,,,,,,,,,,,,,,,,,,
,j,001,2022-04-28_21h09.24.041,classification_task,2021.2.3,Win32,74.97375918,5e96195dd7dbe00939d9f042,626b377229c10585ec392f89,626b3aaee8b54ad2720a8215,,,,,,,,,,,,,,,,,,,,,,,a,1,7.8828,"[""0.171"",""0.222"",""0.873"",""0.908""]","[1,0,1,1]",0,13,13,13,1,0,1,,,0,FALSE,,,,,,,,,,,,,,,,,,,,,,,,,,,,,,
,j,001,2022-04-28_21h09.24.041,classification_task,2021.2.3,Win32,74.97375918,5e96195dd7dbe00939d9f042,626b377229c10585ec392f89,626b3aaee8b54ad2720a8215,,,,,,,,,,,,,,,,,,,,,,,a,1,7.0823,"[""0.256"",""0.585"",""0.766"",""0.944""]","[1,0,1,1]",0,14,14,14,1,0,0,,,0,FALSE,,,,,,,,,,,,,,,,,,,,,,,,,,,,,,
,j,001,2022-04-28_21h09.24.041,classification_task,2021.2.3,Win32,74.97375918,5e96195dd7dbe00939d9f042,626b377229c10585ec392f89,626b3aaee8b54ad2720a8215,,,,,,,,,,,,,,,,,,,,,,,a,1,2.961,"[""0.256"",""0.475"",""0.766"",""0.726""]","[1,1,1,0]",0,15,15,15,1,0,0,,,0,FALSE,,,,,,,,,,,,,,,,,,,,,,,,,,,,,,
,j,001,2022-04-28_21h09.24.041,classification_task,2021.2.3,Win32,74.97375918,5e96195dd7dbe00939d9f042,626b377229c10585ec392f89,626b3aaee8b54ad2720a8215,,,,,,,,,,,,,,,,,,,,,,,l,1,4.895,"[""0.054"",""0.138"",""0.516"",""0.822""]","[1,0,1,1]",0,16,16,16,1,1,0,,,0,FALSE,,,,,,,,,,,,,,,,,,,,,,,,,,,,,,
,j,001,2022-04-28_21h09.24.041,classification_task,2021.2.3,Win32,74.97375918,5e96195dd7dbe00939d9f042,626b377229c10585ec392f89,626b3aaee8b54ad2720a8215,,,,,,,,,,,,,,,,,,,,,,,l,1,5.7353,"[""0.097"",""0.329"",""0.138"",""0.685""]","[1,1,0,1]",0,17,17,17,1,1,1,,,0,FALSE,,,,,,,,,,,,,,,,,,,,,,,,,,,,,,
,j,001,2022-04-28_21h09.24.041,classification_task,2021.2.3,Win32,74.97375918,5e96195dd7dbe00939d9f042,626b377229c10585ec392f89,626b3aaee8b54ad2720a8215,,,,,,,,,,,,,,,,,,,,,,,l,1,4.2417,"[""0.097"",""0.329"",""0.641"",""0.726""]","[1,1,1,0]",0,18,18,18,1,1,1,,,0,FALSE,,,,,,,,,,,,,,,,,,,,,,,,,,,,,,
,j,001,2022-04-28_21h09.24.041,classification_task,2021.2.3,Win32,74.97375918,5e96195dd7dbe00939d9f042,626b377229c10585ec392f89,626b3aaee8b54ad2720a8215,,,,,,,,,,,,,,,,,,,,,,,l,1,7.2545,"[""0.726"",""0.383"",""0.516"",""0.822""]","[0,1,1,1]",0,19,19,19,1,1,0,,,0,FALSE,,,,,,,,,,,,,,,,,,,,,,,,,,,,,,
,j,001,2022-04-28_21h09.24.041,classification_task,2021.2.3,Win32,74.97375918,5e96195dd7dbe00939d9f042,626b377229c10585ec392f89,626b3aaee8b54ad2720a8215,,,,,,,,,,,,,,,,,,,,,,,l,1,5.4419,"[""0.054"",""0.383"",""0.516"",""0.220""]","[1,1,1,0]",0,20,20,20,1,1,0,,,0,FALSE,,,,,,,,,,,,,,,,,,,,,,,,,,,,,,
,j,001,2022-04-28_21h09.24.041,classification_task,2021.2.3,Win32,74.97375918,5e96195dd7dbe00939d9f042,626b377229c10585ec392f89,626b3aaee8b54ad2720a8215,,,,,,,,,,,,,,,,,,,,,,,l,1,2.7608,"[""0.730"",""0.329"",""0.641"",""0.685""]","[0,1,1,1]",0,21,21,21,1,1,1,,,0,FALSE,,,,,,,,,,,,,,,,,,,,,,,,,,,,,,
,j,001,2022-04-28_21h09.24.041,classification_task,2021.2.3,Win32,74.97375918,5e96195dd7dbe00939d9f042,626b377229c10585ec392f89,626b3aaee8b54ad2720a8215,,,,,,,,,,,,,,,,,,,,,,,a,1,3.748,"[""0.171"",""0.427"",""0.606"",""0.908""]","[1,1,0,1]",0,22,22,22,1,0,1,,,0,FALSE,,,,,,,,,,,,,,,,,,,,,,,,,,,,,,
,j,001,2022-04-28_21h09.24.041,classification_task,2021.2.3,Win32,74.97375918,5e96195dd7dbe00939d9f042,626b377229c10585ec392f89,626b3aaee8b54ad2720a8215,,,,,,,,,,,,,,,,,,,,,,,a,1,3.454,"[""0.256"",""0.475"",""0.216"",""0.944""]","[1,1,0,1]",0,23,23,23,1,0,0,,,0,FALSE,,,,,,,,,,,,,,,,,,,,,,,,,,,,,,
,j,001,2022-04-28_21h09.24.041,classification_task,2021.2.3,Win32,74.97375918,5e96195dd7dbe00939d9f042,626b377229c10585ec392f89,626b3aaee8b54ad2720a8215,,,,,,,,,,,,,,,,,,,,,,,a,1,4.1348,"[""0.256"",""0.132"",""0.766"",""0.944""]","[1,0,1,1]",0,24,24,24,1,0,0,,,0,FALSE,,,,,,,,,,,,,,,,,,,,,,,,,,,,,,
,j,001,2022-04-28_21h09.24.041,classification_task,2021.2.3,Win32,74.97375918,5e96195dd7dbe00939d9f042,626b377229c10585ec392f89,626b3aaee8b54ad2720a8215,,,,,,,,,,,,,,,,,,,,,,,a,1,4.2417,"[""0.171"",""0.726"",""0.873"",""0.908""]","[1,0,1,1]",0,25,25,25,1,0,1,,,0,FALSE,,,,,,,,,,,,,,,,,,,,,,,,,,,,,,
,j,001,2022-04-28_21h09.24.041,classification_task,2021.2.3,Win32,74.97375918,5e96195dd7dbe00939d9f042,626b377229c10585ec392f89,626b3aaee8b54ad2720a8215,,,,,,,,,,,,,,,,,,,,,,,l,1,7.0157,"[""0.054"",""0.383"",""0.725"",""0.822""]","[1,1,0,1]",0,26,26,26,1,1,0,,,0,FALSE,,,,,,,,,,,,,,,,,,,,,,,,,,,,,,
,j,001,2022-04-28_21h09.24.041,classification_task,2021.2.3,Win32,74.97375918,5e96195dd7dbe00939d9f042,626b377229c10585ec392f89,626b3aaee8b54ad2720a8215,,,,,,,,,,,,,,,,,,,,,,,a,1,3.5078,"[""0.222"",""0.427"",""0.873"",""0.908""]","[0,1,1,1]",0,27,27,27,1,0,1,,,0,FALSE,,,,,,,,,,,,,,,,,,,,,,,,,,,,,,
,j,001,2022-04-28_21h09.24.041,classification_task,2021.2.3,Win32,74.97375918,5e96195dd7dbe00939d9f042,626b377229c10585ec392f89,626b3aaee8b54ad2720a8215,,,,,,,,,,,,,,,,,,,,,,,a,1,2.4272,"[""0.256"",""0.475"",""0.766"",""0.725""]","[1,1,1,0]",0,28,28,28,1,0,0,,,0,FALSE,,,,,,,,,,,,,,,,,,,,,,,,,,,,,,
,j,001,2022-04-28_21h09.24.041,classification_task,2021.2.3,Win32,74.97375918,5e96195dd7dbe00939d9f042,626b377229c10585ec392f89,626b3aaee8b54ad2720a8215,,,,,,,,,,,,,,,,,,,,,,,a,1,5.402,"[""0.132"",""0.475"",""0.766"",""0.944""]","[0,1,1,1]",0,29,29,29,1,0,0,,,0,FALSE,,,,,,,,,,,,,,,,,,,,,,,,,,,,,,
,j,001,2022-04-28_21h09.24.041,classification_task,2021.2.3,Win32,74.97375918,5e96195dd7dbe00939d9f042,626b377229c10585ec392f89,626b3aaee8b54ad2720a8215,,,,,,,,,,,,,,,,,,,,,,,a,1,4.2548,"[""0.171"",""0.427"",""0.873"",""0.725""]","[1,1,1,0]",0,30,30,30,1,0,1,,,0,FALSE,,,,,,,,,,,,,,,,,,,,,,,,,,,,,,
,j,001,2022-04-28_21h09.24.041,classification_task,2021.2.3,Win32,74.97375918,5e96195dd7dbe00939d9f042,626b377229c10585ec392f89,626b3aaee8b54ad2720a8215,,,,,,,,,,,,,,,,,,,,,,,l,1,3.588,"[""0.097"",""0.726"",""0.641"",""0.685""]","[1,0,1,1]",0,31,31,31,1,1,1,,,0,FALSE,,,,,,,,,,,,,,,,,,,,,,,,,,,,,,
,j,001,2022-04-28_21h09.24.041,classification_task,2021.2.3,Win32,74.97375918,5e96195dd7dbe00939d9f042,626b377229c10585ec392f89,626b3aaee8b54ad2720a8215,,,,,,,,,,,,,,,,,,,,,,,a,0,3.9746,"[""0.132"",""0.329"",""0.641"",""0.685""]","[0,1,1,1]",0,32,32,32,1,1,1,,,0,FALSE,,,,,,,,,,,,,,,,,,,,,,,,,,,,,,
,j,001,2022-04-28_21h09.24.041,classification_task,2021.2.3,Win32,74.97375918,5e96195dd7dbe00939d9f042,626b377229c10585ec392f89,626b3aaee8b54ad2720a8215,,,,,,,,,,,,,,,,,,,,,,,a,1,3.5612,"[""0.256"",""0.475"",""0.766"",""0.606""]","[1,1,1,0]",0,33,33,33,1,0,0,,,0,FALSE,,,,,,,,,,,,,,,,,,,,,,,,,,,,,,
,j,001,2022-04-28_21h09.24.041,classification_task,2021.2.3,Win32,74.97375918,5e96195dd7dbe00939d9f042,626b377229c10585ec392f89,626b3aaee8b54ad2720a8215,,,,,,,,,,,,,,,,,,,,,,,a,1,2.3609,"[""0.171"",""0.427"",""0.873"",""0.132""]","[1,1,1,0]",0,34,34,34,1,0,1,,,0,FALSE,,,,,,,,,,,,,,,,,,,,,,,,,,,,,,
,j,001,2022-04-28_21h09.24.041,classification_task,2021.2.3,Win32,74.97375918,5e96195dd7dbe00939d9f042,626b377229c10585ec392f89,626b3aaee8b54ad2720a8215,,,,,,,,,,,,,,,,,,,,,,,l,0,2.2009,"[""0.256"",""0.138"",""0.766"",""0.944""]","[1,0,1,1]",0,35,35,35,1,0,0,,,0,FALSE,,,,,,,,,,,,,,,,,,,,,,,,,,,,,,
,j,001,2022-04-28_21h09.24.041,classification_task,2021.2.3,Win32,74.97375918,5e96195dd7dbe00939d9f042,626b377229c10585ec392f89,626b3aaee8b54ad2720a8215,,,,,,,,,,,,,,,,,,,,,,,l,0,1.1738,"[""0.293"",""0.427"",""0.873"",""0.908""]","[0,1,1,1]",0,36,36,36,1,0,1,,,0,FALSE,,,,,,,,,,,,,,,,,,,,,,,,,,,,,,
,j,001,2022-04-28_21h09.24.041,classification_task,2021.2.3,Win32,74.97375918,5e96195dd7dbe00939d9f042,626b377229c10585ec392f89,626b3aaee8b54ad2720a8215,,,,,,,,,,,,,,,,,,,,,,,l,0,0.8673,"[""0.550"",""0.475"",""0.766"",""0.944""]","[0,1,1,1]",0,37,37,37,1,0,0,,,0,FALSE,,,,,,,,,,,,,,,,,,,,,,,,,,,,,,
,j,001,2022-04-28_21h09.24.041,classification_task,2021.2.3,Win32,74.97375918,5e96195dd7dbe00939d9f042,626b377229c10585ec392f89,626b3aaee8b54ad2720a8215,,,,,,,,,,,,,,,,,,,,,,,a,0,0.3602,"[""0.097"",""0.329"",""0.726"",""0.685""]","[1,1,0,1]",0,38,38,38,1,1,1,,,0,FALSE,,,,,,,,,,,,,,,,,,,,,,,,,,,,,,
,j,001,2022-04-28_21h09.24.041,classification_task,2021.2.3,Win32,74.97375918,5e96195dd7dbe00939d9f042,626b377229c10585ec392f89,626b3aaee8b54ad2720a8215,,,,,,,,,,,,,,,,,,,,,,,l,1,0.6804,"[""0.097"",""0.329"",""0.641"",""0.218""]","[1,1,1,0]",0,39,39,39,1,1,1,,,0,FALSE,,,,,,,,,,,,,,,,,,,,,,,,,,,,,,
,j,001,2022-04-28_21h09.24.041,classification_task,2021.2.3,Win32,74.97375918,5e96195dd7dbe00939d9f042,626b377229c10585ec392f89,626b3aaee8b54ad2720a8215,,,,,,,,,,,,,,,,,,,,,,,a,0,0.253,"[""0.585"",""0.383"",""0.516"",""0.822""]","[0,1,1,1]",0,40,40,40,1,1,0,,,0,FALSE,,,,,,,,,,,,,,,,,,,,,,,,,,,,,,
,j,001,2022-04-28_21h09.24.041,classification_task,2021.2.3,Win32,74.97375918,5e96195dd7dbe00939d9f042,626b377229c10585ec392f89,626b3aaee8b54ad2720a8215,,,,,,,,,,,,,,,,,,,,,,,l,0,0.2131,"[""0.171"",""0.293"",""0.873"",""0.908""]","[1,0,1,1]",0,41,41,41,1,0,1,,,0,FALSE,,,,,,,,,,,,,,,,,,,,,,,,,,,,,,
,j,001,2022-04-28_21h09.24.041,classification_task,2021.2.3,Win32,74.97375918,5e96195dd7dbe00939d9f042,626b377229c10585ec392f89,626b3aaee8b54ad2720a8215,,,,,,,,,,,,,,,,,,,,,,,l,1,0.7468,"[""0.054"",""0.138"",""0.516"",""0.822""]","[1,0,1,1]",0,42,42,42,1,1,0,,,0,FALSE,,,,,,,,,,,,,,,,,,,,,,,,,,,,,,
,j,001,2022-04-28_21h09.24.041,classification_task,2021.2.3,Win32,74.97375918,5e96195dd7dbe00939d9f042,626b377229c10585ec392f89,626b3aaee8b54ad2720a8215,,,,,,,,,,,,,,,,,,,,,,,l,0,0.5341,"[""0.171"",""0.427"",""0.218"",""0.908""]","[1,1,0,1]",0,43,43,43,1,0,1,,,0,FALSE,,,,,,,,,,,,,,,,,,,,,,,,,,,,,,
,j,001,2022-04-28_21h09.24.041,classification_task,2021.2.3,Win32,74.97375918,5e96195dd7dbe00939d9f042,626b377229c10585ec392f89,626b3aaee8b54ad2720a8215,,,,,,,,,,,,,,,,,,,,,,,l,0,1.9606,"[""0.256"",""0.475"",""0.730"",""0.944""]","[1,1,0,1]",0,44,44,44,1,0,0,,,0,FALSE,,,,,,,,,,,,,,,,,,,,,,,,,,,,,,
,j,001,2022-04-28_21h09.24.041,classification_task,2021.2.3,Win32,74.97375918,5e96195dd7dbe00939d9f042,626b377229c10585ec392f89,626b3aaee8b54ad2720a8215,,,,,,,,,,,,,,,,,,,,,,,a,0,0.7602,"[""0.054"",""0.383"",""0.516"",""0.725""]","[1,1,1,0]",0,45,45,45,1,1,0,,,0,FALSE,,,,,,,,,,,,,,,,,,,,,,,,,,,,,,
,j,001,2022-04-28_21h09.24.041,classification_task,2021.2.3,Win32,74.97375918,5e96195dd7dbe00939d9f042,626b377229c10585ec392f89,626b3aaee8b54ad2720a8215,,,,,,,,,,,,,,,,,,,,,,,l,1,1.1872,"[""0.097"",""0.606"",""0.641"",""0.685""]","[1,0,1,1]",0,46,46,46,1,1,1,,,0,FALSE,,,,,,,,,,,,,,,,,,,,,,,,,,,,,,
,j,001,2022-04-28_21h09.24.041,classification_task,2021.2.3,Win32,74.97375918,5e96195dd7dbe00939d9f042,626b377229c10585ec392f89,626b3aaee8b54ad2720a8215,,,,,,,,,,,,,,,,,,,,,,,a,0,1.4937,"[""0.054"",""0.383"",""0.726"",""0.822""]","[1,1,0,1]",0,47,47,47,1,1,0,,,0,FALSE,,,,,,,,,,,,,,,,,,,,,,,,,,,,,,
,j,001,2022-04-28_21h09.24.041,classification_task,2021.2.3,Win32,74.97375918,5e96195dd7dbe00939d9f042,626b377229c10585ec392f89,626b3aaee8b54ad2720a8215,,,,,,,,,,,,,,,,,,,,,,,l,0,0.7602,"[""0.256"",""0.475"",""0.585"",""0.944""]","[1,1,0,1]",0,48,48,48,1,0,0,,,0,FALSE,,,,,,,,,,,,,,,,,,,,,,,,,,,,,,
,j,001,2022-04-28_21h09.24.041,classification_task,2021.2.3,Win32,74.97375918,5e96195dd7dbe00939d9f042,626b377229c10585ec392f89,626b3aaee8b54ad2720a8215,,,,,,,,,,,,,,,,,,,,,,,l,1,1.4271,"[""0.054"",""0.383"",""0.585"",""0.822""]","[1,1,0,1]",0,49,49,49,1,1,0,,,0,FALSE,,,,,,,,,,,,,,,,,,,,,,,,,,,,,,
,j,001,2022-04-28_21h09.24.041,classification_task,2021.2.3,Win32,74.97375918,5e96195dd7dbe00939d9f042,626b377229c10585ec392f89,626b3aaee8b54ad2720a8215,,,,,,,,,,,,,,,,,,,,,,,a,0,0.7354,"[""0.097"",""0.329"",""0.138"",""0.685""]","[1,1,0,1]",0,50,50,50,1,1,1,,,0,FALSE,,,,,,,,,,,,,,,,,,,,,,,,,,,,,,
,j,001,2022-04-28_21h09.24.041,classification_task,2021.2.3,Win32,74.97375918,5e96195dd7dbe00939d9f042,626b377229c10585ec392f89,626b3aaee8b54ad2720a8215,,,,,,,,,,,,,,,,,,,,,,,l,0,1.0552,"[""0.256"",""0.606"",""0.766"",""0.944""]","[1,0,1,1]",0,51,51,51,1,0,0,,,0,FALSE,,,,,,,,,,,,,,,,,,,,,,,,,,,,,,
,j,001,2022-04-28_21h09.24.041,classification_task,2021.2.3,Win32,74.97375918,5e96195dd7dbe00939d9f042,626b377229c10585ec392f89,626b3aaee8b54ad2720a8215,,,,,,,,,,,,,,,,,,,,,,,a,0,0.6596,"[""0.097"",""0.132"",""0.641"",""0.685""]","[1,0,1,1]",0,52,52,52,1,1,1,,,0,FALSE,,,,,,,,,,,,,,,,,,,,,,,,,,,,,,
,j,001,2022-04-28_21h09.24.041,classification_task,2021.2.3,Win32,74.97375918,5e96195dd7dbe00939d9f042,626b377229c10585ec392f89,626b3aaee8b54ad2720a8215,,,,,,,,,,,,,,,,,,,,,,,a,0,1.1561,"[""0.097"",""0.329"",""0.641"",""0.220""]","[1,1,1,0]",0,53,53,53,1,1,1,,,0,FALSE,,,,,,,,,,,,,,,,,,,,,,,,,,,,,,
,j,001,2022-04-28_21h09.24.041,classification_task,2021.2.3,Win32,74.97375918,5e96195dd7dbe00939d9f042,626b377229c10585ec392f89,626b3aaee8b54ad2720a8215,,,,,,,,,,,,,,,,,,,,,,,a,0,0.676,"[""0.054"",""0.383"",""0.516"",""0.293""]","[1,1,1,0]",0,54,54,54,1,1,0,,,0,FALSE,,,,,,,,,,,,,,,,,,,,,,,,,,,,,,
,j,001,2022-04-28_21h09.24.041,classification_task,2021.2.3,Win32,74.97375918,5e96195dd7dbe00939d9f042,626b377229c10585ec392f89,626b3aaee8b54ad2720a8215,,,,,,,,,,,,,,,,,,,,,,,l,1,0.7349,"[""0.054"",""0.138"",""0.516"",""0.822""]","[1,0,1,1]",0,55,55,55,1,1,0,,,0,FALSE,,,,,,,,,,,,,,,,,,,,,,,,,,,,,,
,j,001,2022-04-28_21h09.24.041,classification_task,2021.2.3,Win32,74.97375918,5e96195dd7dbe00939d9f042,626b377229c10585ec392f89,626b3aaee8b54ad2720a8215,,,,,,,,,,,,,,,,,,,,,,,a,1,0.6971,"[""0.725"",""0.475"",""0.766"",""0.944""]","[0,1,1,1]",0,56,56,56,1,0,0,,,0,FALSE,,,,,,,,,,,,,,,,,,,,,,,,,,,,,,
,j,001,2022-04-28_21h09.24.041,classification_task,2021.2.3,Win32,74.97375918,5e96195dd7dbe00939d9f042,626b377229c10585ec392f89,626b3aaee8b54ad2720a8215,,,,,,,,,,,,,,,,,,,,,,,l,0,0.4317,"[""0.256"",""0.475"",""0.766"",""0.132""]","[1,1,1,0]",0,57,57,57,1,0,0,,,0,FALSE,,,,,,,,,,,,,,,,,,,,,,,,,,,,,,
,j,001,2022-04-28_21h09.24.041,classification_task,2021.2.3,Win32,74.97375918,5e96195dd7dbe00939d9f042,626b377229c10585ec392f89,626b3aaee8b54ad2720a8215,,,,,,,,,,,,,,,,,,,,,,,a,1,0.2557,"[""0.171"",""0.427"",""0.216"",""0.908""]","[1,1,0,1]",0,58,58,58,1,0,1,,,0,FALSE,,,,,,,,,,,,,,,,,,,,,,,,,,,,,,
,j,001,2022-04-28_21h09.24.041,classification_task,2021.2.3,Win32,74.97375918,5e96195dd7dbe00939d9f042,626b377229c10585ec392f89,626b3aaee8b54ad2720a8215,,,,,,,,,,,,,,,,,,,,,,,l,1,0.7001,"[""0.291"",""0.329"",""0.641"",""0.685""]","[0,1,1,1]",0,59,59,59,1,1,1,,,0,FALSE,,,,,,,,,,,,,,,,,,,,,,,,,,,,,,
,j,001,2022-04-28_21h09.24.041,classification_task,2021.2.3,Win32,74.97375918,5e96195dd7dbe00939d9f042,626b377229c10585ec392f89,626b3aaee8b54ad2720a8215,,,,,,,,,,,,,,,,,,,,,,,l,0,0.3121,"[""0.730"",""0.427"",""0.873"",""0.908""]","[0,1,1,1]",0,60,60,60,1,0,1,,,0,FALSE,,,,,,,,,,,,,,,,,,,,,,,,,,,,,,
,j,001,2022-04-28_21h09.24.041,classification_task,2021.2.3,Win32,74.97375918,5e96195dd7dbe00939d9f042,626b377229c10585ec392f89,626b3aaee8b54ad2720a8215,,,,,,,,,,,,,,,,,,,,,,,l,0,0.267,"[""0.171"",""0.427"",""0.873"",""0.585""]","[1,1,1,0]",0,61,61,61,1,0,1,,,0,FALSE,,,,,,,,,,,,,,,,,,,,,,,,,,,,,,
,j,001,2022-04-28_21h09.24.041,classification_task,2021.2.3,Win32,74.97375918,5e96195dd7dbe00939d9f042,626b377229c10585ec392f89,626b3aaee8b54ad2720a8215,,,,,,,,,,,,,,,,,,,,,,,a,0,0.2267,"[""0.291"",""0.383"",""0.516"",""0.822""]","[0,1,1,1]",0,62,62,62,1,1,0,,,0,FALSE,,,,,,,,,,,,,,,,,,,,,,,,,,,,,,
,j,001,2022-04-28_21h09.24.041,classification_task,2021.2.3,Win32,74.97375918,5e96195dd7dbe00939d9f042,626b377229c10585ec392f89,626b3aaee8b54ad2720a8215,,,,,,,,,,,,,,,,,,,,,,,l,0,0.0406,"[""0.171"",""0.585"",""0.873"",""0.908""]","[1,0,1,1]",0,63,63,63,1,0,1,,,0,FALSE,,,,,,,,,,,,,,,,,,,,,,,,,,,,,,
,j,001,2022-04-28_21h09.24.041,classification_task,2021.2.3,Win32,74.97375918,5e96195dd7dbe00939d9f042,626b377229c10585ec392f89,626b3aaee8b54ad2720a8215,,,,,,,,,,,,,,,,,,,,,,,,,,,,,,,,,,,,,,,0, ,,0,5.095841922,425.7404,0,0,0,0,1,2,1,,,,,,,,,,,,,,,,,
,j,001,2022-04-28_21h09.24.041,classification_task,2021.2.3,Win32,74.97375918,5e96195dd7dbe00939d9f042,626b377229c10585ec392f89,626b3aaee8b54ad2720a8215,,,,,,,,,,,,,,,,,,,,,,,,,,,,,,,,,,,,,,,1,  ,,0,6.905261442,430.6974,0,0,0,0,1,2,1,,,,,,,,,,,,,,,,,
,j,001,2022-04-28_21h09.24.041,classification_task,2021.2.3,Win32,74.97375918,5e96195dd7dbe00939d9f042,626b377229c10585ec392f89,626b3aaee8b54ad2720a8215,,,,,,,,,,,,,,,,,,,,,,,,,,,,,,,,,,,,,,,2,  ,,0,2.968552396,435.4987,0,0,0,0,1,2,1,,,,,,,,,,,,,,,,,
,j,001,2022-04-28_21h09.24.041,classification_task,2021.2.3,Win32,74.97375918,5e96195dd7dbe00939d9f042,626b377229c10585ec392f89,626b3aaee8b54ad2720a8215,,,,,,,,,,,,,,,,,,,,,,,,,,,,,,,,,,,,,,,,,,,,,0,0,0,0,1,,1,,,,,,,,,,,,,,,,,
,j,001,2022-04-28_21h09.24.041,classification_task,2021.2.3,Win32,74.97375918,5e96195dd7dbe00939d9f042,626b377229c10585ec392f89,626b3aaee8b54ad2720a8215,,,,,,,,,,,,,,,,,,,,,space,6.5863,a,0,3.0403,"[""0.550"",""0.383"",""0.516"",""0.822""]","[0,1,1,1]",0,0,0,0,1,1,0,,,0,FALSE,,,,,,,,,,,,,,,,,,,,,,,,,,,,,,
,j,001,2022-04-28_21h09.24.041,classification_task,2021.2.3,Win32,74.97375918,5e96195dd7dbe00939d9f042,626b377229c10585ec392f89,626b3aaee8b54ad2720a8215,,,,,,,,,,,,,,,,,,,,,,,a,0,1.3305,"[""0.054"",""0.138"",""0.516"",""0.822""]","[1,0,1,1]",0,1,1,1,1,1,0,,,0,FALSE,,,,,,,,,,,,,,,,,,,,,,,,,,,,,,
,j,001,2022-04-28_21h09.24.041,classification_task,2021.2.3,Win32,74.97375918,5e96195dd7dbe00939d9f042,626b377229c10585ec392f89,626b3aaee8b54ad2720a8215,,,,,,,,,,,,,,,,,,,,,,,l,1,2.0693,"[""0.054"",""0.383"",""0.606"",""0.822""]","[1,1,0,1]",0,2,2,2,1,1,0,,,0,FALSE,,,,,,,,,,,,,,,,,,,,,,,,,,,,,,
,j,001,2022-04-28_21h09.24.041,classification_task,2021.2.3,Win32,74.97375918,5e96195dd7dbe00939d9f042,626b377229c10585ec392f89,626b3aaee8b54ad2720a8215,,,,,,,,,,,,,,,,,,,,,,,a,0,1.0548,"[""0.054"",""0.383"",""0.516"",""0.550""]","[1,1,1,0]",0,3,3,3,1,1,0,,,0,FALSE,,,,,,,,,,,,,,,,,,,,,,,,,,,,,,
,j,001,2022-04-28_21h09.24.041,classification_task,2021.2.3,Win32,74.97375918,5e96195dd7dbe00939d9f042,626b377229c10585ec392f89,626b3aaee8b54ad2720a8215,,,,,,,,,,,,,,,,,,,,,,,l,0,0.2537,"[""0.256"",""0.293"",""0.766"",""0.944""]","[1,0,1,1]",0,4,4,4,1,0,0,,,0,FALSE,,,,,,,,,,,,,,,,,,,,,,,,,,,,,,
,j,001,2022-04-28_21h09.24.041,classification_task,2021.2.3,Win32,74.97375918,5e96195dd7dbe00939d9f042,626b377229c10585ec392f89,626b3aaee8b54ad2720a8215,,,,,,,,,,,,,,,,,,,,,,,l,0,0.9739,"[""0.171"",""0.427"",""0.873"",""0.726""]","[1,1,1,0]",0,5,5,5,1,0,1,,,0,FALSE,,,,,,,,,,,,,,,,,,,,,,,,,,,,,,
,j,001,2022-04-28_21h09.24.041,classification_task,2021.2.3,Win32,74.97375918,5e96195dd7dbe00939d9f042,626b377229c10585ec392f89,626b3aaee8b54ad2720a8215,,,,,,,,,,,,,,,,,,,,,,,a,1,0.4547,"[""0.726"",""0.475"",""0.766"",""0.944""]","[0,1,1,1]",0,6,6,6,1,0,0,,,0,FALSE,,,,,,,,,,,,,,,,,,,,,,,,,,,,,,
,j,001,2022-04-28_21h09.24.041,classification_task,2021.2.3,Win32,74.97375918,5e96195dd7dbe00939d9f042,626b377229c10585ec392f89,626b3aaee8b54ad2720a8215,,,,,,,,,,,,,,,,,,,,,,,l,1,1.188,"[""0.097"",""0.329"",""0.641"",""0.585""]","[1,1,1,0]",0,7,7,7,1,1,1,,,0,FALSE,,,,,,,,,,,,,,,,,,,,,,,,,,,,,,
,j,001,2022-04-28_21h09.24.041,classification_task,2021.2.3,Win32,74.97375918,5e96195dd7dbe00939d9f042,626b377229c10585ec392f89,626b3aaee8b54ad2720a8215,,,,,,,,,,,,,,,,,,,,,,,l,1,0.6682,"[""0.097"",""0.329"",""0.730"",""0.685""]","[1,1,0,1]",0,8,8,8,1,1,1,,,0,FALSE,,,,,,,,,,,,,,,,,,,,,,,,,,,,,,
,j,001,2022-04-28_21h09.24.041,classification_task,2021.2.3,Win32,74.97375918,5e96195dd7dbe00939d9f042,626b377229c10585ec392f89,626b3aaee8b54ad2720a8215,,,,,,,,,,,,,,,,,,,,,,,l,1,0.5471,"[""0.293"",""0.329"",""0.641"",""0.685""]","[0,1,1,1]",0,9,9,9,1,1,1,,,0,FALSE,,,,,,,,,,,,,,,,,,,,,,,,,,,,,,
,j,001,2022-04-28_21h09.24.041,classification_task,2021.2.3,Win32,74.97375918,5e96195dd7dbe00939d9f042,626b377229c10585ec392f89,626b3aaee8b54ad2720a8215,,,,,,,,,,,,,,,,,,,,,,,a,1,0.3183,"[""0.256"",""0.475"",""0.766"",""0.550""]","[1,1,1,0]",0,10,10,10,1,0,0,,,0,FALSE,,,,,,,,,,,,,,,,,,,,,,,,,,,,,,
,j,001,2022-04-28_21h09.24.041,classification_task,2021.2.3,Win32,74.97375918,5e96195dd7dbe00939d9f042,626b377229c10585ec392f89,626b3aaee8b54ad2720a8215,,,,,,,,,,,,,,,,,,,,,,,l,0,0.4403,"[""0.293"",""0.427"",""0.873"",""0.908""]","[0,1,1,1]",0,11,11,11,1,0,1,,,0,FALSE,,,,,,,,,,,,,,,,,,,,,,,,,,,,,,
,j,001,2022-04-28_21h09.24.041,classification_task,2021.2.3,Win32,74.97375918,5e96195dd7dbe00939d9f042,626b377229c10585ec392f89,626b3aaee8b54ad2720a8215,,,,,,,,,,,,,,,,,,,,,,,a,1,0.7609,"[""0.171"",""0.138"",""0.873"",""0.908""]","[1,0,1,1]",0,12,12,12,1,0,1,,,0,FALSE,,,,,,,,,,,,,,,,,,,,,,,,,,,,,,
,j,001,2022-04-28_21h09.24.041,classification_task,2021.2.3,Win32,74.97375918,5e96195dd7dbe00939d9f042,626b377229c10585ec392f89,626b3aaee8b54ad2720a8215,,,,,,,,,,,,,,,,,,,,,,,l,0,0.8591,"[""0.171"",""0.427"",""0.606"",""0.908""]","[1,1,0,1]",0,13,13,13,1,0,1,,,0,FALSE,,,,,,,,,,,,,,,,,,,,,,,,,,,,,,
,j,001,2022-04-28_21h09.24.041,classification_task,2021.2.3,Win32,74.97375918,5e96195dd7dbe00939d9f042,626b377229c10585ec392f89,626b3aaee8b54ad2720a8215,,,,,,,,,,,,,,,,,,,,,,,l,0,1.1089,"[""0.256"",""0.475"",""0.218"",""0.944""]","[1,1,0,1]",0,14,14,14,1,0,0,,,0,FALSE,,,,,,,,,,,,,,,,,,,,,,,,,,,,,,
,j,001,2022-04-28_21h09.24.041,classification_task,2021.2.3,Win32,74.97375918,5e96195dd7dbe00939d9f042,626b377229c10585ec392f89,626b3aaee8b54ad2720a8215,,,,,,,,,,,,,,,,,,,,,,,a,0,0.6796,"[""0.097"",""0.293"",""0.641"",""0.685""]","[1,0,1,1]",0,15,15,15,1,1,1,,,0,FALSE,,,,,,,,,,,,,,,,,,,,,,,,,,,,,,
,j,001,2022-04-28_21h09.24.041,classification_task,2021.2.3,Win32,74.97375918,5e96195dd7dbe00939d9f042,626b377229c10585ec392f89,626b3aaee8b54ad2720a8215,,,,,,,,,,,,,,,,,,,,,,,a,0,0.9961,"[""0.138"",""0.383"",""0.516"",""0.822""]","[0,1,1,1]",0,16,16,16,1,1,0,,,0,FALSE,,,,,,,,,,,,,,,,,,,,,,,,,,,,,,
,j,001,2022-04-28_21h09.24.041,classification_task,2021.2.3,Win32,74.97375918,5e96195dd7dbe00939d9f042,626b377229c10585ec392f89,626b3aaee8b54ad2720a8215,,,,,,,,,,,,,,,,,,,,,,,l,1,0.7495,"[""0.097"",""0.329"",""0.138"",""0.685""]","[1,1,0,1]",0,17,17,17,1,1,1,,,0,FALSE,,,,,,,,,,,,,,,,,,,,,,,,,,,,,,
,j,001,2022-04-28_21h09.24.041,classification_task,2021.2.3,Win32,74.97375918,5e96195dd7dbe00939d9f042,626b377229c10585ec392f89,626b3aaee8b54ad2720a8215,,,,,,,,,,,,,,,,,,,,,,,l,0,0.5416,"[""0.171"",""0.427"",""0.873"",""0.138""]","[1,1,1,0]",0,18,18,18,1,0,1,,,0,FALSE,,,,,,,,,,,,,,,,,,,,,,,,,,,,,,
,j,001,2022-04-28_21h09.24.041,classification_task,2021.2.3,Win32,74.97375918,5e96195dd7dbe00939d9f042,626b377229c10585ec392f89,626b3aaee8b54ad2720a8215,,,,,,,,,,,,,,,,,,,,,,,l,1,0.4662,"[""0.606"",""0.329"",""0.641"",""0.685""]","[0,1,1,1]",0,19,19,19,1,1,1,,,0,FALSE,,,,,,,,,,,,,,,,,,,,,,,,,,,,,,
,j,001,2022-04-28_21h09.24.041,classification_task,2021.2.3,Win32,74.97375918,5e96195dd7dbe00939d9f042,626b377229c10585ec392f89,626b3aaee8b54ad2720a8215,,,,,,,,,,,,,,,,,,,,,,,a,1,0.2332,"[""0.725"",""0.427"",""0.873"",""0.908""]","[0,1,1,1]",0,20,20,20,1,0,1,,,0,FALSE,,,,,,,,,,,,,,,,,,,,,,,,,,,,,,
,j,001,2022-04-28_21h09.24.041,classification_task,2021.2.3,Win32,74.97375918,5e96195dd7dbe00939d9f042,626b377229c10585ec392f89,626b3aaee8b54ad2720a8215,,,,,,,,,,,,,,,,,,,,,,,l,1,0.1287,"[""0.097"",""0.725"",""0.641"",""0.685""]","[1,0,1,1]",0,21,21,21,1,1,1,,,0,FALSE,,,,,,,,,,,,,,,,,,,,,,,,,,,,,,
,j,001,2022-04-28_21h09.24.041,classification_task,2021.2.3,Win32,74.97375918,5e96195dd7dbe00939d9f042,626b377229c10585ec392f89,626b3aaee8b54ad2720a8215,,,,,,,,,,,,,,,,,,,,,,,l,1,0.0703,"[""0.054"",""0.383"",""0.516"",""0.216""]","[1,1,1,0]",0,22,22,22,1,1,0,,,0,FALSE,,,,,,,,,,,,,,,,,,,,,,,,,,,,,,
,j,001,2022-04-28_21h09.24.041,classification_task,2021.2.3,Win32,74.97375918,5e96195dd7dbe00939d9f042,626b377229c10585ec392f89,626b3aaee8b54ad2720a8215,,,,,,,,,,,,,,,,,,,,,,,a,0,0.4606,"[""0.054"",""0.550"",""0.516"",""0.822""]","[1,0,1,1]",0,23,23,23,1,1,0,,,0,FALSE,,,,,,,,,,,,,,,,,,,,,,,,,,,,,,
,j,001,2022-04-28_21h09.24.041,classification_task,2021.2.3,Win32,74.97375918,5e96195dd7dbe00939d9f042,626b377229c10585ec392f89,626b3aaee8b54ad2720a8215,,,,,,,,,,,,,,,,,,,,,,,a,1,0.8475,"[""0.256"",""0.475"",""0.766"",""0.132""]","[1,1,1,0]",0,24,24,24,1,0,0,,,0,FALSE,,,,,,,,,,,,,,,,,,,,,,,,,,,,,,
,j,001,2022-04-28_21h09.24.041,classification_task,2021.2.3,Win32,74.97375918,5e96195dd7dbe00939d9f042,626b377229c10585ec392f89,626b3aaee8b54ad2720a8215,,,,,,,,,,,,,,,,,,,,,,,a,0,0.469,"[""0.054"",""0.383"",""0.216"",""0.822""]","[1,1,0,1]",0,25,25,25,1,1,0,,,0,FALSE,,,,,,,,,,,,,,,,,,,,,,,,,,,,,,
,j,001,2022-04-28_21h09.24.041,classification_task,2021.2.3,Win32,74.97375918,5e96195dd7dbe00939d9f042,626b377229c10585ec392f89,626b3aaee8b54ad2720a8215,,,,,,,,,,,,,,,,,,,,,,,l,0,0.2433,"[""0.585"",""0.475"",""0.766"",""0.944""]","[0,1,1,1]",0,26,26,26,1,0,0,,,0,FALSE,,,,,,,,,,,,,,,,,,,,,,,,,,,,,,
,j,001,2022-04-28_21h09.24.041,classification_task,2021.2.3,Win32,74.97375918,5e96195dd7dbe00939d9f042,626b377229c10585ec392f89,626b3aaee8b54ad2720a8215,,,,,,,,,,,,,,,,,,,,,,,l,0,0.4743,"[""0.256"",""0.475"",""0.222"",""0.944""]","[1,1,0,1]",0,27,27,27,1,0,0,,,0,FALSE,,,,,,,,,,,,,,,,,,,,,,,,,,,,,,
,j,001,2022-04-28_21h09.24.041,classification_task,2021.2.3,Win32,74.97375918,5e96195dd7dbe00939d9f042,626b377229c10585ec392f89,626b3aaee8b54ad2720a8215,,,,,,,,,,,,,,,,,,,,,,,a,1,0.619,"[""0.171"",""0.427"",""0.725"",""0.908""]","[1,1,0,1]",0,28,28,28,1,0,1,,,0,FALSE,,,,,,,,,,,,,,,,,,,,,,,,,,,,,,
,j,001,2022-04-28_21h09.24.041,classification_task,2021.2.3,Win32,74.97375918,5e96195dd7dbe00939d9f042,626b377229c10585ec392f89,626b3aaee8b54ad2720a8215,,,,,,,,,,,,,,,,,,,,,,,l,0,0.5337,"[""0.256"",""0.585"",""0.766"",""0.944""]","[1,0,1,1]",0,29,29,29,1,0,0,,,0,FALSE,,,,,,,,,,,,,,,,,,,,,,,,,,,,,,
,j,001,2022-04-28_21h09.24.041,classification_task,2021.2.3,Win32,74.97375918,5e96195dd7dbe00939d9f042,626b377229c10585ec392f89,626b3aaee8b54ad2720a8215,,,,,,,,,,,,,,,,,,,,,,,a,1,0.1653,"[""0.171"",""0.606"",""0.873"",""0.908""]","[1,0,1,1]",0,30,30,30,1,0,1,,,0,FALSE,,,,,,,,,,,,,,,,,,,,,,,,,,,,,,
,j,001,2022-04-28_21h09.24.041,classification_task,2021.2.3,Win32,74.97375918,5e96195dd7dbe00939d9f042,626b377229c10585ec392f89,626b3aaee8b54ad2720a8215,,,,,,,,,,,,,,,,,,,,,,,a,0,0.3655,"[""0.097"",""0.329"",""0.641"",""0.216""]","[1,1,1,0]",0,31,31,31,1,1,1,,,0,FALSE,,,,,,,,,,,,,,,,,,,,,,,,,,,,,,
,j,001,2022-04-28_21h09.24.041,classification_task,2021.2.3,Win32,74.97375918,5e96195dd7dbe00939d9f042,626b377229c10585ec392f89,626b3aaee8b54ad2720a8215,,,,,,,,,,,,,,,,,,,,,,,a,0,0.0415,"[""0.054"",""0.606"",""0.516"",""0.822""]","[1,0,1,1]",0,32,32,32,1,1,0,,,0,FALSE,,,,,,,,,,,,,,,,,,,,,,,,,,,,,,
,j,001,2022-04-28_21h09.24.041,classification_task,2021.2.3,Win32,74.97375918,5e96195dd7dbe00939d9f042,626b377229c10585ec392f89,626b3aaee8b54ad2720a8215,,,,,,,,,,,,,,,,,,,,,,,l,1,0.0939,"[""0.097"",""0.293"",""0.641"",""0.685""]","[1,0,1,1]",0,33,33,33,1,1,1,,,0,FALSE,,,,,,,,,,,,,,,,,,,,,,,,,,,,,,
,j,001,2022-04-28_21h09.24.041,classification_task,2021.2.3,Win32,74.97375918,5e96195dd7dbe00939d9f042,626b377229c10585ec392f89,626b3aaee8b54ad2720a8215,,,,,,,,,,,,,,,,,,,,,,,a,1,0.256,"[""0.256"",""0.475"",""0.216"",""0.944""]","[1,1,0,1]",0,34,34,34,1,0,0,,,0,FALSE,,,,,,,,,,,,,,,,,,,,,,,,,,,,,,
,j,001,2022-04-28_21h09.24.041,classification_task,2021.2.3,Win32,74.97375918,5e96195dd7dbe00939d9f042,626b377229c10585ec392f89,626b3aaee8b54ad2720a8215,,,,,,,,,,,,,,,,,,,,,,,a,1,0.7981,"[""0.171"",""0.220"",""0.873"",""0.908""]","[1,0,1,1]",0,35,35,35,1,0,1,,,0,FALSE,,,,,,,,,,,,,,,,,,,,,,,,,,,,,,
,j,001,2022-04-28_21h09.24.041,classification_task,2021.2.3,Win32,74.97375918,5e96195dd7dbe00939d9f042,626b377229c10585ec392f89,626b3aaee8b54ad2720a8215,,,,,,,,,,,,,,,,,,,,,,,l,1,0.3737,"[""0.054"",""0.383"",""0.516"",""0.220""]","[1,1,1,0]",0,36,36,36,1,1,0,,,0,FALSE,,,,,,,,,,,,,,,,,,,,,,,,,,,,,,
,j,001,2022-04-28_21h09.24.041,classification_task,2021.2.3,Win32,74.97375918,5e96195dd7dbe00939d9f042,626b377229c10585ec392f89,626b3aaee8b54ad2720a8215,,,,,,,,,,,,,,,,,,,,,,,l,0,0.1069,"[""0.171"",""0.427"",""0.138"",""0.908""]","[1,1,0,1]",0,37,37,37,1,0,1,,,0,FALSE,,,,,,,,,,,,,,,,,,,,,,,,,,,,,,
,j,001,2022-04-28_21h09.24.041,classification_task,2021.2.3,Win32,74.97375918,5e96195dd7dbe00939d9f042,626b377229c10585ec392f89,626b3aaee8b54ad2720a8215,,,,,,,,,,,,,,,,,,,,,,,a,0,0.295,"[""0.054"",""0.383"",""0.138"",""0.822""]","[1,1,0,1]",0,38,38,38,1,1,0,,,0,FALSE,,,,,,,,,,,,,,,,,,,,,,,,,,,,,,
,j,001,2022-04-28_21h09.24.041,classification_task,2021.2.3,Win32,74.97375918,5e96195dd7dbe00939d9f042,626b377229c10585ec392f89,626b3aaee8b54ad2720a8215,,,,,,,,,,,,,,,,,,,,,,,a,0,0.067,"[""0.585"",""0.383"",""0.516"",""0.822""]","[0,1,1,1]",0,39,39,39,1,1,0,,,0,FALSE,,,,,,,,,,,,,,,,,,,,,,,,,,,,,,
,j,001,2022-04-28_21h09.24.041,classification_task,2021.2.3,Win32,74.97375918,5e96195dd7dbe00939d9f042,626b377229c10585ec392f89,626b3aaee8b54ad2720a8215,,,,,,,,,,,,,,,,,,,,,,,a,1,0.0837,"[""0.138"",""0.475"",""0.766"",""0.944""]","[0,1,1,1]",0,40,40,40,1,0,0,,,0,FALSE,,,,,,,,,,,,,,,,,,,,,,,,,,,,,,
,j,001,2022-04-28_21h09.24.041,classification_task,2021.2.3,Win32,74.97375918,5e96195dd7dbe00939d9f042,626b377229c10585ec392f89,626b3aaee8b54ad2720a8215,,,,,,,,,,,,,,,,,,,,,,,l,1,0.1469,"[""0.138"",""0.329"",""0.641"",""0.685""]","[0,1,1,1]",0,41,41,41,1,1,1,,,0,FALSE,,,,,,,,,,,,,,,,,,,,,,,,,,,,,,
,j,001,2022-04-28_21h09.24.041,classification_task,2021.2.3,Win32,74.97375918,5e96195dd7dbe00939d9f042,626b377229c10585ec392f89,626b3aaee8b54ad2720a8215,,,,,,,,,,,,,,,,,,,,,,,l,0,0.2675,"[""0.256"",""0.475"",""0.766"",""0.585""]","[1,1,1,0]",0,42,42,42,1,0,0,,,0,FALSE,,,,,,,,,,,,,,,,,,,,,,,,,,,,,,
,j,001,2022-04-28_21h09.24.041,classification_task,2021.2.3,Win32,74.97375918,5e96195dd7dbe00939d9f042,626b377229c10585ec392f89,626b3aaee8b54ad2720a8215,,,,,,,,,,,,,,,,,,,,,,,a,0,0.147,"[""0.097"",""0.329"",""0.641"",""0.585""]","[1,1,1,0]",0,43,43,43,1,1,1,,,0,FALSE,,,,,,,,,,,,,,,,,,,,,,,,,,,,,,
,j,001,2022-04-28_21h09.24.041,classification_task,2021.2.3,Win32,74.97375918,5e96195dd7dbe00939d9f042,626b377229c10585ec392f89,626b3aaee8b54ad2720a8215,,,,,,,,,,,,,,,,,,,,,,,a,0,0.5075,"[""0.097"",""0.329"",""0.585"",""0.685""]","[1,1,0,1]",0,44,44,44,1,1,1,,,0,FALSE,,,,,,,,,,,,,,,,,,,,,,,,,,,,,,
,j,001,2022-04-28_21h09.24.041,classification_task,2021.2.3,Win32,74.97375918,5e96195dd7dbe00939d9f042,626b377229c10585ec392f89,626b3aaee8b54ad2720a8215,,,,,,,,,,,,,,,,,,,,,,,a,1,0.0591,"[""0.171"",""0.427"",""0.873"",""0.606""]","[1,1,1,0]",0,45,45,45,1,0,1,,,0,FALSE,,,,,,,,,,,,,,,,,,,,,,,,,,,,,,
,j,001,2022-04-28_21h09.24.041,classification_task,2021.2.3,Win32,74.97375918,5e96195dd7dbe00939d9f042,626b377229c10585ec392f89,626b3aaee8b54ad2720a8215,,,,,,,,,,,,,,,,,,,,,,,a,1,0.6007,"[""0.132"",""0.427"",""0.873"",""0.908""]","[0,1,1,1]",0,46,46,46,1,0,1,,,0,FALSE,,,,,,,,,,,,,,,,,,,,,,,,,,,,,,
,j,001,2022-04-28_21h09.24.041,classification_task,2021.2.3,Win32,74.97375918,5e96195dd7dbe00939d9f042,626b377229c10585ec392f89,626b3aaee8b54ad2720a8215,,,,,,,,,,,,,,,,,,,,,,,l,0,0.165,"[""0.256"",""0.606"",""0.766"",""0.944""]","[1,0,1,1]",0,47,47,47,1,0,0,,,0,FALSE,,,,,,,,,,,,,,,,,,,,,,,,,,,,,,
,j,001,2022-04-28_21h09.24.041,classification_task,2021.2.3,Win32,74.97375918,5e96195dd7dbe00939d9f042,626b377229c10585ec392f89,626b3aaee8b54ad2720a8215,,,,,,,,,,,,,,,,,,,,,,,a,1,0.0072,"[""0.256"",""0.222"",""0.766"",""0.944""]","[1,0,1,1]",0,48,48,48,1,0,0,,,0,FALSE,,,,,,,,,,,,,,,,,,,,,,,,,,,,,,
,j,001,2022-04-28_21h09.24.041,classification_task,2021.2.3,Win32,74.97375918,5e96195dd7dbe00939d9f042,626b377229c10585ec392f89,626b3aaee8b54ad2720a8215,,,,,,,,,,,,,,,,,,,,,,,l,1,0.2286,"[""0.550"",""0.329"",""0.641"",""0.685""]","[0,1,1,1]",0,49,49,49,1,1,1,,,0,FALSE,,,,,,,,,,,,,,,,,,,,,,,,,,,,,,
,j,001,2022-04-28_21h09.24.041,classification_task,2021.2.3,Win32,74.97375918,5e96195dd7dbe00939d9f042,626b377229c10585ec392f89,626b3aaee8b54ad2720a8215,,,,,,,,,,,,,,,,,,,,,,,l,0,0.0826,"[""0.171"",""0.427"",""0.873"",""0.216""]","[1,1,1,0]",0,50,50,50,1,0,1,,,0,FALSE,,,,,,,,,,,,,,,,,,,,,,,,,,,,,,
,j,001,2022-04-28_21h09.24.041,classification_task,2021.2.3,Win32,74.97375918,5e96195dd7dbe00939d9f042,626b377229c10585ec392f89,626b3aaee8b54ad2720a8215,,,,,,,,,,,,,,,,,,,,,,,l,1,0.1602,"[""0.097"",""0.138"",""0.641"",""0.685""]","[1,0,1,1]",0,51,51,51,1,1,1,,,0,FALSE,,,,,,,,,,,,,,,,,,,,,,,,,,,,,,
,j,001,2022-04-28_21h09.24.041,classification_task,2021.2.3,Win32,74.97375918,5e96195dd7dbe00939d9f042,626b377229c10585ec392f89,626b3aaee8b54ad2720a8215,,,,,,,,,,,,,,,,,,,,,,,a,1,0.3047,"[""0.218"",""0.427"",""0.873"",""0.908""]","[0,1,1,1]",0,52,52,52,1,0,1,,,0,FALSE,,,,,,,,,,,,,,,,,,,,,,,,,,,,,,
,j,001,2022-04-28_21h09.24.041,classification_task,2021.2.3,Win32,74.97375918,5e96195dd7dbe00939d9f042,626b377229c10585ec392f89,626b3aaee8b54ad2720a8215,,,,,,,,,,,,,,,,,,,,,,,a,1,0.5915,"[""0.171"",""0.427"",""0.293"",""0.908""]","[1,1,0,1]",0,53,53,53,1,0,1,,,0,FALSE,,,,,,,,,,,,,,,,,,,,,,,,,,,,,,
,j,001,2022-04-28_21h09.24.041,classification_task,2021.2.3,Win32,74.97375918,5e96195dd7dbe00939d9f042,626b377229c10585ec392f89,626b3aaee8b54ad2720a8215,,,,,,,,,,,,,,,,,,,,,,,a,0,0.894,"[""0.054"",""0.383"",""0.516"",""0.138""]","[1,1,1,0]",0,54,54,54,1,1,0,,,0,FALSE,,,,,,,,,,,,,,,,,,,,,,,,,,,,,,
,j,001,2022-04-28_21h09.24.041,classification_task,2021.2.3,Win32,74.97375918,5e96195dd7dbe00939d9f042,626b377229c10585ec392f89,626b3aaee8b54ad2720a8215,,,,,,,,,,,,,,,,,,,,,,,a,0,0.0011,"[""0.054"",""0.222"",""0.516"",""0.822""]","[1,0,1,1]",0,55,55,55,1,1,0,,,0,FALSE,,,,,,,,,,,,,,,,,,,,,,,,,,,,,,
,j,001,2022-04-28_21h09.24.041,classification_task,2021.2.3,Win32,74.97375918,5e96195dd7dbe00939d9f042,626b377229c10585ec392f89,626b3aaee8b54ad2720a8215,,,,,,,,,,,,,,,,,,,,,,,a,1,0.1625,"[""0.256"",""0.475"",""0.730"",""0.944""]","[1,1,0,1]",0,56,56,56,1,0,0,,,0,FALSE,,,,,,,,,,,,,,,,,,,,,,,,,,,,,,
,j,001,2022-04-28_21h09.24.041,classification_task,2021.2.3,Win32,74.97375918,5e96195dd7dbe00939d9f042,626b377229c10585ec392f89,626b3aaee8b54ad2720a8215,,,,,,,,,,,,,,,,,,,,,,,a,0,0.7534,"[""0.054"",""0.383"",""0.725"",""0.822""]","[1,1,0,1]",0,57,57,57,1,1,0,,,0,FALSE,,,,,,,,,,,,,,,,,,,,,,,,,,,,,,
,j,001,2022-04-28_21h09.24.041,classification_task,2021.2.3,Win32,74.97375918,5e96195dd7dbe00939d9f042,626b377229c10585ec392f89,626b3aaee8b54ad2720a8215,,,,,,,,,,,,,,,,,,,,,,,a,1,0.2936,"[""0.291"",""0.475"",""0.766"",""0.944""]","[0,1,1,1]",0,58,58,58,1,0,0,,,0,FALSE,,,,,,,,,,,,,,,,,,,,,,,,,,,,,,
,j,001,2022-04-28_21h09.24.041,classification_task,2021.2.3,Win32,74.97375918,5e96195dd7dbe00939d9f042,626b377229c10585ec392f89,626b3aaee8b54ad2720a8215,,,,,,,,,,,,,,,,,,,,,,,l,1,0.3145,"[""0.585"",""0.383"",""0.516"",""0.822""]","[0,1,1,1]",0,59,59,59,1,1,0,,,0,FALSE,,,,,,,,,,,,,,,,,,,,,,,,,,,,,,
,j,001,2022-04-28_21h09.24.041,classification_task,2021.2.3,Win32,74.97375918,5e96195dd7dbe00939d9f042,626b377229c10585ec392f89,626b3aaee8b54ad2720a8215,,,,,,,,,,,,,,,,,,,,,,,l,0,0.4196,"[""0.256"",""0.475"",""0.766"",""0.216""]","[1,1,1,0]",0,60,60,60,1,0,0,,,0,FALSE,,,,,,,,,,,,,,,,,,,,,,,,,,,,,,
,j,001,2022-04-28_21h09.24.041,classification_task,2021.2.3,Win32,74.97375918,5e96195dd7dbe00939d9f042,626b377229c10585ec392f89,626b3aaee8b54ad2720a8215,,,,,,,,,,,,,,,,,,,,,,,l,0,0.0401,"[""0.171"",""0.216"",""0.873"",""0.908""]","[1,0,1,1]",0,61,61,61,1,0,1,,,0,FALSE,,,,,,,,,,,,,,,,,,,,,,,,,,,,,,
,j,001,2022-04-28_21h09.24.041,classification_task,2021.2.3,Win32,74.97375918,5e96195dd7dbe00939d9f042,626b377229c10585ec392f89,626b3aaee8b54ad2720a8215,,,,,,,,,,,,,,,,,,,,,,,a,0,0.2467,"[""0.097"",""0.329"",""0.606"",""0.685""]","[1,1,0,1]",0,62,62,62,1,1,1,,,0,FALSE,,,,,,,,,,,,,,,,,,,,,,,,,,,,,,
,j,001,2022-04-28_21h09.24.041,classification_task,2021.2.3,Win32,74.97375918,5e96195dd7dbe00939d9f042,626b377229c10585ec392f89,626b3aaee8b54ad2720a8215,,,,,,,,,,,,,,,,,,,,,,,a,0,0.6815,"[""0.097"",""0.329"",""0.641"",""0.291""]","[1,1,1,0]",0,63,63,63,1,1,1,,,0,FALSE,,,,,,,,,,,,,,,,,,,,,,,,,,,,,,
,j,001,2022-04-28_21h09.24.041,classification_task,2021.2.3,Win32,74.97375918,5e96195dd7dbe00939d9f042,626b377229c10585ec392f89,626b3aaee8b54ad2720a8215,,,,,,,,,,,,,,,,,,,,,,,,,,,,,,,,,,,,,,,0, ,,0,2.210551556,108.976,0,1,1,1,1,2,2,,,,,,,,,,,,,,,,,
,j,001,2022-04-28_21h09.24.041,classification_task,2021.2.3,Win32,74.97375918,5e96195dd7dbe00939d9f042,626b377229c10585ec392f89,626b3aaee8b54ad2720a8215,,,,,,,,,,,,,,,,,,,,,,,,,,,,,,,,,,,,,,,1,  ,,0,1.81932709,111.2427,0,1,1,1,1,2,2,,,,,,,,,,,,,,,,,
,j,001,2022-04-28_21h09.24.041,classification_task,2021.2.3,Win32,74.97375918,5e96195dd7dbe00939d9f042,626b377229c10585ec392f89,626b3aaee8b54ad2720a8215,,,,,,,,,,,,,,,,,,,,,,,,,,,,,,,,,,,,,,,2,  ,,0,2.112744931,112.7542,0,1,1,1,1,2,2,,,,,,,,,,,,,,,,,
,j,001,2022-04-28_21h09.24.041,classification_task,2021.2.3,Win32,74.97375918,5e96195dd7dbe00939d9f042,626b377229c10585ec392f89,626b3aaee8b54ad2720a8215,,,,,,,,,,,,,,,,,,,,,,,,,,,,,,,,,,,,,,,,,,,,,0,1,1,1,1,,2,,,,,,,,,,,,,,,,,
,j,001,2022-04-28_21h09.24.041,classification_task,2021.2.3,Win32,74.97375918,5e96195dd7dbe00939d9f042,626b377229c10585ec392f89,626b3aaee8b54ad2720a8215,,,,,,,,,,,,,,,,,,,,,space,8.5687,a,0,0.907,"[""0.097"",""0.726"",""0.641"",""0.685""]","[1,0,1,1]",0,0,0,0,1,1,1,,,0,FALSE,,,,,,,,,,,,,,,,,,,,,,,,,,,,,,
,j,001,2022-04-28_21h09.24.041,classification_task,2021.2.3,Win32,74.97375918,5e96195dd7dbe00939d9f042,626b377229c10585ec392f89,626b3aaee8b54ad2720a8215,,,,,,,,,,,,,,,,,,,,,,,l,0,0.682,"[""0.132"",""0.475"",""0.766"",""0.944""]","[0,1,1,1]",0,1,1,1,1,0,0,,,0,FALSE,,,,,,,,,,,,,,,,,,,,,,,,,,,,,,
,j,001,2022-04-28_21h09.24.041,classification_task,2021.2.3,Win32,74.97375918,5e96195dd7dbe00939d9f042,626b377229c10585ec392f89,626b3aaee8b54ad2720a8215,,,,,,,,,,,,,,,,,,,,,,,l,1,0.1893,"[""0.725"",""0.383"",""0.516"",""0.822""]","[0,1,1,1]",0,2,2,2,1,1,0,,,0,FALSE,,,,,,,,,,,,,,,,,,,,,,,,,,,,,,
,j,001,2022-04-28_21h09.24.041,classification_task,2021.2.3,Win32,74.97375918,5e96195dd7dbe00939d9f042,626b377229c10585ec392f89,626b3aaee8b54ad2720a8215,,,,,,,,,,,,,,,,,,,,,,,a,1,0.2031,"[""0.171"",""0.218"",""0.873"",""0.908""]","[1,0,1,1]",0,3,3,3,1,0,1,,,0,FALSE,,,,,,,,,,,,,,,,,,,,,,,,,,,,,,
,j,001,2022-04-28_21h09.24.041,classification_task,2021.2.3,Win32,74.97375918,5e96195dd7dbe00939d9f042,626b377229c10585ec392f89,626b3aaee8b54ad2720a8215,,,,,,,,,,,,,,,,,,,,,,,a,0,0.1736,"[""0.054"",""0.293"",""0.516"",""0.822""]","[1,0,1,1]",0,4,4,4,1,1,0,,,0,FALSE,,,,,,,,,,,,,,,,,,,,,,,,,,,,,,
,j,001,2022-04-28_21h09.24.041,classification_task,2021.2.3,Win32,74.97375918,5e96195dd7dbe00939d9f042,626b377229c10585ec392f89,626b3aaee8b54ad2720a8215,,,,,,,,,,,,,,,,,,,,,,,l,0,0.1392,"[""0.256"",""0.475"",""0.606"",""0.944""]","[1,1,0,1]",0,5,5,5,1,0,0,,,0,FALSE,,,,,,,,,,,,,,,,,,,,,,,,,,,,,,
,j,001,2022-04-28_21h09.24.041,classification_task,2021.2.3,Win32,74.97375918,5e96195dd7dbe00939d9f042,626b377229c10585ec392f89,626b3aaee8b54ad2720a8215,,,,,,,,,,,,,,,,,,,,,,,a,1,0.0047,"[""0.171"",""0.427"",""0.585"",""0.908""]","[1,1,0,1]",0,6,6,6,1,0,1,,,0,FALSE,,,,,,,,,,,,,,,,,,,,,,,,,,,,,,
,j,001,2022-04-28_21h09.24.041,classification_task,2021.2.3,Win32,74.97375918,5e96195dd7dbe00939d9f042,626b377229c10585ec392f89,626b3aaee8b54ad2720a8215,,,,,,,,,,,,,,,,,,,,,,,l,1,0.1764,"[""0.054"",""0.383"",""0.726"",""0.822""]","[1,1,0,1]",0,7,7,7,1,1,0,,,0,FALSE,,,,,,,,,,,,,,,,,,,,,,,,,,,,,,
,j,001,2022-04-28_21h09.24.041,classification_task,2021.2.3,Win32,74.97375918,5e96195dd7dbe00939d9f042,626b377229c10585ec392f89,626b3aaee8b54ad2720a8215,,,,,,,,,,,,,,,,,,,,,,,l,0,0.4915,"[""0.256"",""0.222"",""0.766"",""0.944""]","[1,0,1,1]",0,8,8,8,1,0,0,,,0,FALSE,,,,,,,,,,,,,,,,,,,,,,,,,,,,,,
,j,001,2022-04-28_21h09.24.041,classification_task,2021.2.3,Win32,74.97375918,5e96195dd7dbe00939d9f042,626b377229c10585ec392f89,626b3aaee8b54ad2720a8215,,,,,,,,,,,,,,,,,,,,,,,a,0,0.5872,"[""0.585"",""0.329"",""0.641"",""0.685""]","[0,1,1,1]",0,9,9,9,1,1,1,,,0,FALSE,,,,,,,,,,,,,,,,,,,,,,,,,,,,,,
,j,001,2022-04-28_21h09.24.041,classification_task,2021.2.3,Win32,74.97375918,5e96195dd7dbe00939d9f042,626b377229c10585ec392f89,626b3aaee8b54ad2720a8215,,,,,,,,,,,,,,,,,,,,,,,l,1,0.0404,"[""0.054"",""0.383"",""0.516"",""0.606""]","[1,1,1,0]",0,10,10,10,1,1,0,,,0,FALSE,,,,,,,,,,,,,,,,,,,,,,,,,,,,,,
,j,001,2022-04-28_21h09.24.041,classification_task,2021.2.3,Win32,74.97375918,5e96195dd7dbe00939d9f042,626b377229c10585ec392f89,626b3aaee8b54ad2720a8215,,,,,,,,,,,,,,,,,,,,,,,l,0,0.1336,"[""0.585"",""0.427"",""0.873"",""0.908""]","[0,1,1,1]",0,11,11,11,1,0,1,,,0,FALSE,,,,,,,,,,,,,,,,,,,,,,,,,,,,,,
,j,001,2022-04-28_21h09.24.041,classification_task,2021.2.3,Win32,74.97375918,5e96195dd7dbe00939d9f042,626b377229c10585ec392f89,626b3aaee8b54ad2720a8215,,,,,,,,,,,,,,,,,,,,,,,l,1,0.0802,"[""0.097"",""0.329"",""0.641"",""0.222""]","[1,1,1,0]",0,12,12,12,1,1,1,,,0,FALSE,,,,,,,,,,,,,,,,,,,,,,,,,,,,,,
,j,001,2022-04-28_21h09.24.041,classification_task,2021.2.3,Win32,74.97375918,5e96195dd7dbe00939d9f042,626b377229c10585ec392f89,626b3aaee8b54ad2720a8215,,,,,,,,,,,,,,,,,,,,,,,a,1,0.1237,"[""0.171"",""0.427"",""0.873"",""0.220""]","[1,1,1,0]",0,13,13,13,1,0,1,,,0,FALSE,,,,,,,,,,,,,,,,,,,,,,,,,,,,,,
,j,001,2022-04-28_21h09.24.041,classification_task,2021.2.3,Win32,74.97375918,5e96195dd7dbe00939d9f042,626b377229c10585ec392f89,626b3aaee8b54ad2720a8215,,,,,,,,,,,,,,,,,,,,,,,l,0,0.0173,"[""0.256"",""0.475"",""0.766"",""0.132""]","[1,1,1,0]",0,14,14,14,1,0,0,,,0,FALSE,,,,,,,,,,,,,,,,,,,,,,,,,,,,,,
,j,001,2022-04-28_21h09.24.041,classification_task,2021.2.3,Win32,74.97375918,5e96195dd7dbe00939d9f042,626b377229c10585ec392f89,626b3aaee8b54ad2720a8215,,,,,,,,,,,,,,,,,,,,,,,a,0,0.0133,"[""0.097"",""0.329"",""0.730"",""0.685""]","[1,1,0,1]",0,15,15,15,1,1,1,,,0,FALSE,,,,,,,,,,,,,,,,,,,,,,,,,,,,,,
,j,001,2022-04-28_21h09.24.041,classification_task,2021.2.3,Win32,74.97375918,5e96195dd7dbe00939d9f042,626b377229c10585ec392f89,626b3aaee8b54ad2720a8215,,,,,,,,,,,,,,,,,,,,,,,a,1,0.1477,"[""0.171"",""0.427"",""0.293"",""0.908""]","[1,1,0,1]",0,16,16,16,1,0,1,,,0,FALSE,,,,,,,,,,,,,,,,,,,,,,,,,,,,,,
,j,001,2022-04-28_21h09.24.041,classification_task,2021.2.3,Win32,74.97375918,5e96195dd7dbe00939d9f042,626b377229c10585ec392f89,626b3aaee8b54ad2720a8215,,,,,,,,,,,,,,,,,,,,,,,a,0,0.2136,"[""0.097"",""0.606"",""0.641"",""0.685""]","[1,0,1,1]",0,17,17,17,1,1,1,,,0,FALSE,,,,,,,,,,,,,,,,,,,,,,,,,,,,,,
,j,001,2022-04-28_21h09.24.041,classification_task,2021.2.3,Win32,74.97375918,5e96195dd7dbe00939d9f042,626b377229c10585ec392f89,626b3aaee8b54ad2720a8215,,,,,,,,,,,,,,,,,,,,,,,a,0,0.2136,"[""0.054"",""0.383"",""0.516"",""0.585""]","[1,1,1,0]",0,18,18,18,1,1,0,,,0,FALSE,,,,,,,,,,,,,,,,,,,,,,,,,,,,,,
,j,001,2022-04-28_21h09.24.041,classification_task,2021.2.3,Win32,74.97375918,5e96195dd7dbe00939d9f042,626b377229c10585ec392f89,626b3aaee8b54ad2720a8215,,,,,,,,,,,,,,,,,,,,,,,l,1,0.2671,"[""0.293"",""0.329"",""0.641"",""0.685""]","[0,1,1,1]",0,19,19,19,1,1,1,,,0,FALSE,,,,,,,,,,,,,,,,,,,,,,,,,,,,,,
,j,001,2022-04-28_21h09.24.041,classification_task,2021.2.3,Win32,74.97375918,5e96195dd7dbe00939d9f042,626b377229c10585ec392f89,626b3aaee8b54ad2720a8215,,,,,,,,,,,,,,,,,,,,,,,a,0,0.0717,"[""0.097"",""0.329"",""0.641"",""0.730""]","[1,1,1,0]",0,20,20,20,1,1,1,,,0,FALSE,,,,,,,,,,,,,,,,,,,,,,,,,,,,,,
,j,001,2022-04-28_21h09.24.041,classification_task,2021.2.3,Win32,74.97375918,5e96195dd7dbe00939d9f042,626b377229c10585ec392f89,626b3aaee8b54ad2720a8215,,,,,,,,,,,,,,,,,,,,,,,l,0,0.0173,"[""0.171"",""0.427"",""0.873"",""0.585""]","[1,1,1,0]",0,21,21,21,1,0,1,,,0,FALSE,,,,,,,,,,,,,,,,,,,,,,,,,,,,,,
,j,001,2022-04-28_21h09.24.041,classification_task,2021.2.3,Win32,74.97375918,5e96195dd7dbe00939d9f042,626b377229c10585ec392f89,626b3aaee8b54ad2720a8215,,,,,,,,,,,,,,,,,,,,,,,l,0,0.0668,"[""0.256"",""0.475"",""0.606"",""0.944""]","[1,1,0,1]",0,22,22,22,1,0,0,,,0,FALSE,,,,,,,,,,,,,,,,,,,,,,,,,,,,,,
,j,001,2022-04-28_21h09.24.041,classification_task,2021.2.3,Win32,74.97375918,5e96195dd7dbe00939d9f042,626b377229c10585ec392f89,626b3aaee8b54ad2720a8215,,,,,,,,,,,,,,,,,,,,,,,l,1,0.1539,"[""0.054"",""0.606"",""0.516"",""0.822""]","[1,0,1,1]",0,23,23,23,1,1,0,,,0,FALSE,,,,,,,,,,,,,,,,,,,,,,,,,,,,,,
,j,001,2022-04-28_21h09.24.041,classification_task,2021.2.3,Win32,74.97375918,5e96195dd7dbe00939d9f042,626b377229c10585ec392f89,626b3aaee8b54ad2720a8215,,,,,,,,,,,,,,,,,,,,,,,l,0,0.2671,"[""0.256"",""0.475"",""0.766"",""0.132""]","[1,1,1,0]",0,24,24,24,1,0,0,,,0,FALSE,,,,,,,,,,,,,,,,,,,,,,,,,,,,,,
,j,001,2022-04-28_21h09.24.041,classification_task,2021.2.3,Win32,74.97375918,5e96195dd7dbe00939d9f042,626b377229c10585ec392f89,626b3aaee8b54ad2720a8215,,,,,,,,,,,,,,,,,,,,,,,a,0,0.1737,"[""0.097"",""0.329"",""0.132"",""0.685""]","[1,1,0,1]",0,25,25,25,1,1,1,,,0,FALSE,,,,,,,,,,,,,,,,,,,,,,,,,,,,,,
,j,001,2022-04-28_21h09.24.041,classification_task,2021.2.3,Win32,74.97375918,5e96195dd7dbe00939d9f042,626b377229c10585ec392f89,626b3aaee8b54ad2720a8215,,,,,,,,,,,,,,,,,,,,,,,l,0,0.0706,"[""0.220"",""0.475"",""0.766"",""0.944""]","[0,1,1,1]",0,26,26,26,1,0,0,,,0,FALSE,,,,,,,,,,,,,,,,,,,,,,,,,,,,,,
,j,001,2022-04-28_21h09.24.041,classification_task,2021.2.3,Win32,74.97375918,5e96195dd7dbe00939d9f042,626b377229c10585ec392f89,626b3aaee8b54ad2720a8215,,,,,,,,,,,,,,,,,,,,,,,l,0,0.2154,"[""0.256"",""0.606"",""0.766"",""0.944""]","[1,0,1,1]",0,27,27,27,1,0,0,,,0,FALSE,,,,,,,,,,,,,,,,,,,,,,,,,,,,,,
,j,001,2022-04-28_21h09.24.041,classification_task,2021.2.3,Win32,74.97375918,5e96195dd7dbe00939d9f042,626b377229c10585ec392f89,626b3aaee8b54ad2720a8215,,,,,,,,,,,,,,,,,,,,,,,a,0,0.1337,"[""0.054"",""0.383"",""0.730"",""0.822""]","[1,1,0,1]",0,28,28,28,1,1,0,,,0,FALSE,,,,,,,,,,,,,,,,,,,,,,,,,,,,,,
,j,001,2022-04-28_21h09.24.041,classification_task,2021.2.3,Win32,74.97375918,5e96195dd7dbe00939d9f042,626b377229c10585ec392f89,626b3aaee8b54ad2720a8215,,,,,,,,,,,,,,,,,,,,,,,l,1,0.0669,"[""0.216"",""0.383"",""0.516"",""0.822""]","[0,1,1,1]",0,29,29,29,1,1,0,,,0,FALSE,,,,,,,,,,,,,,,,,,,,,,,,,,,,,,
,j,001,2022-04-28_21h09.24.041,classification_task,2021.2.3,Win32,74.97375918,5e96195dd7dbe00939d9f042,626b377229c10585ec392f89,626b3aaee8b54ad2720a8215,,,,,,,,,,,,,,,,,,,,,,,l,0,0.1071,"[""0.171"",""0.220"",""0.873"",""0.908""]","[1,0,1,1]",0,30,30,30,1,0,1,,,0,FALSE,,,,,,,,,,,,,,,,,,,,,,,,,,,,,,
,j,001,2022-04-28_21h09.24.041,classification_task,2021.2.3,Win32,74.97375918,5e96195dd7dbe00939d9f042,626b377229c10585ec392f89,626b3aaee8b54ad2720a8215,,,,,,,,,,,,,,,,,,,,,,,a,1,0.4685,"[""0.550"",""0.427"",""0.873"",""0.908""]","[0,1,1,1]",0,31,31,31,1,0,1,,,0,FALSE,,,,,,,,,,,,,,,,,,,,,,,,,,,,,,
,j,001,2022-04-28_21h09.24.041,classification_task,2021.2.3,Win32,74.97375918,5e96195dd7dbe00939d9f042,626b377229c10585ec392f89,626b3aaee8b54ad2720a8215,,,,,,,,,,,,,,,,,,,,,,,l,1,0.1259,"[""0.216"",""0.383"",""0.516"",""0.822""]","[0,1,1,1]",0,32,32,32,1,1,0,,,0,FALSE,,,,,,,,,,,,,,,,,,,,,,,,,,,,,,
,j,001,2022-04-28_21h09.24.041,classification_task,2021.2.3,Win32,74.97375918,5e96195dd7dbe00939d9f042,626b377229c10585ec392f89,626b3aaee8b54ad2720a8215,,,,,,,,,,,,,,,,,,,,,,,l,1,0.4807,"[""0.097"",""0.329"",""0.641"",""0.216""]","[1,1,1,0]",0,33,33,33,1,1,1,,,0,FALSE,,,,,,,,,,,,,,,,,,,,,,,,,,,,,,
,j,001,2022-04-28_21h09.24.041,classification_task,2021.2.3,Win32,74.97375918,5e96195dd7dbe00939d9f042,626b377229c10585ec392f89,626b3aaee8b54ad2720a8215,,,,,,,,,,,,,,,,,,,,,,,a,1,0.147,"[""0.171"",""0.222"",""0.873"",""0.908""]","[1,0,1,1]",0,34,34,34,1,0,1,,,0,FALSE,,,,,,,,,,,,,,,,,,,,,,,,,,,,,,
,j,001,2022-04-28_21h09.24.041,classification_task,2021.2.3,Win32,74.97375918,5e96195dd7dbe00939d9f042,626b377229c10585ec392f89,626b3aaee8b54ad2720a8215,,,,,,,,,,,,,,,,,,,,,,,l,0,0.2163,"[""0.171"",""0.427"",""0.873"",""0.585""]","[1,1,1,0]",0,35,35,35,1,0,1,,,0,FALSE,,,,,,,,,,,,,,,,,,,,,,,,,,,,,,
,j,001,2022-04-28_21h09.24.041,classification_task,2021.2.3,Win32,74.97375918,5e96195dd7dbe00939d9f042,626b377229c10585ec392f89,626b3aaee8b54ad2720a8215,,,,,,,,,,,,,,,,,,,,,,,l,1,0.2403,"[""0.054"",""0.383"",""0.138"",""0.822""]","[1,1,0,1]",0,36,36,36,1,1,0,,,0,FALSE,,,,,,,,,,,,,,,,,,,,,,,,,,,,,,
,j,001,2022-04-28_21h09.24.041,classification_task,2021.2.3,Win32,74.97375918,5e96195dd7dbe00939d9f042,626b377229c10585ec392f89,626b3aaee8b54ad2720a8215,,,,,,,,,,,,,,,,,,,,,,,a,0,0.1765,"[""0.054"",""0.383"",""0.516"",""0.550""]","[1,1,1,0]",0,37,37,37,1,1,0,,,0,FALSE,,,,,,,,,,,,,,,,,,,,,,,,,,,,,,
,j,001,2022-04-28_21h09.24.041,classification_task,2021.2.3,Win32,74.97375918,5e96195dd7dbe00939d9f042,626b377229c10585ec392f89,626b3aaee8b54ad2720a8215,,,,,,,,,,,,,,,,,,,,,,,a,0,0.158,"[""0.054"",""0.293"",""0.516"",""0.822""]","[1,0,1,1]",0,38,38,38,1,1,0,,,0,FALSE,,,,,,,,,,,,,,,,,,,,,,,,,,,,,,
,j,001,2022-04-28_21h09.24.041,classification_task,2021.2.3,Win32,74.97375918,5e96195dd7dbe00939d9f042,626b377229c10585ec392f89,626b3aaee8b54ad2720a8215,,,,,,,,,,,,,,,,,,,,,,,a,1,0.1362,"[""0.585"",""0.475"",""0.766"",""0.944""]","[0,1,1,1]",0,39,39,39,1,0,0,,,0,FALSE,,,,,,,,,,,,,,,,,,,,,,,,,,,,,,
,j,001,2022-04-28_21h09.24.041,classification_task,2021.2.3,Win32,74.97375918,5e96195dd7dbe00939d9f042,626b377229c10585ec392f89,626b3aaee8b54ad2720a8215,,,,,,,,,,,,,,,,,,,,,,,l,1,0.0662,"[""0.097"",""0.329"",""0.138"",""0.685""]","[1,1,0,1]",0,40,40,40,1,1,1,,,0,FALSE,,,,,,,,,,,,,,,,,,,,,,,,,,,,,,
,j,001,2022-04-28_21h09.24.041,classification_task,2021.2.3,Win32,74.97375918,5e96195dd7dbe00939d9f042,626b377229c10585ec392f89,626b3aaee8b54ad2720a8215,,,,,,,,,,,,,,,,,,,,,,,l,0,0.0581,"[""0.256"",""0.475"",""0.730"",""0.944""]","[1,1,0,1]",0,41,41,41,1,0,0,,,0,FALSE,,,,,,,,,,,,,,,,,,,,,,,,,,,,,,
,j,001,2022-04-28_21h09.24.041,classification_task,2021.2.3,Win32,74.97375918,5e96195dd7dbe00939d9f042,626b377229c10585ec392f89,626b3aaee8b54ad2720a8215,,,,,,,,,,,,,,,,,,,,,,,a,0,0.0538,"[""0.097"",""0.550"",""0.641"",""0.685""]","[1,0,1,1]",0,42,42,42,1,1,1,,,0,FALSE,,,,,,,,,,,,,,,,,,,,,,,,,,,,,,
,j,001,2022-04-28_21h09.24.041,classification_task,2021.2.3,Win32,74.97375918,5e96195dd7dbe00939d9f042,626b377229c10585ec392f89,626b3aaee8b54ad2720a8215,,,,,,,,,,,,,,,,,,,,,,,l,0,0.1647,"[""0.256"",""0.730"",""0.766"",""0.944""]","[1,0,1,1]",0,43,43,43,1,0,0,,,0,FALSE,,,,,,,,,,,,,,,,,,,,,,,,,,,,,,
,j,001,2022-04-28_21h09.24.041,classification_task,2021.2.3,Win32,74.97375918,5e96195dd7dbe00939d9f042,626b377229c10585ec392f89,626b3aaee8b54ad2720a8215,,,,,,,,,,,,,,,,,,,,,,,l,0,0.2669,"[""0.256"",""0.475"",""0.766"",""0.216""]","[1,1,1,0]",0,44,44,44,1,0,0,,,0,FALSE,,,,,,,,,,,,,,,,,,,,,,,,,,,,,,
,j,001,2022-04-28_21h09.24.041,classification_task,2021.2.3,Win32,74.97375918,5e96195dd7dbe00939d9f042,626b377229c10585ec392f89,626b3aaee8b54ad2720a8215,,,,,,,,,,,,,,,,,,,,,,,a,0,0.2578,"[""0.132"",""0.329"",""0.641"",""0.685""]","[0,1,1,1]",0,45,45,45,1,1,1,,,0,FALSE,,,,,,,,,,,,,,,,,,,,,,,,,,,,,,
,j,001,2022-04-28_21h09.24.041,classification_task,2021.2.3,Win32,74.97375918,5e96195dd7dbe00939d9f042,626b377229c10585ec392f89,626b3aaee8b54ad2720a8215,,,,,,,,,,,,,,,,,,,,,,,l,0,0.0933,"[""0.171"",""0.427"",""0.730"",""0.908""]","[1,1,0,1]",0,46,46,46,1,0,1,,,0,FALSE,,,,,,,,,,,,,,,,,,,,,,,,,,,,,,
,j,001,2022-04-28_21h09.24.041,classification_task,2021.2.3,Win32,74.97375918,5e96195dd7dbe00939d9f042,626b377229c10585ec392f89,626b3aaee8b54ad2720a8215,,,,,,,,,,,,,,,,,,,,,,,a,1,0.1305,"[""0.606"",""0.427"",""0.873"",""0.908""]","[0,1,1,1]",0,47,47,47,1,0,1,,,0,FALSE,,,,,,,,,,,,,,,,,,,,,,,,,,,,,,
,j,001,2022-04-28_21h09.24.041,classification_task,2021.2.3,Win32,74.97375918,5e96195dd7dbe00939d9f042,626b377229c10585ec392f89,626b3aaee8b54ad2720a8215,,,,,,,,,,,,,,,,,,,,,,,a,0,0.1065,"[""0.054"",""0.383"",""0.516"",""0.220""]","[1,1,1,0]",0,48,48,48,1,1,0,,,0,FALSE,,,,,,,,,,,,,,,,,,,,,,,,,,,,,,
,j,001,2022-04-28_21h09.24.041,classification_task,2021.2.3,Win32,74.97375918,5e96195dd7dbe00939d9f042,626b377229c10585ec392f89,626b3aaee8b54ad2720a8215,,,,,,,,,,,,,,,,,,,,,,,l,1,0.1865,"[""0.054"",""0.383"",""0.725"",""0.822""]","[1,1,0,1]",0,49,49,49,1,1,0,,,0,FALSE,,,,,,,,,,,,,,,,,,,,,,,,,,,,,,
,j,001,2022-04-28_21h09.24.041,classification_task,2021.2.3,Win32,74.97375918,5e96195dd7dbe00939d9f042,626b377229c10585ec392f89,626b3aaee8b54ad2720a8215,,,,,,,,,,,,,,,,,,,,,,,a,1,0.1727,"[""0.256"",""0.475"",""0.291"",""0.944""]","[1,1,0,1]",0,50,50,50,1,0,0,,,0,FALSE,,,,,,,,,,,,,,,,,,,,,,,,,,,,,,
,j,001,2022-04-28_21h09.24.041,classification_task,2021.2.3,Win32,74.97375918,5e96195dd7dbe00939d9f042,626b377229c10585ec392f89,626b3aaee8b54ad2720a8215,,,,,,,,,,,,,,,,,,,,,,,a,1,0.1867,"[""0.171"",""0.427"",""0.873"",""0.606""]","[1,1,1,0]",0,51,51,51,1,0,1,,,0,FALSE,,,,,,,,,,,,,,,,,,,,,,,,,,,,,,
,j,001,2022-04-28_21h09.24.041,classification_task,2021.2.3,Win32,74.97375918,5e96195dd7dbe00939d9f042,626b377229c10585ec392f89,626b3aaee8b54ad2720a8215,,,,,,,,,,,,,,,,,,,,,,,l,0,0.1868,"[""0.171"",""0.220"",""0.873"",""0.908""]","[1,0,1,1]",0,52,52,52,1,0,1,,,0,FALSE,,,,,,,,,,,,,,,,,,,,,,,,,,,,,,
,j,001,2022-04-28_21h09.24.041,classification_task,2021.2.3,Win32,74.97375918,5e96195dd7dbe00939d9f042,626b377229c10585ec392f89,626b3aaee8b54ad2720a8215,,,,,,,,,,,,,,,,,,,,,,,a,1,0.2798,"[""0.256"",""0.138"",""0.766"",""0.944""]","[1,0,1,1]",0,53,53,53,1,0,0,,,0,FALSE,,,,,,,,,,,,,,,,,,,,,,,,,,,,,,
,j,001,2022-04-28_21h09.24.041,classification_task,2021.2.3,Win32,74.97375918,5e96195dd7dbe00939d9f042,626b377229c10585ec392f89,626b3aaee8b54ad2720a8215,,,,,,,,,,,,,,,,,,,,,,,l,1,0.2932,"[""0.216"",""0.383"",""0.516"",""0.822""]","[0,1,1,1]",0,54,54,54,1,1,0,,,0,FALSE,,,,,,,,,,,,,,,,,,,,,,,,,,,,,,
,j,001,2022-04-28_21h09.24.041,classification_task,2021.2.3,Win32,74.97375918,5e96195dd7dbe00939d9f042,626b377229c10585ec392f89,626b3aaee8b54ad2720a8215,,,,,,,,,,,,,,,,,,,,,,,a,0,0.3598,"[""0.054"",""0.132"",""0.516"",""0.822""]","[1,0,1,1]",0,55,55,55,1,1,0,,,0,FALSE,,,,,,,,,,,,,,,,,,,,,,,,,,,,,,
,j,001,2022-04-28_21h09.24.041,classification_task,2021.2.3,Win32,74.97375918,5e96195dd7dbe00939d9f042,626b377229c10585ec392f89,626b3aaee8b54ad2720a8215,,,,,,,,,,,,,,,,,,,,,,,l,0,0.1734,"[""0.138"",""0.427"",""0.873"",""0.908""]","[0,1,1,1]",0,56,56,56,1,0,1,,,0,FALSE,,,,,,,,,,,,,,,,,,,,,,,,,,,,,,
,j,001,2022-04-28_21h09.24.041,classification_task,2021.2.3,Win32,74.97375918,5e96195dd7dbe00939d9f042,626b377229c10585ec392f89,626b3aaee8b54ad2720a8215,,,,,,,,,,,,,,,,,,,,,,,l,1,0.2534,"[""0.097"",""0.329"",""0.293"",""0.685""]","[1,1,0,1]",0,57,57,57,1,1,1,,,0,FALSE,,,,,,,,,,,,,,,,,,,,,,,,,,,,,,
,j,001,2022-04-28_21h09.24.041,classification_task,2021.2.3,Win32,74.97375918,5e96195dd7dbe00939d9f042,626b377229c10585ec392f89,626b3aaee8b54ad2720a8215,,,,,,,,,,,,,,,,,,,,,,,l,1,0.3071,"[""0.097"",""0.329"",""0.641"",""0.138""]","[1,1,1,0]",0,58,58,58,1,1,1,,,0,FALSE,,,,,,,,,,,,,,,,,,,,,,,,,,,,,,
,j,001,2022-04-28_21h09.24.041,classification_task,2021.2.3,Win32,74.97375918,5e96195dd7dbe00939d9f042,626b377229c10585ec392f89,626b3aaee8b54ad2720a8215,,,,,,,,,,,,,,,,,,,,,,,a,1,0.0532,"[""0.256"",""0.475"",""0.766"",""0.138""]","[1,1,1,0]",0,59,59,59,1,0,0,,,0,FALSE,,,,,,,,,,,,,,,,,,,,,,,,,,,,,,
,j,001,2022-04-28_21h09.24.041,classification_task,2021.2.3,Win32,74.97375918,5e96195dd7dbe00939d9f042,626b377229c10585ec392f89,626b3aaee8b54ad2720a8215,,,,,,,,,,,,,,,,,,,,,,,l,1,0.0667,"[""0.293"",""0.329"",""0.641"",""0.685""]","[0,1,1,1]",0,60,60,60,1,1,1,,,0,FALSE,,,,,,,,,,,,,,,,,,,,,,,,,,,,,,
,j,001,2022-04-28_21h09.24.041,classification_task,2021.2.3,Win32,74.97375918,5e96195dd7dbe00939d9f042,626b377229c10585ec392f89,626b3aaee8b54ad2720a8215,,,,,,,,,,,,,,,,,,,,,,,a,1,0.2135,"[""0.585"",""0.475"",""0.766"",""0.944""]","[0,1,1,1]",0,61,61,61,1,0,0,,,0,FALSE,,,,,,,,,,,,,,,,,,,,,,,,,,,,,,
,j,001,2022-04-28_21h09.24.041,classification_task,2021.2.3,Win32,74.97375918,5e96195dd7dbe00939d9f042,626b377229c10585ec392f89,626b3aaee8b54ad2720a8215,,,,,,,,,,,,,,,,,,,,,,,l,1,0.0934,"[""0.097"",""0.291"",""0.641"",""0.685""]","[1,0,1,1]",0,62,62,62,1,1,1,,,0,FALSE,,,,,,,,,,,,,,,,,,,,,,,,,,,,,,
,j,001,2022-04-28_21h09.24.041,classification_task,2021.2.3,Win32,74.97375918,5e96195dd7dbe00939d9f042,626b377229c10585ec392f89,626b3aaee8b54ad2720a8215,,,,,,,,,,,,,,,,,,,,,,,l,0,0.4267,"[""0.171"",""0.427"",""0.216"",""0.908""]","[1,1,0,1]",0,63,63,63,1,0,1,,,0,FALSE,,,,,,,,,,,,,,,,,,,,,,,,,,,,,,
,j,001,2022-04-28_21h09.24.041,classification_task,2021.2.3,Win32,74.97375918,5e96195dd7dbe00939d9f042,626b377229c10585ec392f89,626b3aaee8b54ad2720a8215,,,,,,,,,,,,,,,,,,,,,,,,,,,,,,,,,,,,,,,0, ,,0,2.112744931,89.3755,0,2,2,2,1,2,3,,,,,,,,,,,,,,,,,
,j,001,2022-04-28_21h09.24.041,classification_task,2021.2.3,Win32,74.97375918,5e96195dd7dbe00939d9f042,626b377229c10585ec392f89,626b3aaee8b54ad2720a8215,,,,,,,,,,,,,,,,,,,,,,,,,,,,,,,,,,,,,,,1,  ,,0,0.401132036,91.1443,0,2,2,2,1,2,3,,,,,,,,,,,,,,,,,
,j,001,2022-04-28_21h09.24.041,classification_task,2021.2.3,Win32,74.97375918,5e96195dd7dbe00939d9f042,626b377229c10585ec392f89,626b3aaee8b54ad2720a8215,,,,,,,,,,,,,,,,,,,,,,,,,,,,,,,,,,,,,,,2,  ,,0,4.75351975,92.4391,0,2,2,2,1,2,3,,,,,,,,,,,,,,,,,
,j,001,2022-04-28_21h09.24.041,classification_task,2021.2.3,Win32,74.97375918,5e96195dd7dbe00939d9f042,626b377229c10585ec392f89,626b3aaee8b54ad2720a8215,,,,,,,,,,,,,,,,,,,,,,,,,,,,,,,,,,,,,,,,,,,,,0,2,2,2,1,,3,,,,,,,,,,,,,,,,,
,j,001,2022-04-28_21h09.24.041,classification_task,2021.2.3,Win32,74.97375918,5e96195dd7dbe00939d9f042,626b377229c10585ec392f89,626b3aaee8b54ad2720a8215,,,,,,,,,,,,,,,,,,,,,,,,,,,,,,,,,,,,,,,,,,,,,,,,,,,,,I believe the aid is a competent performer,,0.7,0,1,653.5529,0,0,0,0,1,0,,,,
,j,001,2022-04-28_21h09.24.041,classification_task,2021.2.3,Win32,74.97375918,5e96195dd7dbe00939d9f042,626b377229c10585ec392f89,626b3aaee8b54ad2720a8215,,,,,,,,,,,,,,,,,,,,,,,,,,,,,,,,,,,,,,,,,,,,,,,,,,,,,I trust the aid,,0.7,0,1,654.2568,0,0,0,0,1,0,,,,
,j,001,2022-04-28_21h09.24.041,classification_task,2021.2.3,Win32,74.97375918,5e96195dd7dbe00939d9f042,626b377229c10585ec392f89,626b3aaee8b54ad2720a8215,,,,,,,,,,,,,,,,,,,,,,,,,,,,,,,,,,,,,,,,,,,,,,,,,,,,,I have confidence in the advice given by the aid,,0.7,0,1,656.1222,0,0,0,0,1,0,,,,
,j,001,2022-04-28_21h09.24.041,classification_task,2021.2.3,Win32,74.97375918,5e96195dd7dbe00939d9f042,626b377229c10585ec392f89,626b3aaee8b54ad2720a8215,,,,,,,,,,,,,,,,,,,,,,,,,,,,,,,,,,,,,,,,,,,,,,,,,,,,,I can depend on the aid,,0.7,0,1,657.3152,0,0,0,0,1,0,,,,
,j,001,2022-04-28_21h09.24.041,classification_task,2021.2.3,Win32,74.97375918,5e96195dd7dbe00939d9f042,626b377229c10585ec392f89,626b3aaee8b54ad2720a8215,,,,,,,,,,,,,,,,,,,,,,,,,,,,,,,,,,,,,,,,,,,,,,,,,,,,,I can rely on the aid to behave in consistent ways,,0.7,0,1,658.6726,0,0,0,0,1,0,,,,
,j,001,2022-04-28_21h09.24.041,classification_task,2021.2.3,Win32,74.97375918,5e96195dd7dbe00939d9f042,626b377229c10585ec392f89,626b3aaee8b54ad2720a8215,,,,,,,,,,,,,,,,,,,,,,,,,,,,,,,,,,,,,,,,,,,,,,,,,,,,,I can rely on the aid to do its best every time I take its advice,,0.7,0,1,659.7827,0,0,0,0,1,0,,,,
,j,001,2022-04-28_21h09.24.041,classification_task,2021.2.3,Win32,74.97375918,5e96195dd7dbe00939d9f042,626b377229c10585ec392f89,626b3aaee8b54ad2720a8215,,,,,,,,,,,,,,,,,,,,,,,,,,,,,,,,,,,,,,,,,,,,,,,,,,,,,"On trials you completed with assistance from the aid, how frequently did you think the aid was correct?",,0.7,0,50,,0,0,0,0,1,0,,,,
,j,001,2022-04-28_21h09.24.041,classification_task,2021.2.3,Win32,74.97375918,5e96195dd7dbe00939d9f042,626b377229c10585ec392f89,626b3aaee8b54ad2720a8215,,,,,,,,,,,,,,,,,,,,,,,,,,,,,,,,,,,,,,,,,,,,,,,,,,,,,"On trials you completed without the aid, how frequently did you think you were correct?",,0.7,0,20,,0,0,0,0,1,0,,,,
,j,001,2022-04-28_21h09.24.041,classification_task,2021.2.3,Win32,74.97375918,5e96195dd7dbe00939d9f042,626b377229c10585ec392f89,626b3aaee8b54ad2720a8215,,,,,,,,,,,,,,,,,,,,,,,,,,,,,,,,,,,,,,,,,,,,,,,,,,,,,,,,,,,0,0,0,0,1,,,,,
,j,001,2022-04-28_21h09.24.041,classification_task,2021.2.3,Win32,74.97375918,5e96195dd7dbe00939d9f042,626b377229c10585ec392f89,626b3aaee8b54ad2720a8215,,,,,,,,,,,,,,,,,,,,,,,,,,,,,,,,,,,,,,,,,,,,,,,,,,,,,,,,,,,,,,,,,space,10.2931,684.1117,
,j,001,2022-04-28_21h09.24.041,classification_task,2021.2.3,Win32,74.97375918,5e96195dd7dbe00939d9f042,626b377229c10585ec392f89,626b3aaee8b54ad2720a8215,,,,,,,,,,,,,,,,,,,,,,,,,,,,,,,,,,,,,,,,,,,,,,,,,,,,,,,,,,,,,,,,,,,,"Mozilla/5.0 (Windows NT 10.0; Win64; x64) AppleWebKit/537.36 (KHTML, like Gecko) Chrome/100.0.4896.133 Safari/537.36"
