usingWebGL,participant,session,date,expName,psychopyVersion,OS,frameRate,PROLIFIC_PID,STUDY_ID,SESSION_ID,signatures_friend,signatures_foe,band_ranges_top,band_ranges_bottom,formitemText,formtype,formundefined,formitemWidth,formindex,formresponse,formrt,key_resp_2.keys,key_resp_2.rt,tute_resp.keys,tute_resp.rt,tutorial.thisRepN,tutorial.thisTrialN,tutorial.thisN,tutorial.thisIndex,tutorial.ran,key_resp_4.keys,key_resp_4.rt,key_resp.keys,key_resp.corr,key_resp.rt,lines_presented,is_signal_presented,trials.thisRepN,trials.thisTrialN,trials.thisN,trials.thisIndex,trials.ran,vessel,active_band,lines,is_signal,supported_pos,catch_trial,debrief_formindex,debrief_formitemText,debrief_formtype,debrief_formitemWidth,debrief_formresponse,debrief_formrt,phases.thisRepN,phases.thisTrialN,phases.thisN,phases.thisIndex,phases.ran,phases.order,phase,key_resp_3.keys,trustitemText,trusttype,trustitemWidth,trustindex,trustresponse,trustrt,support_status.thisRepN,support_status.thisTrialN,support_status.thisN,support_status.thisIndex,support_status.ran,support_status.order,key_resp_5.keys,key_resp_5.rt,globalClockTime,userAgent
TRUE,JP,001,2022-04-29_02h09.32.084,classification_task,2021.2.3,Win32,60.00960154,5de7d87f1a7af87458d8bf85,626b377229c10585ec392f89,626b3a9ca84ef0bb1c05e875,,,,,,,,,,,,,,,,,,,,,,,,,,,,,,,,,,,,,,,,,,,,,,,,,,,,,,,,,,,,,,,,,,,,
,JP,001,2022-04-29_02h09.32.084,classification_task,2021.2.3,Win32,60.00960154,5de7d87f1a7af87458d8bf85,626b377229c10585ec392f89,626b3a9ca84ef0bb1c05e875,"[[""0.175"",""0.466"",""0.871"",""0.920""],[""0.261"",""0.560"",""0.683"",""0.972""]]","[[""0.126"",""0.389"",""0.631"",""0.834""],[""0.058"",""0.317"",""0.520"",""0.782""]]","[1,10]","[100,1000]",Video game experience,,,0.7,0,,,,,,,,,,,,,,,,,,,,,,,,,,,,,,,,,,,,,,,,,,,,,,,,,,,,,,,,,,,
,JP,001,2022-04-29_02h09.32.084,classification_task,2021.2.3,Win32,60.00960154,5de7d87f1a7af87458d8bf85,626b377229c10585ec392f89,626b3a9ca84ef0bb1c05e875,,,,,Approximately how many hours did you spend playing video games in the last week?,,,0.7,0,8,,,,,,,,,,,,,,,,,,,,,,,,,,,,,,,,,,,,,,,,,,,,,,,,,,,,,,,,,,
,JP,001,2022-04-29_02h09.32.084,classification_task,2021.2.3,Win32,60.00960154,5de7d87f1a7af87458d8bf85,626b377229c10585ec392f89,626b3a9ca84ef0bb1c05e875,,,,,"Which game did you play the most this year? (Enter ""None"" if you didn't play any)",,,0.7,0,CS GO,,,,,,,,,,,,,,,,,,,,,,,,,,,,,,,,,,,,,,,,,,,,,,,,,,,,,,,,,,
,JP,001,2022-04-29_02h09.32.084,classification_task,2021.2.3,Win32,60.00960154,5de7d87f1a7af87458d8bf85,626b377229c10585ec392f89,626b3a9ca84ef0bb1c05e875,,,,,Visual perception,,,0.7,0,,,,,,,,,,,,,,,,,,,,,,,,,,,,,,,,,,,,,,,,,,,,,,,,,,,,,,,,,,,
,JP,001,2022-04-29_02h09.32.084,classification_task,2021.2.3,Win32,60.00960154,5de7d87f1a7af87458d8bf85,626b377229c10585ec392f89,626b3a9ca84ef0bb1c05e875,,,,,Do you have any form of color blindness?,,,0.7,0,No,42.2977,,,,,,,,,,,,,,,,,,,,,,,,,,,,,,,,,,,,,,,,,,,,,,,,,,,,,,,,,
,JP,001,2022-04-29_02h09.32.084,classification_task,2021.2.3,Win32,60.00960154,5de7d87f1a7af87458d8bf85,626b377229c10585ec392f89,626b3a9ca84ef0bb1c05e875,,,,,Do you use software to change the colour temperature of your screen (e.g. f.lux)?,,,0.7,0,No,45.6348,,,,,,,,,,,,,,,,,,,,,,,,,,,,,,,,,,,,,,,,,,,,,,,,,,,,,,,,,
,JP,001,2022-04-29_02h09.32.084,classification_task,2021.2.3,Win32,60.00960154,5de7d87f1a7af87458d8bf85,626b377229c10585ec392f89,626b3a9ca84ef0bb1c05e875,,,,,,,,,,,,space,34.1858,space,8.5636,0,0,0,0,1,,,,,,,,,,,,,,,,,,,,,,,,,,,,,,,,,,,,,,,,,,,,,,,,
,JP,001,2022-04-29_02h09.32.084,classification_task,2021.2.3,Win32,60.00960154,5de7d87f1a7af87458d8bf85,626b377229c10585ec392f89,626b3a9ca84ef0bb1c05e875,,,,,,,,,,,,,,space,9.244,1,0,1,0,1,,,,,,,,,,,,,,,,,,,,,,,,,,,,,,,,,,,,,,,,,,,,,,,,
,JP,001,2022-04-29_02h09.32.084,classification_task,2021.2.3,Win32,60.00960154,5de7d87f1a7af87458d8bf85,626b377229c10585ec392f89,626b3a9ca84ef0bb1c05e875,,,,,,,,,,,,,,space,24.7731,2,0,2,0,1,,,,,,,,,,,,,,,,,,,,,,,,,,,,,,,,,,,,,,,,,,,,,,,,
,JP,001,2022-04-29_02h09.32.084,classification_task,2021.2.3,Win32,60.00960154,5de7d87f1a7af87458d8bf85,626b377229c10585ec392f89,626b3a9ca84ef0bb1c05e875,,,,,,,,,,,,,,space,12.1249,3,0,3,0,1,,,,,,,,,,,,,,,,,,,,,,,,,,,,,,,,,,,,,,,,,,,,,,,,
,JP,001,2022-04-29_02h09.32.084,classification_task,2021.2.3,Win32,60.00960154,5de7d87f1a7af87458d8bf85,626b377229c10585ec392f89,626b3a9ca84ef0bb1c05e875,,,,,,,,,,,,,,space,15.2239,4,0,4,0,1,,,,,,,,,,,,,,,,,,,,,,,,,,,,,,,,,,,,,,,,,,,,,,,,
,JP,001,2022-04-29_02h09.32.084,classification_task,2021.2.3,Win32,60.00960154,5de7d87f1a7af87458d8bf85,626b377229c10585ec392f89,626b3a9ca84ef0bb1c05e875,,,,,,,,,,,,,,,,,,,,,space,25.2054,l,1,6.5567,"[""0.126"",""0.389"",""0.744"",""0.834""]","[1,1,0,1]",0,0,0,0,1,1,0,,,1,FALSE,,,,,,,,,,,,,,,,,,,,,,,,,,,,,,
,JP,001,2022-04-29_02h09.32.084,classification_task,2021.2.3,Win32,60.00960154,5de7d87f1a7af87458d8bf85,626b377229c10585ec392f89,626b3a9ca84ef0bb1c05e875,,,,,,,,,,,,,,,,,,,,,,,,0,,"[""0.175"",""0.228"",""0.871"",""0.920""]","[1,0,1,1]",0,1,1,1,1,0,0,,,1,FALSE,,,,,,,,,,,,,,,,,,,,,,,,,,,,,,
,JP,001,2022-04-29_02h09.32.084,classification_task,2021.2.3,Win32,60.00960154,5de7d87f1a7af87458d8bf85,626b377229c10585ec392f89,626b3a9ca84ef0bb1c05e875,,,,,,,,,,,,,,,,,,,,,,,a,1,4.5478,"[""0.228"",""0.560"",""0.683"",""0.972""]","[0,1,1,1]",0,2,2,2,1,0,1,,,1,FALSE,,,,,,,,,,,,,,,,,,,,,,,,,,,,,,
,JP,001,2022-04-29_02h09.32.084,classification_task,2021.2.3,Win32,60.00960154,5de7d87f1a7af87458d8bf85,626b377229c10585ec392f89,626b3a9ca84ef0bb1c05e875,,,,,,,,,,,,,,,,,,,,,,,a,0,6.0305,"[""0.126"",""0.744"",""0.631"",""0.834""]","[1,0,1,1]",0,3,3,3,1,1,0,,,1,FALSE,,,,,,,,,,,,,,,,,,,,,,,,,,,,,,
,JP,001,2022-04-29_02h09.32.084,classification_task,2021.2.3,Win32,60.00960154,5de7d87f1a7af87458d8bf85,626b377229c10585ec392f89,626b3a9ca84ef0bb1c05e875,,,,,,,,,,,,,,,,,,,,,,,l,1,7.1131,"[""0.736"",""0.389"",""0.631"",""0.834""]","[0,1,1,1]",0,4,4,4,1,1,0,,,1,FALSE,,,,,,,,,,,,,,,,,,,,,,,,,,,,,,
,JP,001,2022-04-29_02h09.32.084,classification_task,2021.2.3,Win32,60.00960154,5de7d87f1a7af87458d8bf85,626b377229c10585ec392f89,626b3a9ca84ef0bb1c05e875,,,,,,,,,,,,,,,,,,,,,,,a,1,5.4496,"[""0.175"",""0.466"",""0.744"",""0.920""]","[1,1,0,1]",0,5,5,5,1,0,0,,,1,FALSE,,,,,,,,,,,,,,,,,,,,,,,,,,,,,,
,JP,001,2022-04-29_02h09.32.084,classification_task,2021.2.3,Win32,60.00960154,5de7d87f1a7af87458d8bf85,626b377229c10585ec392f89,626b3a9ca84ef0bb1c05e875,,,,,,,,,,,,,,,,,,,,,,,a,1,4.5107,"[""0.261"",""0.560"",""0.683"",""0.228""]","[1,1,1,0]",0,6,6,6,1,0,1,,,1,FALSE,,,,,,,,,,,,,,,,,,,,,,,,,,,,,,
,JP,001,2022-04-29_02h09.32.084,classification_task,2021.2.3,Win32,60.00960154,5de7d87f1a7af87458d8bf85,626b377229c10585ec392f89,626b3a9ca84ef0bb1c05e875,,,,,,,,,,,,,,,,,,,,,,,l,1,3.3607,"[""0.058"",""0.317"",""0.520"",""0.222""]","[1,1,1,0]",0,7,7,7,1,1,1,,,1,FALSE,,,,,,,,,,,,,,,,,,,,,,,,,,,,,,
,JP,001,2022-04-29_02h09.32.084,classification_task,2021.2.3,Win32,60.00960154,5de7d87f1a7af87458d8bf85,626b377229c10585ec392f89,626b3a9ca84ef0bb1c05e875,,,,,,,,,,,,,,,,,,,,,,,l,1,2.6,"[""0.058"",""0.733"",""0.520"",""0.782""]","[1,0,1,1]",0,8,8,8,1,1,1,,,1,FALSE,,,,,,,,,,,,,,,,,,,,,,,,,,,,,,
,JP,001,2022-04-29_02h09.32.084,classification_task,2021.2.3,Win32,60.00960154,5de7d87f1a7af87458d8bf85,626b377229c10585ec392f89,626b3a9ca84ef0bb1c05e875,,,,,,,,,,,,,,,,,,,,,,,a,1,2.4013,"[""0.261"",""0.560"",""0.222"",""0.972""]","[1,1,0,1]",0,9,9,9,1,0,1,,,1,FALSE,,,,,,,,,,,,,,,,,,,,,,,,,,,,,,
,JP,001,2022-04-29_02h09.32.084,classification_task,2021.2.3,Win32,60.00960154,5de7d87f1a7af87458d8bf85,626b377229c10585ec392f89,626b3a9ca84ef0bb1c05e875,,,,,,,,,,,,,,,,,,,,,,,a,0,2.3489,"[""0.228"",""0.317"",""0.520"",""0.782""]","[0,1,1,1]",0,10,10,10,1,1,1,,,1,FALSE,,,,,,,,,,,,,,,,,,,,,,,,,,,,,,
,JP,001,2022-04-29_02h09.32.084,classification_task,2021.2.3,Win32,60.00960154,5de7d87f1a7af87458d8bf85,626b377229c10585ec392f89,626b3a9ca84ef0bb1c05e875,,,,,,,,,,,,,,,,,,,,,,,a,1,5.43,"[""0.261"",""0.215"",""0.683"",""0.972""]","[1,0,1,1]",0,11,11,11,1,0,1,,,1,FALSE,,,,,,,,,,,,,,,,,,,,,,,,,,,,,,
,JP,001,2022-04-29_02h09.32.084,classification_task,2021.2.3,Win32,60.00960154,5de7d87f1a7af87458d8bf85,626b377229c10585ec392f89,626b3a9ca84ef0bb1c05e875,,,,,,,,,,,,,,,,,,,,,,,l,1,5.0617,"[""0.058"",""0.317"",""0.223"",""0.782""]","[1,1,0,1]",0,12,12,12,1,1,1,,,1,FALSE,,,,,,,,,,,,,,,,,,,,,,,,,,,,,,
,JP,001,2022-04-29_02h09.32.084,classification_task,2021.2.3,Win32,60.00960154,5de7d87f1a7af87458d8bf85,626b377229c10585ec392f89,626b3a9ca84ef0bb1c05e875,,,,,,,,,,,,,,,,,,,,,,,a,1,4.9078,"[""0.223"",""0.466"",""0.871"",""0.920""]","[0,1,1,1]",0,13,13,13,1,0,0,,,1,FALSE,,,,,,,,,,,,,,,,,,,,,,,,,,,,,,
,JP,001,2022-04-29_02h09.32.084,classification_task,2021.2.3,Win32,60.00960154,5de7d87f1a7af87458d8bf85,626b377229c10585ec392f89,626b3a9ca84ef0bb1c05e875,,,,,,,,,,,,,,,,,,,,,,,a,1,3.3935,"[""0.175"",""0.466"",""0.871"",""0.716""]","[1,1,1,0]",0,14,14,14,1,0,0,,,1,FALSE,,,,,,,,,,,,,,,,,,,,,,,,,,,,,,
,JP,001,2022-04-29_02h09.32.084,classification_task,2021.2.3,Win32,60.00960154,5de7d87f1a7af87458d8bf85,626b377229c10585ec392f89,626b3a9ca84ef0bb1c05e875,,,,,,,,,,,,,,,,,,,,,,,l,1,2.7081,"[""0.126"",""0.389"",""0.631"",""0.716""]","[1,1,1,0]",0,15,15,15,1,1,0,,,1,FALSE,,,,,,,,,,,,,,,,,,,,,,,,,,,,,,
,JP,001,2022-04-29_02h09.32.084,classification_task,2021.2.3,Win32,60.00960154,5de7d87f1a7af87458d8bf85,626b377229c10585ec392f89,626b3a9ca84ef0bb1c05e875,,,,,,,,,,,,,,,,,,,,,,,l,1,3.1971,"[""0.058"",""0.317"",""0.520"",""0.213""]","[1,1,1,0]",0,16,16,16,1,1,1,,,1,FALSE,,,,,,,,,,,,,,,,,,,,,,,,,,,,,,
,JP,001,2022-04-29_02h09.32.084,classification_task,2021.2.3,Win32,60.00960154,5de7d87f1a7af87458d8bf85,626b377229c10585ec392f89,626b3a9ca84ef0bb1c05e875,,,,,,,,,,,,,,,,,,,,,,,a,1,7.4526,"[""0.261"",""0.213"",""0.683"",""0.972""]","[1,0,1,1]",0,17,17,17,1,0,1,,,1,FALSE,,,,,,,,,,,,,,,,,,,,,,,,,,,,,,
,JP,001,2022-04-29_02h09.32.084,classification_task,2021.2.3,Win32,60.00960154,5de7d87f1a7af87458d8bf85,626b377229c10585ec392f89,626b3a9ca84ef0bb1c05e875,,,,,,,,,,,,,,,,,,,,,,,a,1,4.6977,"[""0.426"",""0.466"",""0.871"",""0.920""]","[0,1,1,1]",0,18,18,18,1,0,0,,,1,FALSE,,,,,,,,,,,,,,,,,,,,,,,,,,,,,,
,JP,001,2022-04-29_02h09.32.084,classification_task,2021.2.3,Win32,60.00960154,5de7d87f1a7af87458d8bf85,626b377229c10585ec392f89,626b3a9ca84ef0bb1c05e875,,,,,,,,,,,,,,,,,,,,,,,a,1,2.3784,"[""0.261"",""0.560"",""0.744"",""0.972""]","[1,1,0,1]",0,19,19,19,1,0,1,,,1,FALSE,,,,,,,,,,,,,,,,,,,,,,,,,,,,,,
,JP,001,2022-04-29_02h09.32.084,classification_task,2021.2.3,Win32,60.00960154,5de7d87f1a7af87458d8bf85,626b377229c10585ec392f89,626b3a9ca84ef0bb1c05e875,,,,,,,,,,,,,,,,,,,,,,,l,0,5.053,"[""0.426"",""0.560"",""0.683"",""0.972""]","[0,1,1,1]",0,20,20,20,1,0,1,,,1,FALSE,,,,,,,,,,,,,,,,,,,,,,,,,,,,,,
,JP,001,2022-04-29_02h09.32.084,classification_task,2021.2.3,Win32,60.00960154,5de7d87f1a7af87458d8bf85,626b377229c10585ec392f89,626b3a9ca84ef0bb1c05e875,,,,,,,,,,,,,,,,,,,,,,,l,1,5.5732,"[""0.126"",""0.389"",""0.216"",""0.834""]","[1,1,0,1]",0,21,21,21,1,1,0,,,1,FALSE,,,,,,,,,,,,,,,,,,,,,,,,,,,,,,
,JP,001,2022-04-29_02h09.32.084,classification_task,2021.2.3,Win32,60.00960154,5de7d87f1a7af87458d8bf85,626b377229c10585ec392f89,626b3a9ca84ef0bb1c05e875,,,,,,,,,,,,,,,,,,,,,,,a,1,3.1971,"[""0.175"",""0.733"",""0.871"",""0.920""]","[1,0,1,1]",0,22,22,22,1,0,0,,,1,FALSE,,,,,,,,,,,,,,,,,,,,,,,,,,,,,,
,JP,001,2022-04-29_02h09.32.084,classification_task,2021.2.3,Win32,60.00960154,5de7d87f1a7af87458d8bf85,626b377229c10585ec392f89,626b3a9ca84ef0bb1c05e875,,,,,,,,,,,,,,,,,,,,,,,l,1,4.1641,"[""0.223"",""0.389"",""0.631"",""0.834""]","[0,1,1,1]",0,23,23,23,1,1,0,,,1,FALSE,,,,,,,,,,,,,,,,,,,,,,,,,,,,,,
,JP,001,2022-04-29_02h09.32.084,classification_task,2021.2.3,Win32,60.00960154,5de7d87f1a7af87458d8bf85,626b377229c10585ec392f89,626b3a9ca84ef0bb1c05e875,,,,,,,,,,,,,,,,,,,,,,,a,1,2.6901,"[""0.261"",""0.560"",""0.683"",""0.725""]","[1,1,1,0]",0,24,24,24,1,0,1,,,1,FALSE,,,,,,,,,,,,,,,,,,,,,,,,,,,,,,
,JP,001,2022-04-29_02h09.32.084,classification_task,2021.2.3,Win32,60.00960154,5de7d87f1a7af87458d8bf85,626b377229c10585ec392f89,626b3a9ca84ef0bb1c05e875,,,,,,,,,,,,,,,,,,,,,,,a,1,5.0405,"[""0.175"",""0.466"",""0.871"",""0.216""]","[1,1,1,0]",0,25,25,25,1,0,0,,,1,FALSE,,,,,,,,,,,,,,,,,,,,,,,,,,,,,,
,JP,001,2022-04-29_02h09.32.084,classification_task,2021.2.3,Win32,60.00960154,5de7d87f1a7af87458d8bf85,626b377229c10585ec392f89,626b3a9ca84ef0bb1c05e875,,,,,,,,,,,,,,,,,,,,,,,l,1,2.2654,"[""0.126"",""0.716"",""0.631"",""0.834""]","[1,0,1,1]",0,26,26,26,1,1,0,,,1,FALSE,,,,,,,,,,,,,,,,,,,,,,,,,,,,,,
,JP,001,2022-04-29_02h09.32.084,classification_task,2021.2.3,Win32,60.00960154,5de7d87f1a7af87458d8bf85,626b377229c10585ec392f89,626b3a9ca84ef0bb1c05e875,,,,,,,,,,,,,,,,,,,,,,,l,1,3.1105,"[""0.744"",""0.317"",""0.520"",""0.782""]","[0,1,1,1]",0,27,27,27,1,1,1,,,1,FALSE,,,,,,,,,,,,,,,,,,,,,,,,,,,,,,
,JP,001,2022-04-29_02h09.32.084,classification_task,2021.2.3,Win32,60.00960154,5de7d87f1a7af87458d8bf85,626b377229c10585ec392f89,626b3a9ca84ef0bb1c05e875,,,,,,,,,,,,,,,,,,,,,,,a,1,4.6293,"[""0.175"",""0.466"",""0.222"",""0.920""]","[1,1,0,1]",0,28,28,28,1,0,0,,,1,FALSE,,,,,,,,,,,,,,,,,,,,,,,,,,,,,,
,JP,001,2022-04-29_02h09.32.084,classification_task,2021.2.3,Win32,60.00960154,5de7d87f1a7af87458d8bf85,626b377229c10585ec392f89,626b3a9ca84ef0bb1c05e875,,,,,,,,,,,,,,,,,,,,,,,l,1,3.7483,"[""0.126"",""0.389"",""0.631"",""0.426""]","[1,1,1,0]",0,29,29,29,1,1,0,,,1,FALSE,,,,,,,,,,,,,,,,,,,,,,,,,,,,,,
,JP,001,2022-04-29_02h09.32.084,classification_task,2021.2.3,Win32,60.00960154,5de7d87f1a7af87458d8bf85,626b377229c10585ec392f89,626b3a9ca84ef0bb1c05e875,,,,,,,,,,,,,,,,,,,,,,,l,1,3.2672,"[""0.058"",""0.317"",""0.215"",""0.782""]","[1,1,0,1]",0,30,30,30,1,1,1,,,1,FALSE,,,,,,,,,,,,,,,,,,,,,,,,,,,,,,
,JP,001,2022-04-29_02h09.32.084,classification_task,2021.2.3,Win32,60.00960154,5de7d87f1a7af87458d8bf85,626b377229c10585ec392f89,626b3a9ca84ef0bb1c05e875,,,,,,,,,,,,,,,,,,,,,,,l,1,1.448,"[""0.058"",""0.216"",""0.520"",""0.782""]","[1,0,1,1]",0,31,31,31,1,1,1,,,1,FALSE,,,,,,,,,,,,,,,,,,,,,,,,,,,,,,
,JP,001,2022-04-29_02h09.32.084,classification_task,2021.2.3,Win32,60.00960154,5de7d87f1a7af87458d8bf85,626b377229c10585ec392f89,626b3a9ca84ef0bb1c05e875,,,,,,,,,,,,,,,,,,,,,,,,0,,"[""0.126"",""0.745"",""0.631"",""0.834""]","[1,0,1,1]",0,32,32,32,1,1,0,,,1,FALSE,,,,,,,,,,,,,,,,,,,,,,,,,,,,,,
,JP,001,2022-04-29_02h09.32.084,classification_task,2021.2.3,Win32,60.00960154,5de7d87f1a7af87458d8bf85,626b377229c10585ec392f89,626b3a9ca84ef0bb1c05e875,,,,,,,,,,,,,,,,,,,,,,,a,1,1.8314,"[""0.220"",""0.560"",""0.683"",""0.972""]","[0,1,1,1]",0,33,33,33,1,0,1,,,1,FALSE,,,,,,,,,,,,,,,,,,,,,,,,,,,,,,
,JP,001,2022-04-29_02h09.32.084,classification_task,2021.2.3,Win32,60.00960154,5de7d87f1a7af87458d8bf85,626b377229c10585ec392f89,626b3a9ca84ef0bb1c05e875,,,,,,,,,,,,,,,,,,,,,,,a,0,3.0803,"[""0.058"",""0.317"",""0.220"",""0.782""]","[1,1,0,1]",0,34,34,34,1,1,1,,,1,FALSE,,,,,,,,,,,,,,,,,,,,,,,,,,,,,,
,JP,001,2022-04-29_02h09.32.084,classification_task,2021.2.3,Win32,60.00960154,5de7d87f1a7af87458d8bf85,626b377229c10585ec392f89,626b3a9ca84ef0bb1c05e875,,,,,,,,,,,,,,,,,,,,,,,a,1,1.6832,"[""0.261"",""0.560"",""0.683"",""0.716""]","[1,1,1,0]",0,35,35,35,1,0,1,,,1,FALSE,,,,,,,,,,,,,,,,,,,,,,,,,,,,,,
,JP,001,2022-04-29_02h09.32.084,classification_task,2021.2.3,Win32,60.00960154,5de7d87f1a7af87458d8bf85,626b377229c10585ec392f89,626b3a9ca84ef0bb1c05e875,,,,,,,,,,,,,,,,,,,,,,,l,1,2.7366,"[""0.126"",""0.389"",""0.222"",""0.834""]","[1,1,0,1]",0,36,36,36,1,1,0,,,1,FALSE,,,,,,,,,,,,,,,,,,,,,,,,,,,,,,
,JP,001,2022-04-29_02h09.32.084,classification_task,2021.2.3,Win32,60.00960154,5de7d87f1a7af87458d8bf85,626b377229c10585ec392f89,626b3a9ca84ef0bb1c05e875,,,,,,,,,,,,,,,,,,,,,,,a,1,1.4085,"[""0.261"",""0.725"",""0.683"",""0.972""]","[1,0,1,1]",0,37,37,37,1,0,1,,,1,FALSE,,,,,,,,,,,,,,,,,,,,,,,,,,,,,,
,JP,001,2022-04-29_02h09.32.084,classification_task,2021.2.3,Win32,60.00960154,5de7d87f1a7af87458d8bf85,626b377229c10585ec392f89,626b3a9ca84ef0bb1c05e875,,,,,,,,,,,,,,,,,,,,,,,l,1,1.0993,"[""0.733"",""0.317"",""0.520"",""0.782""]","[0,1,1,1]",0,38,38,38,1,1,1,,,1,FALSE,,,,,,,,,,,,,,,,,,,,,,,,,,,,,,
,JP,001,2022-04-29_02h09.32.084,classification_task,2021.2.3,Win32,60.00960154,5de7d87f1a7af87458d8bf85,626b377229c10585ec392f89,626b3a9ca84ef0bb1c05e875,,,,,,,,,,,,,,,,,,,,,,,a,0,1.229,"[""0.058"",""0.745"",""0.520"",""0.782""]","[1,0,1,1]",0,39,39,39,1,1,1,,,1,FALSE,,,,,,,,,,,,,,,,,,,,,,,,,,,,,,
,JP,001,2022-04-29_02h09.32.084,classification_task,2021.2.3,Win32,60.00960154,5de7d87f1a7af87458d8bf85,626b377229c10585ec392f89,626b3a9ca84ef0bb1c05e875,,,,,,,,,,,,,,,,,,,,,,,l,1,0.7938,"[""0.058"",""0.317"",""0.520"",""0.744""]","[1,1,1,0]",0,40,40,40,1,1,1,,,1,FALSE,,,,,,,,,,,,,,,,,,,,,,,,,,,,,,
,JP,001,2022-04-29_02h09.32.084,classification_task,2021.2.3,Win32,60.00960154,5de7d87f1a7af87458d8bf85,626b377229c10585ec392f89,626b3a9ca84ef0bb1c05e875,,,,,,,,,,,,,,,,,,,,,,,a,1,1.2666,"[""0.175"",""0.466"",""0.871"",""0.220""]","[1,1,1,0]",0,41,41,41,1,0,0,,,1,FALSE,,,,,,,,,,,,,,,,,,,,,,,,,,,,,,
,JP,001,2022-04-29_02h09.32.084,classification_task,2021.2.3,Win32,60.00960154,5de7d87f1a7af87458d8bf85,626b377229c10585ec392f89,626b3a9ca84ef0bb1c05e875,,,,,,,,,,,,,,,,,,,,,,,a,0,1.9995,"[""0.725"",""0.389"",""0.631"",""0.834""]","[0,1,1,1]",0,42,42,42,1,1,0,,,1,FALSE,,,,,,,,,,,,,,,,,,,,,,,,,,,,,,
,JP,001,2022-04-29_02h09.32.084,classification_task,2021.2.3,Win32,60.00960154,5de7d87f1a7af87458d8bf85,626b377229c10585ec392f89,626b3a9ca84ef0bb1c05e875,,,,,,,,,,,,,,,,,,,,,,,a,1,1.7175,"[""0.175"",""0.466"",""0.426"",""0.920""]","[1,1,0,1]",0,43,43,43,1,0,0,,,1,FALSE,,,,,,,,,,,,,,,,,,,,,,,,,,,,,,
,JP,001,2022-04-29_02h09.32.084,classification_task,2021.2.3,Win32,60.00960154,5de7d87f1a7af87458d8bf85,626b377229c10585ec392f89,626b3a9ca84ef0bb1c05e875,,,,,,,,,,,,,,,,,,,,,,,l,0,0.8652,"[""0.736"",""0.466"",""0.871"",""0.920""]","[0,1,1,1]",0,44,44,44,1,0,0,,,1,FALSE,,,,,,,,,,,,,,,,,,,,,,,,,,,,,,
,JP,001,2022-04-29_02h09.32.084,classification_task,2021.2.3,Win32,60.00960154,5de7d87f1a7af87458d8bf85,626b377229c10585ec392f89,626b3a9ca84ef0bb1c05e875,,,,,,,,,,,,,,,,,,,,,,,a,1,1.2311,"[""0.175"",""0.215"",""0.871"",""0.920""]","[1,0,1,1]",0,45,45,45,1,0,0,,,1,FALSE,,,,,,,,,,,,,,,,,,,,,,,,,,,,,,
,JP,001,2022-04-29_02h09.32.084,classification_task,2021.2.3,Win32,60.00960154,5de7d87f1a7af87458d8bf85,626b377229c10585ec392f89,626b3a9ca84ef0bb1c05e875,,,,,,,,,,,,,,,,,,,,,,,l,1,1.2167,"[""0.126"",""0.389"",""0.631"",""0.215""]","[1,1,1,0]",0,46,46,46,1,1,0,,,1,FALSE,,,,,,,,,,,,,,,,,,,,,,,,,,,,,,
,JP,001,2022-04-29_02h09.32.084,classification_task,2021.2.3,Win32,60.00960154,5de7d87f1a7af87458d8bf85,626b377229c10585ec392f89,626b3a9ca84ef0bb1c05e875,,,,,,,,,,,,,,,,,,,,,,,l,0,3.0135,"[""0.261"",""0.560"",""0.223"",""0.972""]","[1,1,0,1]",0,47,47,47,1,0,1,,,1,FALSE,,,,,,,,,,,,,,,,,,,,,,,,,,,,,,
,JP,001,2022-04-29_02h09.32.084,classification_task,2021.2.3,Win32,60.00960154,5de7d87f1a7af87458d8bf85,626b377229c10585ec392f89,626b3a9ca84ef0bb1c05e875,,,,,,,,,,,,,,,,,,,,,,,a,1,1.4496,"[""0.175"",""0.466"",""0.223"",""0.920""]","[1,1,0,1]",0,48,48,48,1,0,0,,,1,FALSE,,,,,,,,,,,,,,,,,,,,,,,,,,,,,,
,JP,001,2022-04-29_02h09.32.084,classification_task,2021.2.3,Win32,60.00960154,5de7d87f1a7af87458d8bf85,626b377229c10585ec392f89,626b3a9ca84ef0bb1c05e875,,,,,,,,,,,,,,,,,,,,,,,l,0,1.0829,"[""0.261"",""0.213"",""0.683"",""0.972""]","[1,0,1,1]",0,49,49,49,1,0,1,,,1,FALSE,,,,,,,,,,,,,,,,,,,,,,,,,,,,,,
,JP,001,2022-04-29_02h09.32.084,classification_task,2021.2.3,Win32,60.00960154,5de7d87f1a7af87458d8bf85,626b377229c10585ec392f89,626b3a9ca84ef0bb1c05e875,,,,,,,,,,,,,,,,,,,,,,,a,1,1.051,"[""0.175"",""0.466"",""0.871"",""0.733""]","[1,1,1,0]",0,50,50,50,1,0,0,,,1,FALSE,,,,,,,,,,,,,,,,,,,,,,,,,,,,,,
,JP,001,2022-04-29_02h09.32.084,classification_task,2021.2.3,Win32,60.00960154,5de7d87f1a7af87458d8bf85,626b377229c10585ec392f89,626b3a9ca84ef0bb1c05e875,,,,,,,,,,,,,,,,,,,,,,,l,0,1.2148,"[""0.733"",""0.560"",""0.683"",""0.972""]","[0,1,1,1]",0,51,51,51,1,0,1,,,1,FALSE,,,,,,,,,,,,,,,,,,,,,,,,,,,,,,
,JP,001,2022-04-29_02h09.32.084,classification_task,2021.2.3,Win32,60.00960154,5de7d87f1a7af87458d8bf85,626b377229c10585ec392f89,626b3a9ca84ef0bb1c05e875,,,,,,,,,,,,,,,,,,,,,,,l,1,1.2328,"[""0.058"",""0.317"",""0.520"",""0.215""]","[1,1,1,0]",0,52,52,52,1,1,1,,,1,FALSE,,,,,,,,,,,,,,,,,,,,,,,,,,,,,,
,JP,001,2022-04-29_02h09.32.084,classification_task,2021.2.3,Win32,60.00960154,5de7d87f1a7af87458d8bf85,626b377229c10585ec392f89,626b3a9ca84ef0bb1c05e875,,,,,,,,,,,,,,,,,,,,,,,l,0,1.363,"[""0.216"",""0.466"",""0.871"",""0.920""]","[0,1,1,1]",0,53,53,53,1,0,0,,,1,FALSE,,,,,,,,,,,,,,,,,,,,,,,,,,,,,,
,JP,001,2022-04-29_02h09.32.084,classification_task,2021.2.3,Win32,60.00960154,5de7d87f1a7af87458d8bf85,626b377229c10585ec392f89,626b3a9ca84ef0bb1c05e875,,,,,,,,,,,,,,,,,,,,,,,a,1,0.9833,"[""0.175"",""0.733"",""0.871"",""0.920""]","[1,0,1,1]",0,54,54,54,1,0,0,,,1,FALSE,,,,,,,,,,,,,,,,,,,,,,,,,,,,,,
,JP,001,2022-04-29_02h09.32.084,classification_task,2021.2.3,Win32,60.00960154,5de7d87f1a7af87458d8bf85,626b377229c10585ec392f89,626b3a9ca84ef0bb1c05e875,,,,,,,,,,,,,,,,,,,,,,,a,0,1.7833,"[""0.126"",""0.389"",""0.631"",""0.215""]","[1,1,1,0]",0,55,55,55,1,1,0,,,1,FALSE,,,,,,,,,,,,,,,,,,,,,,,,,,,,,,
,JP,001,2022-04-29_02h09.32.084,classification_task,2021.2.3,Win32,60.00960154,5de7d87f1a7af87458d8bf85,626b377229c10585ec392f89,626b3a9ca84ef0bb1c05e875,,,,,,,,,,,,,,,,,,,,,,,l,0,1.5163,"[""0.261"",""0.560"",""0.744"",""0.972""]","[1,1,0,1]",0,56,56,56,1,0,1,,,1,FALSE,,,,,,,,,,,,,,,,,,,,,,,,,,,,,,
,JP,001,2022-04-29_02h09.32.084,classification_task,2021.2.3,Win32,60.00960154,5de7d87f1a7af87458d8bf85,626b377229c10585ec392f89,626b3a9ca84ef0bb1c05e875,,,,,,,,,,,,,,,,,,,,,,,l,1,1.0818,"[""0.745"",""0.389"",""0.631"",""0.834""]","[0,1,1,1]",0,57,57,57,1,1,0,,,1,FALSE,,,,,,,,,,,,,,,,,,,,,,,,,,,,,,
,JP,001,2022-04-29_02h09.32.084,classification_task,2021.2.3,Win32,60.00960154,5de7d87f1a7af87458d8bf85,626b377229c10585ec392f89,626b3a9ca84ef0bb1c05e875,,,,,,,,,,,,,,,,,,,,,,,l,1,1.6658,"[""0.058"",""0.317"",""0.215"",""0.782""]","[1,1,0,1]",0,58,58,58,1,1,1,,,1,FALSE,,,,,,,,,,,,,,,,,,,,,,,,,,,,,,
,JP,001,2022-04-29_02h09.32.084,classification_task,2021.2.3,Win32,60.00960154,5de7d87f1a7af87458d8bf85,626b377229c10585ec392f89,626b3a9ca84ef0bb1c05e875,,,,,,,,,,,,,,,,,,,,,,,l,1,1.5497,"[""0.744"",""0.317"",""0.520"",""0.782""]","[0,1,1,1]",0,59,59,59,1,1,1,,,1,FALSE,,,,,,,,,,,,,,,,,,,,,,,,,,,,,,
,JP,001,2022-04-29_02h09.32.084,classification_task,2021.2.3,Win32,60.00960154,5de7d87f1a7af87458d8bf85,626b377229c10585ec392f89,626b3a9ca84ef0bb1c05e875,,,,,,,,,,,,,,,,,,,,,,,a,0,1.1831,"[""0.126"",""0.389"",""0.725"",""0.834""]","[1,1,0,1]",0,60,60,60,1,1,0,,,1,FALSE,,,,,,,,,,,,,,,,,,,,,,,,,,,,,,
,JP,001,2022-04-29_02h09.32.084,classification_task,2021.2.3,Win32,60.00960154,5de7d87f1a7af87458d8bf85,626b377229c10585ec392f89,626b3a9ca84ef0bb1c05e875,,,,,,,,,,,,,,,,,,,,,,,l,1,1.5992,"[""0.126"",""0.213"",""0.631"",""0.834""]","[1,0,1,1]",0,61,61,61,1,1,0,,,1,FALSE,,,,,,,,,,,,,,,,,,,,,,,,,,,,,,
,JP,001,2022-04-29_02h09.32.084,classification_task,2021.2.3,Win32,60.00960154,5de7d87f1a7af87458d8bf85,626b377229c10585ec392f89,626b3a9ca84ef0bb1c05e875,,,,,,,,,,,,,,,,,,,,,,,l,0,1.4332,"[""0.261"",""0.560"",""0.683"",""0.213""]","[1,1,1,0]",0,62,62,62,1,0,1,,,1,FALSE,,,,,,,,,,,,,,,,,,,,,,,,,,,,,,
,JP,001,2022-04-29_02h09.32.084,classification_task,2021.2.3,Win32,60.00960154,5de7d87f1a7af87458d8bf85,626b377229c10585ec392f89,626b3a9ca84ef0bb1c05e875,,,,,,,,,,,,,,,,,,,,,,,a,0,1.6834,"[""0.058"",""0.223"",""0.520"",""0.782""]","[1,0,1,1]",0,63,63,63,1,1,1,,,1,FALSE,,,,,,,,,,,,,,,,,,,,,,,,,,,,,,
,JP,001,2022-04-29_02h09.32.084,classification_task,2021.2.3,Win32,60.00960154,5de7d87f1a7af87458d8bf85,626b377229c10585ec392f89,626b3a9ca84ef0bb1c05e875,,,,,,,,,,,,,,,,,,,,,,,,,,,,,,,,,,,,,,,0, ,,0,1.674750895,480.3006,0,0,0,0,1,2,1,,,,,,,,,,,,,,,,,
,JP,001,2022-04-29_02h09.32.084,classification_task,2021.2.3,Win32,60.00960154,5de7d87f1a7af87458d8bf85,626b377229c10585ec392f89,626b3a9ca84ef0bb1c05e875,,,,,,,,,,,,,,,,,,,,,,,,,,,,,,,,,,,,,,,1,  ,,0,5.789976111,490.8262,0,0,0,0,1,2,1,,,,,,,,,,,,,,,,,
,JP,001,2022-04-29_02h09.32.084,classification_task,2021.2.3,Win32,60.00960154,5de7d87f1a7af87458d8bf85,626b377229c10585ec392f89,626b3a9ca84ef0bb1c05e875,,,,,,,,,,,,,,,,,,,,,,,,,,,,,,,,,,,,,,,2,  ,,0,3.928326475,502.0534,0,0,0,0,1,2,1,,,,,,,,,,,,,,,,,
,JP,001,2022-04-29_02h09.32.084,classification_task,2021.2.3,Win32,60.00960154,5de7d87f1a7af87458d8bf85,626b377229c10585ec392f89,626b3a9ca84ef0bb1c05e875,,,,,,,,,,,,,,,,,,,,,,,,,,,,,,,,,,,,,,,,,,,,,0,0,0,0,1,,1,,,,,,,,,,,,,,,,,
,JP,001,2022-04-29_02h09.32.084,classification_task,2021.2.3,Win32,60.00960154,5de7d87f1a7af87458d8bf85,626b377229c10585ec392f89,626b3a9ca84ef0bb1c05e875,,,,,,,,,,,,,,,,,,,,,space,14.1238,l,1,4.3456,"[""0.223"",""0.389"",""0.631"",""0.834""]","[0,1,1,1]",0,0,0,0,1,1,0,,,1,FALSE,,,,,,,,,,,,,,,,,,,,,,,,,,,,,,
,JP,001,2022-04-29_02h09.32.084,classification_task,2021.2.3,Win32,60.00960154,5de7d87f1a7af87458d8bf85,626b377229c10585ec392f89,626b3a9ca84ef0bb1c05e875,,,,,,,,,,,,,,,,,,,,,,,l,0,1.2815,"[""0.175"",""0.466"",""0.216"",""0.920""]","[1,1,0,1]",0,1,1,1,1,0,0,,,1,FALSE,,,,,,,,,,,,,,,,,,,,,,,,,,,,,,
,JP,001,2022-04-29_02h09.32.084,classification_task,2021.2.3,Win32,60.00960154,5de7d87f1a7af87458d8bf85,626b377229c10585ec392f89,626b3a9ca84ef0bb1c05e875,,,,,,,,,,,,,,,,,,,,,,,a,1,6.6812,"[""0.261"",""0.560"",""0.683"",""0.222""]","[1,1,1,0]",0,2,2,2,1,0,1,,,1,FALSE,,,,,,,,,,,,,,,,,,,,,,,,,,,,,,
,JP,001,2022-04-29_02h09.32.084,classification_task,2021.2.3,Win32,60.00960154,5de7d87f1a7af87458d8bf85,626b377229c10585ec392f89,626b3a9ca84ef0bb1c05e875,,,,,,,,,,,,,,,,,,,,,,,a,1,3.3629,"[""0.175"",""0.466"",""0.871"",""0.222""]","[1,1,1,0]",0,3,3,3,1,0,0,,,1,FALSE,,,,,,,,,,,,,,,,,,,,,,,,,,,,,,
,JP,001,2022-04-29_02h09.32.084,classification_task,2021.2.3,Win32,60.00960154,5de7d87f1a7af87458d8bf85,626b377229c10585ec392f89,626b3a9ca84ef0bb1c05e875,,,,,,,,,,,,,,,,,,,,,,,a,1,1.7806,"[""0.261"",""0.725"",""0.683"",""0.972""]","[1,0,1,1]",0,4,4,4,1,0,1,,,1,FALSE,,,,,,,,,,,,,,,,,,,,,,,,,,,,,,
,JP,001,2022-04-29_02h09.32.084,classification_task,2021.2.3,Win32,60.00960154,5de7d87f1a7af87458d8bf85,626b377229c10585ec392f89,626b3a9ca84ef0bb1c05e875,,,,,,,,,,,,,,,,,,,,,,,a,0,1.7496,"[""0.126"",""0.389"",""0.716"",""0.834""]","[1,1,0,1]",0,5,5,5,1,1,0,,,1,FALSE,,,,,,,,,,,,,,,,,,,,,,,,,,,,,,
,JP,001,2022-04-29_02h09.32.084,classification_task,2021.2.3,Win32,60.00960154,5de7d87f1a7af87458d8bf85,626b377229c10585ec392f89,626b3a9ca84ef0bb1c05e875,,,,,,,,,,,,,,,,,,,,,,,l,1,0.5977,"[""0.058"",""0.317"",""0.228"",""0.782""]","[1,1,0,1]",0,6,6,6,1,1,1,,,1,FALSE,,,,,,,,,,,,,,,,,,,,,,,,,,,,,,
,JP,001,2022-04-29_02h09.32.084,classification_task,2021.2.3,Win32,60.00960154,5de7d87f1a7af87458d8bf85,626b377229c10585ec392f89,626b3a9ca84ef0bb1c05e875,,,,,,,,,,,,,,,,,,,,,,,l,1,1.5652,"[""0.126"",""0.389"",""0.631"",""0.216""]","[1,1,1,0]",0,7,7,7,1,1,0,,,1,FALSE,,,,,,,,,,,,,,,,,,,,,,,,,,,,,,
,JP,001,2022-04-29_02h09.32.084,classification_task,2021.2.3,Win32,60.00960154,5de7d87f1a7af87458d8bf85,626b377229c10585ec392f89,626b3a9ca84ef0bb1c05e875,,,,,,,,,,,,,,,,,,,,,,,l,1,0.6891,"[""0.058"",""0.744"",""0.520"",""0.782""]","[1,0,1,1]",0,8,8,8,1,1,1,,,1,FALSE,,,,,,,,,,,,,,,,,,,,,,,,,,,,,,
,JP,001,2022-04-29_02h09.32.084,classification_task,2021.2.3,Win32,60.00960154,5de7d87f1a7af87458d8bf85,626b377229c10585ec392f89,626b3a9ca84ef0bb1c05e875,,,,,,,,,,,,,,,,,,,,,,,l,1,1.1645,"[""0.736"",""0.317"",""0.520"",""0.782""]","[0,1,1,1]",0,9,9,9,1,1,1,,,1,FALSE,,,,,,,,,,,,,,,,,,,,,,,,,,,,,,
,JP,001,2022-04-29_02h09.32.084,classification_task,2021.2.3,Win32,60.00960154,5de7d87f1a7af87458d8bf85,626b377229c10585ec392f89,626b3a9ca84ef0bb1c05e875,,,,,,,,,,,,,,,,,,,,,,,l,1,1.2278,"[""0.126"",""0.228"",""0.631"",""0.834""]","[1,0,1,1]",0,10,10,10,1,1,0,,,1,FALSE,,,,,,,,,,,,,,,,,,,,,,,,,,,,,,
,JP,001,2022-04-29_02h09.32.084,classification_task,2021.2.3,Win32,60.00960154,5de7d87f1a7af87458d8bf85,626b377229c10585ec392f89,626b3a9ca84ef0bb1c05e875,,,,,,,,,,,,,,,,,,,,,,,a,1,1.1854,"[""0.175"",""0.213"",""0.871"",""0.920""]","[1,0,1,1]",0,11,11,11,1,0,0,,,1,FALSE,,,,,,,,,,,,,,,,,,,,,,,,,,,,,,
,JP,001,2022-04-29_02h09.32.084,classification_task,2021.2.3,Win32,60.00960154,5de7d87f1a7af87458d8bf85,626b377229c10585ec392f89,626b3a9ca84ef0bb1c05e875,,,,,,,,,,,,,,,,,,,,,,,a,1,0.9413,"[""0.733"",""0.560"",""0.683"",""0.972""]","[0,1,1,1]",0,12,12,12,1,0,1,,,1,FALSE,,,,,,,,,,,,,,,,,,,,,,,,,,,,,,
,JP,001,2022-04-29_02h09.32.084,classification_task,2021.2.3,Win32,60.00960154,5de7d87f1a7af87458d8bf85,626b377229c10585ec392f89,626b3a9ca84ef0bb1c05e875,,,,,,,,,,,,,,,,,,,,,,,l,1,0.6306,"[""0.058"",""0.317"",""0.520"",""0.222""]","[1,1,1,0]",0,13,13,13,1,1,1,,,1,FALSE,,,,,,,,,,,,,,,,,,,,,,,,,,,,,,
,JP,001,2022-04-29_02h09.32.084,classification_task,2021.2.3,Win32,60.00960154,5de7d87f1a7af87458d8bf85,626b377229c10585ec392f89,626b3a9ca84ef0bb1c05e875,,,,,,,,,,,,,,,,,,,,,,,a,1,1.5671,"[""0.745"",""0.466"",""0.871"",""0.920""]","[0,1,1,1]",0,14,14,14,1,0,0,,,1,FALSE,,,,,,,,,,,,,,,,,,,,,,,,,,,,,,
,JP,001,2022-04-29_02h09.32.084,classification_task,2021.2.3,Win32,60.00960154,5de7d87f1a7af87458d8bf85,626b377229c10585ec392f89,626b3a9ca84ef0bb1c05e875,,,,,,,,,,,,,,,,,,,,,,,a,1,0.938,"[""0.261"",""0.560"",""0.223"",""0.972""]","[1,1,0,1]",0,15,15,15,1,0,1,,,1,FALSE,,,,,,,,,,,,,,,,,,,,,,,,,,,,,,
,JP,001,2022-04-29_02h09.32.084,classification_task,2021.2.3,Win32,60.00960154,5de7d87f1a7af87458d8bf85,626b377229c10585ec392f89,626b3a9ca84ef0bb1c05e875,,,,,,,,,,,,,,,,,,,,,,,l,1,0.5843,"[""0.716"",""0.317"",""0.520"",""0.782""]","[0,1,1,1]",0,16,16,16,1,1,1,,,1,FALSE,,,,,,,,,,,,,,,,,,,,,,,,,,,,,,
,JP,001,2022-04-29_02h09.32.084,classification_task,2021.2.3,Win32,60.00960154,5de7d87f1a7af87458d8bf85,626b377229c10585ec392f89,626b3a9ca84ef0bb1c05e875,,,,,,,,,,,,,,,,,,,,,,,l,0,2.0752,"[""0.725"",""0.466"",""0.871"",""0.920""]","[0,1,1,1]",0,17,17,17,1,0,0,,,1,FALSE,,,,,,,,,,,,,,,,,,,,,,,,,,,,,,
,JP,001,2022-04-29_02h09.32.084,classification_task,2021.2.3,Win32,60.00960154,5de7d87f1a7af87458d8bf85,626b377229c10585ec392f89,626b3a9ca84ef0bb1c05e875,,,,,,,,,,,,,,,,,,,,,,,a,1,1.7112,"[""0.175"",""0.716"",""0.871"",""0.920""]","[1,0,1,1]",0,18,18,18,1,0,0,,,1,FALSE,,,,,,,,,,,,,,,,,,,,,,,,,,,,,,
,JP,001,2022-04-29_02h09.32.084,classification_task,2021.2.3,Win32,60.00960154,5de7d87f1a7af87458d8bf85,626b377229c10585ec392f89,626b3a9ca84ef0bb1c05e875,,,,,,,,,,,,,,,,,,,,,,,l,1,1.7155,"[""0.058"",""0.733"",""0.520"",""0.782""]","[1,0,1,1]",0,19,19,19,1,1,1,,,1,FALSE,,,,,,,,,,,,,,,,,,,,,,,,,,,,,,
,JP,001,2022-04-29_02h09.32.084,classification_task,2021.2.3,Win32,60.00960154,5de7d87f1a7af87458d8bf85,626b377229c10585ec392f89,626b3a9ca84ef0bb1c05e875,,,,,,,,,,,,,,,,,,,,,,,a,1,1.6359,"[""0.175"",""0.466"",""0.216"",""0.920""]","[1,1,0,1]",0,20,20,20,1,0,0,,,1,FALSE,,,,,,,,,,,,,,,,,,,,,,,,,,,,,,
,JP,001,2022-04-29_02h09.32.084,classification_task,2021.2.3,Win32,60.00960154,5de7d87f1a7af87458d8bf85,626b377229c10585ec392f89,626b3a9ca84ef0bb1c05e875,,,,,,,,,,,,,,,,,,,,,,,a,1,0.9153,"[""0.261"",""0.744"",""0.683"",""0.972""]","[1,0,1,1]",0,21,21,21,1,0,1,,,1,FALSE,,,,,,,,,,,,,,,,,,,,,,,,,,,,,,
,JP,001,2022-04-29_02h09.32.084,classification_task,2021.2.3,Win32,60.00960154,5de7d87f1a7af87458d8bf85,626b377229c10585ec392f89,626b3a9ca84ef0bb1c05e875,,,,,,,,,,,,,,,,,,,,,,,a,1,0.5676,"[""0.261"",""0.560"",""0.683"",""0.228""]","[1,1,1,0]",0,22,22,22,1,0,1,,,1,FALSE,,,,,,,,,,,,,,,,,,,,,,,,,,,,,,
,JP,001,2022-04-29_02h09.32.084,classification_task,2021.2.3,Win32,60.00960154,5de7d87f1a7af87458d8bf85,626b377229c10585ec392f89,626b3a9ca84ef0bb1c05e875,,,,,,,,,,,,,,,,,,,,,,,a,0,1.5497,"[""0.126"",""0.389"",""0.631"",""0.733""]","[1,1,1,0]",0,23,23,23,1,1,0,,,1,FALSE,,,,,,,,,,,,,,,,,,,,,,,,,,,,,,
,JP,001,2022-04-29_02h09.32.084,classification_task,2021.2.3,Win32,60.00960154,5de7d87f1a7af87458d8bf85,626b377229c10585ec392f89,626b3a9ca84ef0bb1c05e875,,,,,,,,,,,,,,,,,,,,,,,l,1,1,"[""0.126"",""0.389"",""0.220"",""0.834""]","[1,1,0,1]",0,24,24,24,1,1,0,,,1,FALSE,,,,,,,,,,,,,,,,,,,,,,,,,,,,,,
,JP,001,2022-04-29_02h09.32.084,classification_task,2021.2.3,Win32,60.00960154,5de7d87f1a7af87458d8bf85,626b377229c10585ec392f89,626b3a9ca84ef0bb1c05e875,,,,,,,,,,,,,,,,,,,,,,,a,1,0.8316,"[""0.261"",""0.560"",""0.215"",""0.972""]","[1,1,0,1]",0,25,25,25,1,0,1,,,1,FALSE,,,,,,,,,,,,,,,,,,,,,,,,,,,,,,
,JP,001,2022-04-29_02h09.32.084,classification_task,2021.2.3,Win32,60.00960154,5de7d87f1a7af87458d8bf85,626b377229c10585ec392f89,626b3a9ca84ef0bb1c05e875,,,,,,,,,,,,,,,,,,,,,,,l,1,1.6002,"[""0.126"",""0.725"",""0.631"",""0.834""]","[1,0,1,1]",0,26,26,26,1,1,0,,,1,FALSE,,,,,,,,,,,,,,,,,,,,,,,,,,,,,,
,JP,001,2022-04-29_02h09.32.084,classification_task,2021.2.3,Win32,60.00960154,5de7d87f1a7af87458d8bf85,626b377229c10585ec392f89,626b3a9ca84ef0bb1c05e875,,,,,,,,,,,,,,,,,,,,,,,l,1,0.897,"[""0.058"",""0.317"",""0.520"",""0.215""]","[1,1,1,0]",0,27,27,27,1,1,1,,,1,FALSE,,,,,,,,,,,,,,,,,,,,,,,,,,,,,,
,JP,001,2022-04-29_02h09.32.084,classification_task,2021.2.3,Win32,60.00960154,5de7d87f1a7af87458d8bf85,626b377229c10585ec392f89,626b3a9ca84ef0bb1c05e875,,,,,,,,,,,,,,,,,,,,,,,l,1,0.5506,"[""0.058"",""0.317"",""0.733"",""0.782""]","[1,1,0,1]",0,28,28,28,1,1,1,,,1,FALSE,,,,,,,,,,,,,,,,,,,,,,,,,,,,,,
,JP,001,2022-04-29_02h09.32.084,classification_task,2021.2.3,Win32,60.00960154,5de7d87f1a7af87458d8bf85,626b377229c10585ec392f89,626b3a9ca84ef0bb1c05e875,,,,,,,,,,,,,,,,,,,,,,,a,1,1.2303,"[""0.175"",""0.466"",""0.871"",""0.725""]","[1,1,1,0]",0,29,29,29,1,0,0,,,1,FALSE,,,,,,,,,,,,,,,,,,,,,,,,,,,,,,
,JP,001,2022-04-29_02h09.32.084,classification_task,2021.2.3,Win32,60.00960154,5de7d87f1a7af87458d8bf85,626b377229c10585ec392f89,626b3a9ca84ef0bb1c05e875,,,,,,,,,,,,,,,,,,,,,,,a,1,0.9813,"[""0.228"",""0.560"",""0.683"",""0.972""]","[0,1,1,1]",0,30,30,30,1,0,1,,,1,FALSE,,,,,,,,,,,,,,,,,,,,,,,,,,,,,,
,JP,001,2022-04-29_02h09.32.084,classification_task,2021.2.3,Win32,60.00960154,5de7d87f1a7af87458d8bf85,626b377229c10585ec392f89,626b3a9ca84ef0bb1c05e875,,,,,,,,,,,,,,,,,,,,,,,a,0,1.5317,"[""0.216"",""0.389"",""0.631"",""0.834""]","[0,1,1,1]",0,31,31,31,1,1,0,,,1,FALSE,,,,,,,,,,,,,,,,,,,,,,,,,,,,,,
,JP,001,2022-04-29_02h09.32.084,classification_task,2021.2.3,Win32,60.00960154,5de7d87f1a7af87458d8bf85,626b377229c10585ec392f89,626b3a9ca84ef0bb1c05e875,,,,,,,,,,,,,,,,,,,,,,,l,1,1.7978,"[""0.058"",""0.317"",""0.222"",""0.782""]","[1,1,0,1]",0,32,32,32,1,1,1,,,1,FALSE,,,,,,,,,,,,,,,,,,,,,,,,,,,,,,
,JP,001,2022-04-29_02h09.32.084,classification_task,2021.2.3,Win32,60.00960154,5de7d87f1a7af87458d8bf85,626b377229c10585ec392f89,626b3a9ca84ef0bb1c05e875,,,,,,,,,,,,,,,,,,,,,,,l,0,1.6356,"[""0.222"",""0.466"",""0.871"",""0.920""]","[0,1,1,1]",0,33,33,33,1,0,0,,,1,FALSE,,,,,,,,,,,,,,,,,,,,,,,,,,,,,,
,JP,001,2022-04-29_02h09.32.084,classification_task,2021.2.3,Win32,60.00960154,5de7d87f1a7af87458d8bf85,626b377229c10585ec392f89,626b3a9ca84ef0bb1c05e875,,,,,,,,,,,,,,,,,,,,,,,l,0,1.766,"[""0.175"",""0.466"",""0.871"",""0.426""]","[1,1,1,0]",0,34,34,34,1,0,0,,,1,FALSE,,,,,,,,,,,,,,,,,,,,,,,,,,,,,,
,JP,001,2022-04-29_02h09.32.084,classification_task,2021.2.3,Win32,60.00960154,5de7d87f1a7af87458d8bf85,626b377229c10585ec392f89,626b3a9ca84ef0bb1c05e875,,,,,,,,,,,,,,,,,,,,,,,l,1,0.8625,"[""0.058"",""0.317"",""0.520"",""0.744""]","[1,1,1,0]",0,35,35,35,1,1,1,,,1,FALSE,,,,,,,,,,,,,,,,,,,,,,,,,,,,,,
,JP,001,2022-04-29_02h09.32.084,classification_task,2021.2.3,Win32,60.00960154,5de7d87f1a7af87458d8bf85,626b377229c10585ec392f89,626b3a9ca84ef0bb1c05e875,,,,,,,,,,,,,,,,,,,,,,,l,1,0.6656,"[""0.058"",""0.736"",""0.520"",""0.782""]","[1,0,1,1]",0,36,36,36,1,1,1,,,1,FALSE,,,,,,,,,,,,,,,,,,,,,,,,,,,,,,
,JP,001,2022-04-29_02h09.32.084,classification_task,2021.2.3,Win32,60.00960154,5de7d87f1a7af87458d8bf85,626b377229c10585ec392f89,626b3a9ca84ef0bb1c05e875,,,,,,,,,,,,,,,,,,,,,,,l,1,0.6732,"[""0.716"",""0.317"",""0.520"",""0.782""]","[0,1,1,1]",0,37,37,37,1,1,1,,,1,FALSE,,,,,,,,,,,,,,,,,,,,,,,,,,,,,,
,JP,001,2022-04-29_02h09.32.084,classification_task,2021.2.3,Win32,60.00960154,5de7d87f1a7af87458d8bf85,626b377229c10585ec392f89,626b3a9ca84ef0bb1c05e875,,,,,,,,,,,,,,,,,,,,,,,l,1,1.4489,"[""0.733"",""0.389"",""0.631"",""0.834""]","[0,1,1,1]",0,38,38,38,1,1,0,,,1,FALSE,,,,,,,,,,,,,,,,,,,,,,,,,,,,,,
,JP,001,2022-04-29_02h09.32.084,classification_task,2021.2.3,Win32,60.00960154,5de7d87f1a7af87458d8bf85,626b377229c10585ec392f89,626b3a9ca84ef0bb1c05e875,,,,,,,,,,,,,,,,,,,,,,,a,0,1.0487,"[""0.126"",""0.389"",""0.716"",""0.834""]","[1,1,0,1]",0,39,39,39,1,1,0,,,1,FALSE,,,,,,,,,,,,,,,,,,,,,,,,,,,,,,
,JP,001,2022-04-29_02h09.32.084,classification_task,2021.2.3,Win32,60.00960154,5de7d87f1a7af87458d8bf85,626b377229c10585ec392f89,626b3a9ca84ef0bb1c05e875,,,,,,,,,,,,,,,,,,,,,,,a,1,1.0645,"[""0.261"",""0.560"",""0.683"",""0.213""]","[1,1,1,0]",0,40,40,40,1,0,1,,,1,FALSE,,,,,,,,,,,,,,,,,,,,,,,,,,,,,,
,JP,001,2022-04-29_02h09.32.084,classification_task,2021.2.3,Win32,60.00960154,5de7d87f1a7af87458d8bf85,626b377229c10585ec392f89,626b3a9ca84ef0bb1c05e875,,,,,,,,,,,,,,,,,,,,,,,l,1,1.1139,"[""0.126"",""0.213"",""0.631"",""0.834""]","[1,0,1,1]",0,41,41,41,1,1,0,,,1,FALSE,,,,,,,,,,,,,,,,,,,,,,,,,,,,,,
,JP,001,2022-04-29_02h09.32.084,classification_task,2021.2.3,Win32,60.00960154,5de7d87f1a7af87458d8bf85,626b377229c10585ec392f89,626b3a9ca84ef0bb1c05e875,,,,,,,,,,,,,,,,,,,,,,,a,1,1.4997,"[""0.261"",""0.560"",""0.220"",""0.972""]","[1,1,0,1]",0,42,42,42,1,0,1,,,1,FALSE,,,,,,,,,,,,,,,,,,,,,,,,,,,,,,
,JP,001,2022-04-29_02h09.32.084,classification_task,2021.2.3,Win32,60.00960154,5de7d87f1a7af87458d8bf85,626b377229c10585ec392f89,626b3a9ca84ef0bb1c05e875,,,,,,,,,,,,,,,,,,,,,,,a,1,0.7578,"[""0.261"",""0.216"",""0.683"",""0.972""]","[1,0,1,1]",0,43,43,43,1,0,1,,,1,FALSE,,,,,,,,,,,,,,,,,,,,,,,,,,,,,,
,JP,001,2022-04-29_02h09.32.084,classification_task,2021.2.3,Win32,60.00960154,5de7d87f1a7af87458d8bf85,626b377229c10585ec392f89,626b3a9ca84ef0bb1c05e875,,,,,,,,,,,,,,,,,,,,,,,a,1,0.9649,"[""0.220"",""0.560"",""0.683"",""0.972""]","[0,1,1,1]",0,44,44,44,1,0,1,,,1,FALSE,,,,,,,,,,,,,,,,,,,,,,,,,,,,,,
,JP,001,2022-04-29_02h09.32.084,classification_task,2021.2.3,Win32,60.00960154,5de7d87f1a7af87458d8bf85,626b377229c10585ec392f89,626b3a9ca84ef0bb1c05e875,,,,,,,,,,,,,,,,,,,,,,,a,0,1.3467,"[""0.126"",""0.389"",""0.631"",""0.216""]","[1,1,1,0]",0,45,45,45,1,1,0,,,1,FALSE,,,,,,,,,,,,,,,,,,,,,,,,,,,,,,
,JP,001,2022-04-29_02h09.32.084,classification_task,2021.2.3,Win32,60.00960154,5de7d87f1a7af87458d8bf85,626b377229c10585ec392f89,626b3a9ca84ef0bb1c05e875,,,,,,,,,,,,,,,,,,,,,,,a,1,0.9813,"[""0.175"",""0.745"",""0.871"",""0.920""]","[1,0,1,1]",0,46,46,46,1,0,0,,,1,FALSE,,,,,,,,,,,,,,,,,,,,,,,,,,,,,,
,JP,001,2022-04-29_02h09.32.084,classification_task,2021.2.3,Win32,60.00960154,5de7d87f1a7af87458d8bf85,626b377229c10585ec392f89,626b3a9ca84ef0bb1c05e875,,,,,,,,,,,,,,,,,,,,,,,a,1,0.8342,"[""0.175"",""0.466"",""0.744"",""0.920""]","[1,1,0,1]",0,47,47,47,1,0,0,,,1,FALSE,,,,,,,,,,,,,,,,,,,,,,,,,,,,,,
,JP,001,2022-04-29_02h09.32.084,classification_task,2021.2.3,Win32,60.00960154,5de7d87f1a7af87458d8bf85,626b377229c10585ec392f89,626b3a9ca84ef0bb1c05e875,,,,,,,,,,,,,,,,,,,,,,,l,1,0.8212,"[""0.126"",""0.736"",""0.631"",""0.834""]","[1,0,1,1]",0,48,48,48,1,1,0,,,1,FALSE,,,,,,,,,,,,,,,,,,,,,,,,,,,,,,
,JP,001,2022-04-29_02h09.32.084,classification_task,2021.2.3,Win32,60.00960154,5de7d87f1a7af87458d8bf85,626b377229c10585ec392f89,626b3a9ca84ef0bb1c05e875,,,,,,,,,,,,,,,,,,,,,,,a,1,0.7403,"[""0.175"",""0.466"",""0.744"",""0.920""]","[1,1,0,1]",0,49,49,49,1,0,0,,,1,FALSE,,,,,,,,,,,,,,,,,,,,,,,,,,,,,,
,JP,001,2022-04-29_02h09.32.084,classification_task,2021.2.3,Win32,60.00960154,5de7d87f1a7af87458d8bf85,626b377229c10585ec392f89,626b3a9ca84ef0bb1c05e875,,,,,,,,,,,,,,,,,,,,,,,l,1,0.68,"[""0.126"",""0.389"",""0.631"",""0.733""]","[1,1,1,0]",0,50,50,50,1,1,0,,,1,FALSE,,,,,,,,,,,,,,,,,,,,,,,,,,,,,,
,JP,001,2022-04-29_02h09.32.084,classification_task,2021.2.3,Win32,60.00960154,5de7d87f1a7af87458d8bf85,626b377229c10585ec392f89,626b3a9ca84ef0bb1c05e875,,,,,,,,,,,,,,,,,,,,,,,a,0,3.5271,"[""0.058"",""0.317"",""0.744"",""0.782""]","[1,1,0,1]",0,51,51,51,1,1,1,,,1,FALSE,,,,,,,,,,,,,,,,,,,,,,,,,,,,,,
,JP,001,2022-04-29_02h09.32.084,classification_task,2021.2.3,Win32,60.00960154,5de7d87f1a7af87458d8bf85,626b377229c10585ec392f89,626b3a9ca84ef0bb1c05e875,,,,,,,,,,,,,,,,,,,,,,,a,1,1.497,"[""0.426"",""0.560"",""0.683"",""0.972""]","[0,1,1,1]",0,52,52,52,1,0,1,,,1,FALSE,,,,,,,,,,,,,,,,,,,,,,,,,,,,,,
,JP,001,2022-04-29_02h09.32.084,classification_task,2021.2.3,Win32,60.00960154,5de7d87f1a7af87458d8bf85,626b377229c10585ec392f89,626b3a9ca84ef0bb1c05e875,,,,,,,,,,,,,,,,,,,,,,,l,0,2.613,"[""0.725"",""0.466"",""0.871"",""0.920""]","[0,1,1,1]",0,53,53,53,1,0,0,,,1,FALSE,,,,,,,,,,,,,,,,,,,,,,,,,,,,,,
,JP,001,2022-04-29_02h09.32.084,classification_task,2021.2.3,Win32,60.00960154,5de7d87f1a7af87458d8bf85,626b377229c10585ec392f89,626b3a9ca84ef0bb1c05e875,,,,,,,,,,,,,,,,,,,,,,,a,1,2.1677,"[""0.175"",""0.466"",""0.871"",""0.222""]","[1,1,1,0]",0,54,54,54,1,0,0,,,1,FALSE,,,,,,,,,,,,,,,,,,,,,,,,,,,,,,
,JP,001,2022-04-29_02h09.32.084,classification_task,2021.2.3,Win32,60.00960154,5de7d87f1a7af87458d8bf85,626b377229c10585ec392f89,626b3a9ca84ef0bb1c05e875,,,,,,,,,,,,,,,,,,,,,,,l,0,1.3803,"[""0.261"",""0.560"",""0.220"",""0.972""]","[1,1,0,1]",0,55,55,55,1,0,1,,,1,FALSE,,,,,,,,,,,,,,,,,,,,,,,,,,,,,,
,JP,001,2022-04-29_02h09.32.084,classification_task,2021.2.3,Win32,60.00960154,5de7d87f1a7af87458d8bf85,626b377229c10585ec392f89,626b3a9ca84ef0bb1c05e875,,,,,,,,,,,,,,,,,,,,,,,l,1,0.9134,"[""0.744"",""0.317"",""0.520"",""0.782""]","[0,1,1,1]",0,56,56,56,1,1,1,,,1,FALSE,,,,,,,,,,,,,,,,,,,,,,,,,,,,,,
,JP,001,2022-04-29_02h09.32.084,classification_task,2021.2.3,Win32,60.00960154,5de7d87f1a7af87458d8bf85,626b377229c10585ec392f89,626b3a9ca84ef0bb1c05e875,,,,,,,,,,,,,,,,,,,,,,,a,1,0.885,"[""0.261"",""0.560"",""0.683"",""0.223""]","[1,1,1,0]",0,57,57,57,1,0,1,,,1,FALSE,,,,,,,,,,,,,,,,,,,,,,,,,,,,,,
,JP,001,2022-04-29_02h09.32.084,classification_task,2021.2.3,Win32,60.00960154,5de7d87f1a7af87458d8bf85,626b377229c10585ec392f89,626b3a9ca84ef0bb1c05e875,,,,,,,,,,,,,,,,,,,,,,,a,0,1.2971,"[""0.058"",""0.317"",""0.520"",""0.223""]","[1,1,1,0]",0,58,58,58,1,1,1,,,1,FALSE,,,,,,,,,,,,,,,,,,,,,,,,,,,,,,
,JP,001,2022-04-29_02h09.32.084,classification_task,2021.2.3,Win32,60.00960154,5de7d87f1a7af87458d8bf85,626b377229c10585ec392f89,626b3a9ca84ef0bb1c05e875,,,,,,,,,,,,,,,,,,,,,,,a,1,1.4011,"[""0.175"",""0.213"",""0.871"",""0.920""]","[1,0,1,1]",0,59,59,59,1,0,0,,,1,FALSE,,,,,,,,,,,,,,,,,,,,,,,,,,,,,,
,JP,001,2022-04-29_02h09.32.084,classification_task,2021.2.3,Win32,60.00960154,5de7d87f1a7af87458d8bf85,626b377229c10585ec392f89,626b3a9ca84ef0bb1c05e875,,,,,,,,,,,,,,,,,,,,,,,l,1,1.1948,"[""0.213"",""0.389"",""0.631"",""0.834""]","[0,1,1,1]",0,60,60,60,1,1,0,,,1,FALSE,,,,,,,,,,,,,,,,,,,,,,,,,,,,,,
,JP,001,2022-04-29_02h09.32.084,classification_task,2021.2.3,Win32,60.00960154,5de7d87f1a7af87458d8bf85,626b377229c10585ec392f89,626b3a9ca84ef0bb1c05e875,,,,,,,,,,,,,,,,,,,,,,,l,1,0.992,"[""0.126"",""0.389"",""0.215"",""0.834""]","[1,1,0,1]",0,61,61,61,1,1,0,,,1,FALSE,,,,,,,,,,,,,,,,,,,,,,,,,,,,,,
,JP,001,2022-04-29_02h09.32.084,classification_task,2021.2.3,Win32,60.00960154,5de7d87f1a7af87458d8bf85,626b377229c10585ec392f89,626b3a9ca84ef0bb1c05e875,,,,,,,,,,,,,,,,,,,,,,,l,1,1.3465,"[""0.058"",""0.716"",""0.520"",""0.782""]","[1,0,1,1]",0,62,62,62,1,1,1,,,1,FALSE,,,,,,,,,,,,,,,,,,,,,,,,,,,,,,
,JP,001,2022-04-29_02h09.32.084,classification_task,2021.2.3,Win32,60.00960154,5de7d87f1a7af87458d8bf85,626b377229c10585ec392f89,626b3a9ca84ef0bb1c05e875,,,,,,,,,,,,,,,,,,,,,,,a,1,1.0836,"[""0.261"",""0.426"",""0.683"",""0.972""]","[1,0,1,1]",0,63,63,63,1,0,1,,,1,FALSE,,,,,,,,,,,,,,,,,,,,,,,,,,,,,,
,JP,001,2022-04-29_02h09.32.084,classification_task,2021.2.3,Win32,60.00960154,5de7d87f1a7af87458d8bf85,626b377229c10585ec392f89,626b3a9ca84ef0bb1c05e875,,,,,,,,,,,,,,,,,,,,,,,,,,,,,,,,,,,,,,,0, ,,0,0.474476172,179.7262,0,1,1,1,1,2,2,,,,,,,,,,,,,,,,,
,JP,001,2022-04-29_02h09.32.084,classification_task,2021.2.3,Win32,60.00960154,5de7d87f1a7af87458d8bf85,626b377229c10585ec392f89,626b3a9ca84ef0bb1c05e875,,,,,,,,,,,,,,,,,,,,,,,,,,,,,,,,,,,,,,,1,  ,,0,3.683372526,187.343,0,1,1,1,1,2,2,,,,,,,,,,,,,,,,,
,JP,001,2022-04-29_02h09.32.084,classification_task,2021.2.3,Win32,60.00960154,5de7d87f1a7af87458d8bf85,626b377229c10585ec392f89,626b3a9ca84ef0bb1c05e875,,,,,,,,,,,,,,,,,,,,,,,,,,,,,,,,,,,,,,,2,  ,,0,3.364933514,186.3236,0,1,1,1,1,2,2,,,,,,,,,,,,,,,,,
,JP,001,2022-04-29_02h09.32.084,classification_task,2021.2.3,Win32,60.00960154,5de7d87f1a7af87458d8bf85,626b377229c10585ec392f89,626b3a9ca84ef0bb1c05e875,,,,,,,,,,,,,,,,,,,,,,,,,,,,,,,,,,,,,,,,,,,,,0,1,1,1,1,,2,,,,,,,,,,,,,,,,,
,JP,001,2022-04-29_02h09.32.084,classification_task,2021.2.3,Win32,60.00960154,5de7d87f1a7af87458d8bf85,626b377229c10585ec392f89,626b3a9ca84ef0bb1c05e875,,,,,,,,,,,,,,,,,,,,,space,8.4339,l,0,1.7633,"[""0.261"",""0.220"",""0.683"",""0.972""]","[1,0,1,1]",0,0,0,0,1,0,1,,,1,FALSE,,,,,,,,,,,,,,,,,,,,,,,,,,,,,,
,JP,001,2022-04-29_02h09.32.084,classification_task,2021.2.3,Win32,60.00960154,5de7d87f1a7af87458d8bf85,626b377229c10585ec392f89,626b3a9ca84ef0bb1c05e875,,,,,,,,,,,,,,,,,,,,,,,a,0,1.8971,"[""0.126"",""0.389"",""0.222"",""0.834""]","[1,1,0,1]",0,1,1,1,1,1,0,,,1,FALSE,,,,,,,,,,,,,,,,,,,,,,,,,,,,,,
,JP,001,2022-04-29_02h09.32.084,classification_task,2021.2.3,Win32,60.00960154,5de7d87f1a7af87458d8bf85,626b377229c10585ec392f89,626b3a9ca84ef0bb1c05e875,,,,,,,,,,,,,,,,,,,,,,,a,0,1.7329,"[""0.058"",""0.317"",""0.520"",""0.744""]","[1,1,1,0]",0,2,2,2,1,1,1,,,1,FALSE,,,,,,,,,,,,,,,,,,,,,,,,,,,,,,
,JP,001,2022-04-29_02h09.32.084,classification_task,2021.2.3,Win32,60.00960154,5de7d87f1a7af87458d8bf85,626b377229c10585ec392f89,626b3a9ca84ef0bb1c05e875,,,,,,,,,,,,,,,,,,,,,,,a,1,2.1483,"[""0.175"",""0.466"",""0.736"",""0.920""]","[1,1,0,1]",0,3,3,3,1,0,0,,,1,FALSE,,,,,,,,,,,,,,,,,,,,,,,,,,,,,,
,JP,001,2022-04-29_02h09.32.084,classification_task,2021.2.3,Win32,60.00960154,5de7d87f1a7af87458d8bf85,626b377229c10585ec392f89,626b3a9ca84ef0bb1c05e875,,,,,,,,,,,,,,,,,,,,,,,l,1,1.5453,"[""0.745"",""0.389"",""0.631"",""0.834""]","[0,1,1,1]",0,4,4,4,1,1,0,,,1,FALSE,,,,,,,,,,,,,,,,,,,,,,,,,,,,,,
,JP,001,2022-04-29_02h09.32.084,classification_task,2021.2.3,Win32,60.00960154,5de7d87f1a7af87458d8bf85,626b377229c10585ec392f89,626b3a9ca84ef0bb1c05e875,,,,,,,,,,,,,,,,,,,,,,,l,0,1.4011,"[""0.261"",""0.560"",""0.683"",""0.228""]","[1,1,1,0]",0,5,5,5,1,0,1,,,1,FALSE,,,,,,,,,,,,,,,,,,,,,,,,,,,,,,
,JP,001,2022-04-29_02h09.32.084,classification_task,2021.2.3,Win32,60.00960154,5de7d87f1a7af87458d8bf85,626b377229c10585ec392f89,626b3a9ca84ef0bb1c05e875,,,,,,,,,,,,,,,,,,,,,,,l,0,1.2651,"[""0.216"",""0.466"",""0.871"",""0.920""]","[0,1,1,1]",0,6,6,6,1,0,0,,,1,FALSE,,,,,,,,,,,,,,,,,,,,,,,,,,,,,,
,JP,001,2022-04-29_02h09.32.084,classification_task,2021.2.3,Win32,60.00960154,5de7d87f1a7af87458d8bf85,626b377229c10585ec392f89,626b3a9ca84ef0bb1c05e875,,,,,,,,,,,,,,,,,,,,,,,a,1,1.1996,"[""0.261"",""0.560"",""0.733"",""0.972""]","[1,1,0,1]",0,7,7,7,1,0,1,,,1,FALSE,,,,,,,,,,,,,,,,,,,,,,,,,,,,,,
,JP,001,2022-04-29_02h09.32.084,classification_task,2021.2.3,Win32,60.00960154,5de7d87f1a7af87458d8bf85,626b377229c10585ec392f89,626b3a9ca84ef0bb1c05e875,,,,,,,,,,,,,,,,,,,,,,,l,1,2.1163,"[""0.058"",""0.733"",""0.520"",""0.782""]","[1,0,1,1]",0,8,8,8,1,1,1,,,1,FALSE,,,,,,,,,,,,,,,,,,,,,,,,,,,,,,
,JP,001,2022-04-29_02h09.32.084,classification_task,2021.2.3,Win32,60.00960154,5de7d87f1a7af87458d8bf85,626b377229c10585ec392f89,626b3a9ca84ef0bb1c05e875,,,,,,,,,,,,,,,,,,,,,,,a,0,1.0667,"[""0.733"",""0.317"",""0.520"",""0.782""]","[0,1,1,1]",0,9,9,9,1,1,1,,,1,FALSE,,,,,,,,,,,,,,,,,,,,,,,,,,,,,,
,JP,001,2022-04-29_02h09.32.084,classification_task,2021.2.3,Win32,60.00960154,5de7d87f1a7af87458d8bf85,626b377229c10585ec392f89,626b3a9ca84ef0bb1c05e875,,,,,,,,,,,,,,,,,,,,,,,l,0,1.0004,"[""0.426"",""0.560"",""0.683"",""0.972""]","[0,1,1,1]",0,10,10,10,1,0,1,,,1,FALSE,,,,,,,,,,,,,,,,,,,,,,,,,,,,,,
,JP,001,2022-04-29_02h09.32.084,classification_task,2021.2.3,Win32,60.00960154,5de7d87f1a7af87458d8bf85,626b377229c10585ec392f89,626b3a9ca84ef0bb1c05e875,,,,,,,,,,,,,,,,,,,,,,,l,1,1.8164,"[""0.058"",""0.317"",""0.213"",""0.782""]","[1,1,0,1]",0,11,11,11,1,1,1,,,1,FALSE,,,,,,,,,,,,,,,,,,,,,,,,,,,,,,
,JP,001,2022-04-29_02h09.32.084,classification_task,2021.2.3,Win32,60.00960154,5de7d87f1a7af87458d8bf85,626b377229c10585ec392f89,626b3a9ca84ef0bb1c05e875,,,,,,,,,,,,,,,,,,,,,,,l,1,1.6841,"[""0.126"",""0.733"",""0.631"",""0.834""]","[1,0,1,1]",0,12,12,12,1,1,0,,,1,FALSE,,,,,,,,,,,,,,,,,,,,,,,,,,,,,,
,JP,001,2022-04-29_02h09.32.084,classification_task,2021.2.3,Win32,60.00960154,5de7d87f1a7af87458d8bf85,626b377229c10585ec392f89,626b3a9ca84ef0bb1c05e875,,,,,,,,,,,,,,,,,,,,,,,a,1,0.7673,"[""0.175"",""0.466"",""0.871"",""0.736""]","[1,1,1,0]",0,13,13,13,1,0,0,,,1,FALSE,,,,,,,,,,,,,,,,,,,,,,,,,,,,,,
,JP,001,2022-04-29_02h09.32.084,classification_task,2021.2.3,Win32,60.00960154,5de7d87f1a7af87458d8bf85,626b377229c10585ec392f89,626b3a9ca84ef0bb1c05e875,,,,,,,,,,,,,,,,,,,,,,,l,1,0.8646,"[""0.126"",""0.389"",""0.631"",""0.220""]","[1,1,1,0]",0,14,14,14,1,1,0,,,1,FALSE,,,,,,,,,,,,,,,,,,,,,,,,,,,,,,
,JP,001,2022-04-29_02h09.32.084,classification_task,2021.2.3,Win32,60.00960154,5de7d87f1a7af87458d8bf85,626b377229c10585ec392f89,626b3a9ca84ef0bb1c05e875,,,,,,,,,,,,,,,,,,,,,,,a,1,0.9664,"[""0.175"",""0.222"",""0.871"",""0.920""]","[1,0,1,1]",0,15,15,15,1,0,0,,,1,FALSE,,,,,,,,,,,,,,,,,,,,,,,,,,,,,,
,JP,001,2022-04-29_02h09.32.084,classification_task,2021.2.3,Win32,60.00960154,5de7d87f1a7af87458d8bf85,626b377229c10585ec392f89,626b3a9ca84ef0bb1c05e875,,,,,,,,,,,,,,,,,,,,,,,l,1,0.9149,"[""0.126"",""0.389"",""0.744"",""0.834""]","[1,1,0,1]",0,16,16,16,1,1,0,,,1,FALSE,,,,,,,,,,,,,,,,,,,,,,,,,,,,,,
,JP,001,2022-04-29_02h09.32.084,classification_task,2021.2.3,Win32,60.00960154,5de7d87f1a7af87458d8bf85,626b377229c10585ec392f89,626b3a9ca84ef0bb1c05e875,,,,,,,,,,,,,,,,,,,,,,,l,1,1.4649,"[""0.058"",""0.317"",""0.216"",""0.782""]","[1,1,0,1]",0,17,17,17,1,1,1,,,1,FALSE,,,,,,,,,,,,,,,,,,,,,,,,,,,,,,
,JP,001,2022-04-29_02h09.32.084,classification_task,2021.2.3,Win32,60.00960154,5de7d87f1a7af87458d8bf85,626b377229c10585ec392f89,626b3a9ca84ef0bb1c05e875,,,,,,,,,,,,,,,,,,,,,,,a,0,1.5662,"[""0.222"",""0.317"",""0.520"",""0.782""]","[0,1,1,1]",0,18,18,18,1,1,1,,,1,FALSE,,,,,,,,,,,,,,,,,,,,,,,,,,,,,,
,JP,001,2022-04-29_02h09.32.084,classification_task,2021.2.3,Win32,60.00960154,5de7d87f1a7af87458d8bf85,626b377229c10585ec392f89,626b3a9ca84ef0bb1c05e875,,,,,,,,,,,,,,,,,,,,,,,l,1,1.0981,"[""0.126"",""0.389"",""0.631"",""0.222""]","[1,1,1,0]",0,19,19,19,1,1,0,,,1,FALSE,,,,,,,,,,,,,,,,,,,,,,,,,,,,,,
,JP,001,2022-04-29_02h09.32.084,classification_task,2021.2.3,Win32,60.00960154,5de7d87f1a7af87458d8bf85,626b377229c10585ec392f89,626b3a9ca84ef0bb1c05e875,,,,,,,,,,,,,,,,,,,,,,,l,1,1.9122,"[""0.058"",""0.317"",""0.520"",""0.222""]","[1,1,1,0]",0,20,20,20,1,1,1,,,1,FALSE,,,,,,,,,,,,,,,,,,,,,,,,,,,,,,
,JP,001,2022-04-29_02h09.32.084,classification_task,2021.2.3,Win32,60.00960154,5de7d87f1a7af87458d8bf85,626b377229c10585ec392f89,626b3a9ca84ef0bb1c05e875,,,,,,,,,,,,,,,,,,,,,,,l,1,1.0998,"[""0.058"",""0.725"",""0.520"",""0.782""]","[1,0,1,1]",0,21,21,21,1,1,1,,,1,FALSE,,,,,,,,,,,,,,,,,,,,,,,,,,,,,,
,JP,001,2022-04-29_02h09.32.084,classification_task,2021.2.3,Win32,60.00960154,5de7d87f1a7af87458d8bf85,626b377229c10585ec392f89,626b3a9ca84ef0bb1c05e875,,,,,,,,,,,,,,,,,,,,,,,a,1,1.1503,"[""0.175"",""0.725"",""0.871"",""0.920""]","[1,0,1,1]",0,22,22,22,1,0,0,,,1,FALSE,,,,,,,,,,,,,,,,,,,,,,,,,,,,,,
,JP,001,2022-04-29_02h09.32.084,classification_task,2021.2.3,Win32,60.00960154,5de7d87f1a7af87458d8bf85,626b377229c10585ec392f89,626b3a9ca84ef0bb1c05e875,,,,,,,,,,,,,,,,,,,,,,,a,1,1.033,"[""0.175"",""0.466"",""0.744"",""0.920""]","[1,1,0,1]",0,23,23,23,1,0,0,,,1,FALSE,,,,,,,,,,,,,,,,,,,,,,,,,,,,,,
,JP,001,2022-04-29_02h09.32.084,classification_task,2021.2.3,Win32,60.00960154,5de7d87f1a7af87458d8bf85,626b377229c10585ec392f89,626b3a9ca84ef0bb1c05e875,,,,,,,,,,,,,,,,,,,,,,,l,0,1.3829,"[""0.261"",""0.560"",""0.733"",""0.972""]","[1,1,0,1]",0,24,24,24,1,0,1,,,1,FALSE,,,,,,,,,,,,,,,,,,,,,,,,,,,,,,
,JP,001,2022-04-29_02h09.32.084,classification_task,2021.2.3,Win32,60.00960154,5de7d87f1a7af87458d8bf85,626b377229c10585ec392f89,626b3a9ca84ef0bb1c05e875,,,,,,,,,,,,,,,,,,,,,,,l,1,1.1152,"[""0.126"",""0.223"",""0.631"",""0.834""]","[1,0,1,1]",0,25,25,25,1,1,0,,,1,FALSE,,,,,,,,,,,,,,,,,,,,,,,,,,,,,,
,JP,001,2022-04-29_02h09.32.084,classification_task,2021.2.3,Win32,60.00960154,5de7d87f1a7af87458d8bf85,626b377229c10585ec392f89,626b3a9ca84ef0bb1c05e875,,,,,,,,,,,,,,,,,,,,,,,l,0,1.2348,"[""0.261"",""0.560"",""0.683"",""0.745""]","[1,1,1,0]",0,26,26,26,1,0,1,,,1,FALSE,,,,,,,,,,,,,,,,,,,,,,,,,,,,,,
,JP,001,2022-04-29_02h09.32.084,classification_task,2021.2.3,Win32,60.00960154,5de7d87f1a7af87458d8bf85,626b377229c10585ec392f89,626b3a9ca84ef0bb1c05e875,,,,,,,,,,,,,,,,,,,,,,,a,0,3.7,"[""0.215"",""0.389"",""0.631"",""0.834""]","[0,1,1,1]",0,27,27,27,1,1,0,,,1,FALSE,,,,,,,,,,,,,,,,,,,,,,,,,,,,,,
,JP,001,2022-04-29_02h09.32.084,classification_task,2021.2.3,Win32,60.00960154,5de7d87f1a7af87458d8bf85,626b377229c10585ec392f89,626b3a9ca84ef0bb1c05e875,,,,,,,,,,,,,,,,,,,,,,,l,0,0.8832,"[""0.426"",""0.560"",""0.683"",""0.972""]","[0,1,1,1]",0,28,28,28,1,0,1,,,1,FALSE,,,,,,,,,,,,,,,,,,,,,,,,,,,,,,
,JP,001,2022-04-29_02h09.32.084,classification_task,2021.2.3,Win32,60.00960154,5de7d87f1a7af87458d8bf85,626b377229c10585ec392f89,626b3a9ca84ef0bb1c05e875,,,,,,,,,,,,,,,,,,,,,,,a,1,0.8001,"[""0.261"",""0.736"",""0.683"",""0.972""]","[1,0,1,1]",0,29,29,29,1,0,1,,,1,FALSE,,,,,,,,,,,,,,,,,,,,,,,,,,,,,,
,JP,001,2022-04-29_02h09.32.084,classification_task,2021.2.3,Win32,60.00960154,5de7d87f1a7af87458d8bf85,626b377229c10585ec392f89,626b3a9ca84ef0bb1c05e875,,,,,,,,,,,,,,,,,,,,,,,a,1,1.1337,"[""0.175"",""0.466"",""0.871"",""0.744""]","[1,1,1,0]",0,30,30,30,1,0,0,,,1,FALSE,,,,,,,,,,,,,,,,,,,,,,,,,,,,,,
,JP,001,2022-04-29_02h09.32.084,classification_task,2021.2.3,Win32,60.00960154,5de7d87f1a7af87458d8bf85,626b377229c10585ec392f89,626b3a9ca84ef0bb1c05e875,,,,,,,,,,,,,,,,,,,,,,,l,0,0.9855,"[""0.736"",""0.466"",""0.871"",""0.920""]","[0,1,1,1]",0,31,31,31,1,0,0,,,1,FALSE,,,,,,,,,,,,,,,,,,,,,,,,,,,,,,
,JP,001,2022-04-29_02h09.32.084,classification_task,2021.2.3,Win32,60.00960154,5de7d87f1a7af87458d8bf85,626b377229c10585ec392f89,626b3a9ca84ef0bb1c05e875,,,,,,,,,,,,,,,,,,,,,,,l,1,1.2659,"[""0.126"",""0.389"",""0.631"",""0.223""]","[1,1,1,0]",0,32,32,32,1,1,0,,,1,FALSE,,,,,,,,,,,,,,,,,,,,,,,,,,,,,,
,JP,001,2022-04-29_02h09.32.084,classification_task,2021.2.3,Win32,60.00960154,5de7d87f1a7af87458d8bf85,626b377229c10585ec392f89,626b3a9ca84ef0bb1c05e875,,,,,,,,,,,,,,,,,,,,,,,l,1,1.1505,"[""0.058"",""0.317"",""0.520"",""0.745""]","[1,1,1,0]",0,33,33,33,1,1,1,,,1,FALSE,,,,,,,,,,,,,,,,,,,,,,,,,,,,,,
,JP,001,2022-04-29_02h09.32.084,classification_task,2021.2.3,Win32,60.00960154,5de7d87f1a7af87458d8bf85,626b377229c10585ec392f89,626b3a9ca84ef0bb1c05e875,,,,,,,,,,,,,,,,,,,,,,,a,1,2.8328,"[""0.261"",""0.560"",""0.213"",""0.972""]","[1,1,0,1]",0,34,34,34,1,0,1,,,1,FALSE,,,,,,,,,,,,,,,,,,,,,,,,,,,,,,
,JP,001,2022-04-29_02h09.32.084,classification_task,2021.2.3,Win32,60.00960154,5de7d87f1a7af87458d8bf85,626b377229c10585ec392f89,626b3a9ca84ef0bb1c05e875,,,,,,,,,,,,,,,,,,,,,,,l,1,0.9836,"[""0.744"",""0.317"",""0.520"",""0.782""]","[0,1,1,1]",0,35,35,35,1,1,1,,,1,FALSE,,,,,,,,,,,,,,,,,,,,,,,,,,,,,,
,JP,001,2022-04-29_02h09.32.084,classification_task,2021.2.3,Win32,60.00960154,5de7d87f1a7af87458d8bf85,626b377229c10585ec392f89,626b3a9ca84ef0bb1c05e875,,,,,,,,,,,,,,,,,,,,,,,l,0,0.8338,"[""0.261"",""0.560"",""0.683"",""0.725""]","[1,1,1,0]",0,36,36,36,1,0,1,,,1,FALSE,,,,,,,,,,,,,,,,,,,,,,,,,,,,,,
,JP,001,2022-04-29_02h09.32.084,classification_task,2021.2.3,Win32,60.00960154,5de7d87f1a7af87458d8bf85,626b377229c10585ec392f89,626b3a9ca84ef0bb1c05e875,,,,,,,,,,,,,,,,,,,,,,,l,1,2.1494,"[""0.126"",""0.389"",""0.220"",""0.834""]","[1,1,0,1]",0,37,37,37,1,1,0,,,1,FALSE,,,,,,,,,,,,,,,,,,,,,,,,,,,,,,
,JP,001,2022-04-29_02h09.32.084,classification_task,2021.2.3,Win32,60.00960154,5de7d87f1a7af87458d8bf85,626b377229c10585ec392f89,626b3a9ca84ef0bb1c05e875,,,,,,,,,,,,,,,,,,,,,,,l,1,1.3883,"[""0.058"",""0.223"",""0.520"",""0.782""]","[1,0,1,1]",0,38,38,38,1,1,1,,,1,FALSE,,,,,,,,,,,,,,,,,,,,,,,,,,,,,,
,JP,001,2022-04-29_02h09.32.084,classification_task,2021.2.3,Win32,60.00960154,5de7d87f1a7af87458d8bf85,626b377229c10585ec392f89,626b3a9ca84ef0bb1c05e875,,,,,,,,,,,,,,,,,,,,,,,a,1,1.1303,"[""0.175"",""0.725"",""0.871"",""0.920""]","[1,0,1,1]",0,39,39,39,1,0,0,,,1,FALSE,,,,,,,,,,,,,,,,,,,,,,,,,,,,,,
,JP,001,2022-04-29_02h09.32.084,classification_task,2021.2.3,Win32,60.00960154,5de7d87f1a7af87458d8bf85,626b377229c10585ec392f89,626b3a9ca84ef0bb1c05e875,,,,,,,,,,,,,,,,,,,,,,,a,1,0.6197,"[""0.175"",""0.466"",""0.871"",""0.745""]","[1,1,1,0]",0,40,40,40,1,0,0,,,1,FALSE,,,,,,,,,,,,,,,,,,,,,,,,,,,,,,
,JP,001,2022-04-29_02h09.32.084,classification_task,2021.2.3,Win32,60.00960154,5de7d87f1a7af87458d8bf85,626b377229c10585ec392f89,626b3a9ca84ef0bb1c05e875,,,,,,,,,,,,,,,,,,,,,,,a,1,0.8272,"[""0.175"",""0.466"",""0.222"",""0.920""]","[1,1,0,1]",0,41,41,41,1,0,0,,,1,FALSE,,,,,,,,,,,,,,,,,,,,,,,,,,,,,,
,JP,001,2022-04-29_02h09.32.084,classification_task,2021.2.3,Win32,60.00960154,5de7d87f1a7af87458d8bf85,626b377229c10585ec392f89,626b3a9ca84ef0bb1c05e875,,,,,,,,,,,,,,,,,,,,,,,a,1,1.4831,"[""0.222"",""0.466"",""0.871"",""0.920""]","[0,1,1,1]",0,42,42,42,1,0,0,,,1,FALSE,,,,,,,,,,,,,,,,,,,,,,,,,,,,,,
,JP,001,2022-04-29_02h09.32.084,classification_task,2021.2.3,Win32,60.00960154,5de7d87f1a7af87458d8bf85,626b377229c10585ec392f89,626b3a9ca84ef0bb1c05e875,,,,,,,,,,,,,,,,,,,,,,,l,1,0.9144,"[""0.745"",""0.389"",""0.631"",""0.834""]","[0,1,1,1]",0,43,43,43,1,1,0,,,1,FALSE,,,,,,,,,,,,,,,,,,,,,,,,,,,,,,
,JP,001,2022-04-29_02h09.32.084,classification_task,2021.2.3,Win32,60.00960154,5de7d87f1a7af87458d8bf85,626b377229c10585ec392f89,626b3a9ca84ef0bb1c05e875,,,,,,,,,,,,,,,,,,,,,,,l,0,0.8649,"[""0.223"",""0.560"",""0.683"",""0.972""]","[0,1,1,1]",0,44,44,44,1,0,1,,,1,FALSE,,,,,,,,,,,,,,,,,,,,,,,,,,,,,,
,JP,001,2022-04-29_02h09.32.084,classification_task,2021.2.3,Win32,60.00960154,5de7d87f1a7af87458d8bf85,626b377229c10585ec392f89,626b3a9ca84ef0bb1c05e875,,,,,,,,,,,,,,,,,,,,,,,l,1,0.8985,"[""0.126"",""0.222"",""0.631"",""0.834""]","[1,0,1,1]",0,45,45,45,1,1,0,,,1,FALSE,,,,,,,,,,,,,,,,,,,,,,,,,,,,,,
,JP,001,2022-04-29_02h09.32.084,classification_task,2021.2.3,Win32,60.00960154,5de7d87f1a7af87458d8bf85,626b377229c10585ec392f89,626b3a9ca84ef0bb1c05e875,,,,,,,,,,,,,,,,,,,,,,,l,0,0.767,"[""0.261"",""0.228"",""0.683"",""0.972""]","[1,0,1,1]",0,46,46,46,1,0,1,,,1,FALSE,,,,,,,,,,,,,,,,,,,,,,,,,,,,,,
,JP,001,2022-04-29_02h09.32.084,classification_task,2021.2.3,Win32,60.00960154,5de7d87f1a7af87458d8bf85,626b377229c10585ec392f89,626b3a9ca84ef0bb1c05e875,,,,,,,,,,,,,,,,,,,,,,,l,1,0.8687,"[""0.058"",""0.317"",""0.744"",""0.782""]","[1,1,0,1]",0,47,47,47,1,1,1,,,1,FALSE,,,,,,,,,,,,,,,,,,,,,,,,,,,,,,
,JP,001,2022-04-29_02h09.32.084,classification_task,2021.2.3,Win32,60.00960154,5de7d87f1a7af87458d8bf85,626b377229c10585ec392f89,626b3a9ca84ef0bb1c05e875,,,,,,,,,,,,,,,,,,,,,,,l,1,0.6,"[""0.058"",""0.317"",""0.520"",""0.725""]","[1,1,1,0]",0,48,48,48,1,1,1,,,1,FALSE,,,,,,,,,,,,,,,,,,,,,,,,,,,,,,
,JP,001,2022-04-29_02h09.32.084,classification_task,2021.2.3,Win32,60.00960154,5de7d87f1a7af87458d8bf85,626b377229c10585ec392f89,626b3a9ca84ef0bb1c05e875,,,,,,,,,,,,,,,,,,,,,,,l,0,1.2009,"[""0.261"",""0.560"",""0.683"",""0.725""]","[1,1,1,0]",0,49,49,49,1,0,1,,,1,FALSE,,,,,,,,,,,,,,,,,,,,,,,,,,,,,,
,JP,001,2022-04-29_02h09.32.084,classification_task,2021.2.3,Win32,60.00960154,5de7d87f1a7af87458d8bf85,626b377229c10585ec392f89,626b3a9ca84ef0bb1c05e875,,,,,,,,,,,,,,,,,,,,,,,l,1,1.1151,"[""0.222"",""0.389"",""0.631"",""0.834""]","[0,1,1,1]",0,50,50,50,1,1,0,,,1,FALSE,,,,,,,,,,,,,,,,,,,,,,,,,,,,,,
,JP,001,2022-04-29_02h09.32.084,classification_task,2021.2.3,Win32,60.00960154,5de7d87f1a7af87458d8bf85,626b377229c10585ec392f89,626b3a9ca84ef0bb1c05e875,,,,,,,,,,,,,,,,,,,,,,,l,1,1.2139,"[""0.126"",""0.733"",""0.631"",""0.834""]","[1,0,1,1]",0,51,51,51,1,1,0,,,1,FALSE,,,,,,,,,,,,,,,,,,,,,,,,,,,,,,
,JP,001,2022-04-29_02h09.32.084,classification_task,2021.2.3,Win32,60.00960154,5de7d87f1a7af87458d8bf85,626b377229c10585ec392f89,626b3a9ca84ef0bb1c05e875,,,,,,,,,,,,,,,,,,,,,,,a,1,0.7506,"[""0.175"",""0.466"",""0.744"",""0.920""]","[1,1,0,1]",0,52,52,52,1,0,0,,,1,FALSE,,,,,,,,,,,,,,,,,,,,,,,,,,,,,,
,JP,001,2022-04-29_02h09.32.084,classification_task,2021.2.3,Win32,60.00960154,5de7d87f1a7af87458d8bf85,626b377229c10585ec392f89,626b3a9ca84ef0bb1c05e875,,,,,,,,,,,,,,,,,,,,,,,l,1,0.7101,"[""0.058"",""0.215"",""0.520"",""0.782""]","[1,0,1,1]",0,53,53,53,1,1,1,,,1,FALSE,,,,,,,,,,,,,,,,,,,,,,,,,,,,,,
,JP,001,2022-04-29_02h09.32.084,classification_task,2021.2.3,Win32,60.00960154,5de7d87f1a7af87458d8bf85,626b377229c10585ec392f89,626b3a9ca84ef0bb1c05e875,,,,,,,,,,,,,,,,,,,,,,,l,0,0.7179,"[""0.736"",""0.560"",""0.683"",""0.972""]","[0,1,1,1]",0,54,54,54,1,0,1,,,1,FALSE,,,,,,,,,,,,,,,,,,,,,,,,,,,,,,
,JP,001,2022-04-29_02h09.32.084,classification_task,2021.2.3,Win32,60.00960154,5de7d87f1a7af87458d8bf85,626b377229c10585ec392f89,626b3a9ca84ef0bb1c05e875,,,,,,,,,,,,,,,,,,,,,,,l,0,1.1032,"[""0.261"",""0.560"",""0.213"",""0.972""]","[1,1,0,1]",0,55,55,55,1,0,1,,,1,FALSE,,,,,,,,,,,,,,,,,,,,,,,,,,,,,,
,JP,001,2022-04-29_02h09.32.084,classification_task,2021.2.3,Win32,60.00960154,5de7d87f1a7af87458d8bf85,626b377229c10585ec392f89,626b3a9ca84ef0bb1c05e875,,,,,,,,,,,,,,,,,,,,,,,l,1,0.8846,"[""0.126"",""0.389"",""0.631"",""0.223""]","[1,1,1,0]",0,56,56,56,1,1,0,,,1,FALSE,,,,,,,,,,,,,,,,,,,,,,,,,,,,,,
,JP,001,2022-04-29_02h09.32.084,classification_task,2021.2.3,Win32,60.00960154,5de7d87f1a7af87458d8bf85,626b377229c10585ec392f89,626b3a9ca84ef0bb1c05e875,,,,,,,,,,,,,,,,,,,,,,,l,0,0.7484,"[""0.220"",""0.466"",""0.871"",""0.920""]","[0,1,1,1]",0,57,57,57,1,0,0,,,1,FALSE,,,,,,,,,,,,,,,,,,,,,,,,,,,,,,
,JP,001,2022-04-29_02h09.32.084,classification_task,2021.2.3,Win32,60.00960154,5de7d87f1a7af87458d8bf85,626b377229c10585ec392f89,626b3a9ca84ef0bb1c05e875,,,,,,,,,,,,,,,,,,,,,,,l,0,1.0637,"[""0.261"",""0.745"",""0.683"",""0.972""]","[1,0,1,1]",0,58,58,58,1,0,1,,,1,FALSE,,,,,,,,,,,,,,,,,,,,,,,,,,,,,,
,JP,001,2022-04-29_02h09.32.084,classification_task,2021.2.3,Win32,60.00960154,5de7d87f1a7af87458d8bf85,626b377229c10585ec392f89,626b3a9ca84ef0bb1c05e875,,,,,,,,,,,,,,,,,,,,,,,a,1,0.9178,"[""0.175"",""0.216"",""0.871"",""0.920""]","[1,0,1,1]",0,59,59,59,1,0,0,,,1,FALSE,,,,,,,,,,,,,,,,,,,,,,,,,,,,,,
,JP,001,2022-04-29_02h09.32.084,classification_task,2021.2.3,Win32,60.00960154,5de7d87f1a7af87458d8bf85,626b377229c10585ec392f89,626b3a9ca84ef0bb1c05e875,,,,,,,,,,,,,,,,,,,,,,,l,1,0.8922,"[""0.126"",""0.389"",""0.744"",""0.834""]","[1,1,0,1]",0,60,60,60,1,1,0,,,1,FALSE,,,,,,,,,,,,,,,,,,,,,,,,,,,,,,
,JP,001,2022-04-29_02h09.32.084,classification_task,2021.2.3,Win32,60.00960154,5de7d87f1a7af87458d8bf85,626b377229c10585ec392f89,626b3a9ca84ef0bb1c05e875,,,,,,,,,,,,,,,,,,,,,,,a,1,0.9659,"[""0.175"",""0.466"",""0.871"",""0.223""]","[1,1,1,0]",0,61,61,61,1,0,0,,,1,FALSE,,,,,,,,,,,,,,,,,,,,,,,,,,,,,,
,JP,001,2022-04-29_02h09.32.084,classification_task,2021.2.3,Win32,60.00960154,5de7d87f1a7af87458d8bf85,626b377229c10585ec392f89,626b3a9ca84ef0bb1c05e875,,,,,,,,,,,,,,,,,,,,,,,l,1,0.9979,"[""0.744"",""0.317"",""0.520"",""0.782""]","[0,1,1,1]",0,62,62,62,1,1,1,,,1,FALSE,,,,,,,,,,,,,,,,,,,,,,,,,,,,,,
,JP,001,2022-04-29_02h09.32.084,classification_task,2021.2.3,Win32,60.00960154,5de7d87f1a7af87458d8bf85,626b377229c10585ec392f89,626b3a9ca84ef0bb1c05e875,,,,,,,,,,,,,,,,,,,,,,,l,1,1.1001,"[""0.058"",""0.317"",""0.215"",""0.782""]","[1,1,0,1]",0,63,63,63,1,1,1,,,1,FALSE,,,,,,,,,,,,,,,,,,,,,,,,,,,,,,
,JP,001,2022-04-29_02h09.32.084,classification_task,2021.2.3,Win32,60.00960154,5de7d87f1a7af87458d8bf85,626b377229c10585ec392f89,626b3a9ca84ef0bb1c05e875,,,,,,,,,,,,,,,,,,,,,,,,,,,,,,,,,,,,,,,0, ,,0,0.596953147,158.9528,0,2,2,2,1,2,3,,,,,,,,,,,,,,,,,
,JP,001,2022-04-29_02h09.32.084,classification_task,2021.2.3,Win32,60.00960154,5de7d87f1a7af87458d8bf85,626b377229c10585ec392f89,626b3a9ca84ef0bb1c05e875,,,,,,,,,,,,,,,,,,,,,,,,,,,,,,,,,,,,,,,1,  ,,0,5.961444996,161.6378,0,2,2,2,1,2,3,,,,,,,,,,,,,,,,,
,JP,001,2022-04-29_02h09.32.084,classification_task,2021.2.3,Win32,60.00960154,5de7d87f1a7af87458d8bf85,626b377229c10585ec392f89,626b3a9ca84ef0bb1c05e875,,,,,,,,,,,,,,,,,,,,,,,,,,,,,,,,,,,,,,,2,  ,,0,3.928326475,163.2572,0,2,2,2,1,2,3,,,,,,,,,,,,,,,,,
,JP,001,2022-04-29_02h09.32.084,classification_task,2021.2.3,Win32,60.00960154,5de7d87f1a7af87458d8bf85,626b377229c10585ec392f89,626b3a9ca84ef0bb1c05e875,,,,,,,,,,,,,,,,,,,,,,,,,,,,,,,,,,,,,,,,,,,,,0,2,2,2,1,,3,,,,,,,,,,,,,,,,,
,JP,001,2022-04-29_02h09.32.084,classification_task,2021.2.3,Win32,60.00960154,5de7d87f1a7af87458d8bf85,626b377229c10585ec392f89,626b3a9ca84ef0bb1c05e875,,,,,,,,,,,,,,,,,,,,,,,,,,,,,,,,,,,,,,,,,,,,,,,,,,,,,I believe the aid is a competent performer,,0.7,0,5,870.2425,0,0,0,0,1,0,,,,
,JP,001,2022-04-29_02h09.32.084,classification_task,2021.2.3,Win32,60.00960154,5de7d87f1a7af87458d8bf85,626b377229c10585ec392f89,626b3a9ca84ef0bb1c05e875,,,,,,,,,,,,,,,,,,,,,,,,,,,,,,,,,,,,,,,,,,,,,,,,,,,,,I trust the aid,,0.7,0,5,873.2349,0,0,0,0,1,0,,,,
,JP,001,2022-04-29_02h09.32.084,classification_task,2021.2.3,Win32,60.00960154,5de7d87f1a7af87458d8bf85,626b377229c10585ec392f89,626b3a9ca84ef0bb1c05e875,,,,,,,,,,,,,,,,,,,,,,,,,,,,,,,,,,,,,,,,,,,,,,,,,,,,,I have confidence in the advice given by the aid,,0.7,0,5,874.812,0,0,0,0,1,0,,,,
,JP,001,2022-04-29_02h09.32.084,classification_task,2021.2.3,Win32,60.00960154,5de7d87f1a7af87458d8bf85,626b377229c10585ec392f89,626b3a9ca84ef0bb1c05e875,,,,,,,,,,,,,,,,,,,,,,,,,,,,,,,,,,,,,,,,,,,,,,,,,,,,,I can depend on the aid,,0.7,0,4,877.9693,0,0,0,0,1,0,,,,
,JP,001,2022-04-29_02h09.32.084,classification_task,2021.2.3,Win32,60.00960154,5de7d87f1a7af87458d8bf85,626b377229c10585ec392f89,626b3a9ca84ef0bb1c05e875,,,,,,,,,,,,,,,,,,,,,,,,,,,,,,,,,,,,,,,,,,,,,,,,,,,,,I can rely on the aid to behave in consistent ways,,0.7,0,5,879.5853,0,0,0,0,1,0,,,,
,JP,001,2022-04-29_02h09.32.084,classification_task,2021.2.3,Win32,60.00960154,5de7d87f1a7af87458d8bf85,626b377229c10585ec392f89,626b3a9ca84ef0bb1c05e875,,,,,,,,,,,,,,,,,,,,,,,,,,,,,,,,,,,,,,,,,,,,,,,,,,,,,I can rely on the aid to do its best every time I take its advice,,0.7,0,5,882.7977,0,0,0,0,1,0,,,,
,JP,001,2022-04-29_02h09.32.084,classification_task,2021.2.3,Win32,60.00960154,5de7d87f1a7af87458d8bf85,626b377229c10585ec392f89,626b3a9ca84ef0bb1c05e875,,,,,,,,,,,,,,,,,,,,,,,,,,,,,,,,,,,,,,,,,,,,,,,,,,,,,"On trials you completed with assistance from the aid, how frequently did you think the aid was correct?",,0.7,0,100%,,0,0,0,0,1,0,,,,
,JP,001,2022-04-29_02h09.32.084,classification_task,2021.2.3,Win32,60.00960154,5de7d87f1a7af87458d8bf85,626b377229c10585ec392f89,626b3a9ca84ef0bb1c05e875,,,,,,,,,,,,,,,,,,,,,,,,,,,,,,,,,,,,,,,,,,,,,,,,,,,,,"On trials you completed without the aid, how frequently did you think you were correct?",,0.7,0,75%,,0,0,0,0,1,0,,,,
,JP,001,2022-04-29_02h09.32.084,classification_task,2021.2.3,Win32,60.00960154,5de7d87f1a7af87458d8bf85,626b377229c10585ec392f89,626b3a9ca84ef0bb1c05e875,,,,,,,,,,,,,,,,,,,,,,,,,,,,,,,,,,,,,,,,,,,,,,,,,,,,,,,,,,,0,0,0,0,1,,,,,
,JP,001,2022-04-29_02h09.32.084,classification_task,2021.2.3,Win32,60.00960154,5de7d87f1a7af87458d8bf85,626b377229c10585ec392f89,626b3a9ca84ef0bb1c05e875,,,,,,,,,,,,,,,,,,,,,,,,,,,,,,,,,,,,,,,,,,,,,,,,,,,,,,,,,,,,,,,,,space,10.9875,913.8715,
,JP,001,2022-04-29_02h09.32.084,classification_task,2021.2.3,Win32,60.00960154,5de7d87f1a7af87458d8bf85,626b377229c10585ec392f89,626b3a9ca84ef0bb1c05e875,,,,,,,,,,,,,,,,,,,,,,,,,,,,,,,,,,,,,,,,,,,,,,,,,,,,,,,,,,,,,,,,,,,,"Mozilla/5.0 (Windows NT 10.0; Win64; x64) AppleWebKit/537.36 (KHTML, like Gecko) Chrome/100.0.4896.127 Safari/537.36 Edg/100.0.1185.50"
