usingWebGL,participant,session,date,expName,psychopyVersion,OS,frameRate,PROLIFIC_PID,STUDY_ID,SESSION_ID,signatures_friend,signatures_foe,band_ranges_top,band_ranges_bottom,formitemText,formtype,formundefined,formitemWidth,formindex,formresponse,formrt,key_resp_2.keys,key_resp_2.rt,tute_resp.keys,tute_resp.rt,tutorial.thisRepN,tutorial.thisTrialN,tutorial.thisN,tutorial.thisIndex,tutorial.ran,key_resp_4.keys,key_resp_4.rt,key_resp.keys,key_resp.corr,lines_presented,is_signal_presented,trials.thisRepN,trials.thisTrialN,trials.thisN,trials.thisIndex,trials.ran,vessel,active_band,lines,is_signal,supported_pos,catch_trial,key_resp.rt,debrief_formindex,debrief_formitemText,debrief_formtype,debrief_formitemWidth,debrief_formresponse,debrief_formrt,phases.thisRepN,phases.thisTrialN,phases.thisN,phases.thisIndex,phases.ran,phases.order,phase,key_resp_3.keys,trustitemText,trusttype,trustitemWidth,trustindex,trustresponse,trustrt,support_status.thisRepN,support_status.thisTrialN,support_status.thisN,support_status.thisIndex,support_status.ran,support_status.order,key_resp_5.keys,key_resp_5.rt,globalClockTime,userAgent
TRUE,Juan LZU,001,2022-04-28_18h19.25.111,classification_task,2021.2.3,Win32,59.99880002,5f7226dd35ca1810df602df9,626b377229c10585ec392f89,626b39cf7d43fa1b9a30a58c,,,,,,,,,,,,,,,,,,,,,,,,,,,,,,,,,,,,,,,,,,,,,,,,,,,,,,,,,,,,,,,,,,,,
,Juan LZU,001,2022-04-28_18h19.25.111,classification_task,2021.2.3,Win32,59.99880002,5f7226dd35ca1810df602df9,626b377229c10585ec392f89,626b39cf7d43fa1b9a30a58c,"[[""0.209"",""0.536"",""0.887"",""0.937""],[""0.317"",""0.379"",""0.648"",""0.851""]]","[[""0.134"",""0.269"",""0.599"",""0.707""],[""0.082"",""0.424"",""0.474"",""0.749""]]","[1,10]","[100,1000]",Video game experience,,,0.7,0,,,,,,,,,,,,,,,,,,,,,,,,,,,,,,,,,,,,,,,,,,,,,,,,,,,,,,,,,,,
,Juan LZU,001,2022-04-28_18h19.25.111,classification_task,2021.2.3,Win32,59.99880002,5f7226dd35ca1810df602df9,626b377229c10585ec392f89,626b39cf7d43fa1b9a30a58c,,,,,Approximately how many hours did you spend playing video games in the last week?,,,0.7,0,5 hours,,,,,,,,,,,,,,,,,,,,,,,,,,,,,,,,,,,,,,,,,,,,,,,,,,,,,,,,,,
,Juan LZU,001,2022-04-28_18h19.25.111,classification_task,2021.2.3,Win32,59.99880002,5f7226dd35ca1810df602df9,626b377229c10585ec392f89,626b39cf7d43fa1b9a30a58c,,,,,"Which game did you play the most this year? (Enter ""None"" if you didn't play any)",,,0.7,0,Apex Legends,,,,,,,,,,,,,,,,,,,,,,,,,,,,,,,,,,,,,,,,,,,,,,,,,,,,,,,,,,
,Juan LZU,001,2022-04-28_18h19.25.111,classification_task,2021.2.3,Win32,59.99880002,5f7226dd35ca1810df602df9,626b377229c10585ec392f89,626b39cf7d43fa1b9a30a58c,,,,,Visual perception,,,0.7,0,,,,,,,,,,,,,,,,,,,,,,,,,,,,,,,,,,,,,,,,,,,,,,,,,,,,,,,,,,,
,Juan LZU,001,2022-04-28_18h19.25.111,classification_task,2021.2.3,Win32,59.99880002,5f7226dd35ca1810df602df9,626b377229c10585ec392f89,626b39cf7d43fa1b9a30a58c,,,,,Do you have any form of color blindness?,,,0.7,0,No,15.8507,,,,,,,,,,,,,,,,,,,,,,,,,,,,,,,,,,,,,,,,,,,,,,,,,,,,,,,,,
,Juan LZU,001,2022-04-28_18h19.25.111,classification_task,2021.2.3,Win32,59.99880002,5f7226dd35ca1810df602df9,626b377229c10585ec392f89,626b39cf7d43fa1b9a30a58c,,,,,Do you use software to change the colour temperature of your screen (e.g. f.lux)?,,,0.7,0,No,18.3222,,,,,,,,,,,,,,,,,,,,,,,,,,,,,,,,,,,,,,,,,,,,,,,,,,,,,,,,,
,Juan LZU,001,2022-04-28_18h19.25.111,classification_task,2021.2.3,Win32,59.99880002,5f7226dd35ca1810df602df9,626b377229c10585ec392f89,626b39cf7d43fa1b9a30a58c,,,,,,,,,,,,space,30.9288,space,6.7447,0,0,0,0,1,,,,,,,,,,,,,,,,,,,,,,,,,,,,,,,,,,,,,,,,,,,,,,,,
,Juan LZU,001,2022-04-28_18h19.25.111,classification_task,2021.2.3,Win32,59.99880002,5f7226dd35ca1810df602df9,626b377229c10585ec392f89,626b39cf7d43fa1b9a30a58c,,,,,,,,,,,,,,space,12.1914,1,0,1,0,1,,,,,,,,,,,,,,,,,,,,,,,,,,,,,,,,,,,,,,,,,,,,,,,,
,Juan LZU,001,2022-04-28_18h19.25.111,classification_task,2021.2.3,Win32,59.99880002,5f7226dd35ca1810df602df9,626b377229c10585ec392f89,626b39cf7d43fa1b9a30a58c,,,,,,,,,,,,,,space,18.1686,2,0,2,0,1,,,,,,,,,,,,,,,,,,,,,,,,,,,,,,,,,,,,,,,,,,,,,,,,
,Juan LZU,001,2022-04-28_18h19.25.111,classification_task,2021.2.3,Win32,59.99880002,5f7226dd35ca1810df602df9,626b377229c10585ec392f89,626b39cf7d43fa1b9a30a58c,,,,,,,,,,,,,,space,21.2255,3,0,3,0,1,,,,,,,,,,,,,,,,,,,,,,,,,,,,,,,,,,,,,,,,,,,,,,,,
,Juan LZU,001,2022-04-28_18h19.25.111,classification_task,2021.2.3,Win32,59.99880002,5f7226dd35ca1810df602df9,626b377229c10585ec392f89,626b39cf7d43fa1b9a30a58c,,,,,,,,,,,,,,space,7.6052,4,0,4,0,1,,,,,,,,,,,,,,,,,,,,,,,,,,,,,,,,,,,,,,,,,,,,,,,,
,Juan LZU,001,2022-04-28_18h19.25.111,classification_task,2021.2.3,Win32,59.99880002,5f7226dd35ca1810df602df9,626b377229c10585ec392f89,626b39cf7d43fa1b9a30a58c,,,,,,,,,,,,,,,,,,,,,space,47.0701,,0,"[""0.134"",""0.269"",""0.599"",""0.035""]","[1,1,1,0]",0,0,0,0,1,1,0,,,1,FALSE,,,,,,,,,,,,,,,,,,,,,,,,,,,,,,,
,Juan LZU,001,2022-04-28_18h19.25.111,classification_task,2021.2.3,Win32,59.99880002,5f7226dd35ca1810df602df9,626b377229c10585ec392f89,626b39cf7d43fa1b9a30a58c,,,,,,,,,,,,,,,,,,,,,,,l,1,"[""0.082"",""0.424"",""0.796"",""0.749""]","[1,1,0,1]",0,1,1,1,1,1,1,,,1,FALSE,3.863,,,,,,,,,,,,,,,,,,,,,,,,,,,,,,
,Juan LZU,001,2022-04-28_18h19.25.111,classification_task,2021.2.3,Win32,59.99880002,5f7226dd35ca1810df602df9,626b377229c10585ec392f89,626b39cf7d43fa1b9a30a58c,,,,,,,,,,,,,,,,,,,,,,,l,0,"[""0.317"",""0.379"",""0.648"",""0.047""]","[1,1,1,0]",0,2,2,2,1,0,1,,,1,FALSE,2.1366,,,,,,,,,,,,,,,,,,,,,,,,,,,,,,
,Juan LZU,001,2022-04-28_18h19.25.111,classification_task,2021.2.3,Win32,59.99880002,5f7226dd35ca1810df602df9,626b377229c10585ec392f89,626b39cf7d43fa1b9a30a58c,,,,,,,,,,,,,,,,,,,,,,,a,1,"[""0.209"",""0.536"",""0.806"",""0.937""]","[1,1,0,1]",0,3,3,3,1,0,0,,,1,FALSE,2.4218,,,,,,,,,,,,,,,,,,,,,,,,,,,,,,
,Juan LZU,001,2022-04-28_18h19.25.111,classification_task,2021.2.3,Win32,59.99880002,5f7226dd35ca1810df602df9,626b377229c10585ec392f89,626b39cf7d43fa1b9a30a58c,,,,,,,,,,,,,,,,,,,,,,,l,1,"[""0.082"",""0.424"",""0.474"",""0.796""]","[1,1,1,0]",0,4,4,4,1,1,1,,,1,FALSE,3.8219,,,,,,,,,,,,,,,,,,,,,,,,,,,,,,
,Juan LZU,001,2022-04-28_18h19.25.111,classification_task,2021.2.3,Win32,59.99880002,5f7226dd35ca1810df602df9,626b377229c10585ec392f89,626b39cf7d43fa1b9a30a58c,,,,,,,,,,,,,,,,,,,,,,,a,1,"[""0.317"",""0.037"",""0.648"",""0.851""]","[1,0,1,1]",0,5,5,5,1,0,1,,,1,FALSE,3.9972,,,,,,,,,,,,,,,,,,,,,,,,,,,,,,
,Juan LZU,001,2022-04-28_18h19.25.111,classification_task,2021.2.3,Win32,59.99880002,5f7226dd35ca1810df602df9,626b377229c10585ec392f89,626b39cf7d43fa1b9a30a58c,,,,,,,,,,,,,,,,,,,,,,,a,1,"[""0.793"",""0.536"",""0.887"",""0.937""]","[0,1,1,1]",0,6,6,6,1,0,0,,,1,FALSE,5.2056,,,,,,,,,,,,,,,,,,,,,,,,,,,,,,
,Juan LZU,001,2022-04-28_18h19.25.111,classification_task,2021.2.3,Win32,59.99880002,5f7226dd35ca1810df602df9,626b377229c10585ec392f89,626b39cf7d43fa1b9a30a58c,,,,,,,,,,,,,,,,,,,,,,,a,1,"[""0.317"",""0.379"",""0.036"",""0.851""]","[1,1,0,1]",0,7,7,7,1,0,1,,,1,FALSE,4.6347,,,,,,,,,,,,,,,,,,,,,,,,,,,,,,
,Juan LZU,001,2022-04-28_18h19.25.111,classification_task,2021.2.3,Win32,59.99880002,5f7226dd35ca1810df602df9,626b377229c10585ec392f89,626b39cf7d43fa1b9a30a58c,,,,,,,,,,,,,,,,,,,,,,,l,1,"[""0.134"",""0.793"",""0.599"",""0.707""]","[1,0,1,1]",0,8,8,8,1,1,0,,,1,FALSE,5.254,,,,,,,,,,,,,,,,,,,,,,,,,,,,,,
,Juan LZU,001,2022-04-28_18h19.25.111,classification_task,2021.2.3,Win32,59.99880002,5f7226dd35ca1810df602df9,626b377229c10585ec392f89,626b39cf7d43fa1b9a30a58c,,,,,,,,,,,,,,,,,,,,,,,l,1,"[""0.082"",""0.035"",""0.474"",""0.749""]","[1,0,1,1]",0,9,9,9,1,1,1,,,1,FALSE,2.5872,,,,,,,,,,,,,,,,,,,,,,,,,,,,,,
,Juan LZU,001,2022-04-28_18h19.25.111,classification_task,2021.2.3,Win32,59.99880002,5f7226dd35ca1810df602df9,626b377229c10585ec392f89,626b39cf7d43fa1b9a30a58c,,,,,,,,,,,,,,,,,,,,,,,a,1,"[""0.209"",""0.796"",""0.887"",""0.937""]","[1,0,1,1]",0,10,10,10,1,0,0,,,1,FALSE,6.019,,,,,,,,,,,,,,,,,,,,,,,,,,,,,,
,Juan LZU,001,2022-04-28_18h19.25.111,classification_task,2021.2.3,Win32,59.99880002,5f7226dd35ca1810df602df9,626b377229c10585ec392f89,626b39cf7d43fa1b9a30a58c,,,,,,,,,,,,,,,,,,,,,,,a,1,"[""0.045"",""0.379"",""0.648"",""0.851""]","[0,1,1,1]",0,11,11,11,1,0,1,,,1,FALSE,6.0376,,,,,,,,,,,,,,,,,,,,,,,,,,,,,,
,Juan LZU,001,2022-04-28_18h19.25.111,classification_task,2021.2.3,Win32,59.99880002,5f7226dd35ca1810df602df9,626b377229c10585ec392f89,626b39cf7d43fa1b9a30a58c,,,,,,,,,,,,,,,,,,,,,,,l,1,"[""0.134"",""0.269"",""0.801"",""0.707""]","[1,1,0,1]",0,12,12,12,1,1,0,,,1,FALSE,5.7055,,,,,,,,,,,,,,,,,,,,,,,,,,,,,,
,Juan LZU,001,2022-04-28_18h19.25.111,classification_task,2021.2.3,Win32,59.99880002,5f7226dd35ca1810df602df9,626b377229c10585ec392f89,626b39cf7d43fa1b9a30a58c,,,,,,,,,,,,,,,,,,,,,,,l,0,"[""0.209"",""0.536"",""0.887"",""0.037""]","[1,1,1,0]",0,13,13,13,1,0,0,,,1,FALSE,4.5317,,,,,,,,,,,,,,,,,,,,,,,,,,,,,,
,Juan LZU,001,2022-04-28_18h19.25.111,classification_task,2021.2.3,Win32,59.99880002,5f7226dd35ca1810df602df9,626b377229c10585ec392f89,626b39cf7d43fa1b9a30a58c,,,,,,,,,,,,,,,,,,,,,,,a,0,"[""0.803"",""0.424"",""0.474"",""0.749""]","[0,1,1,1]",0,14,14,14,1,1,1,,,1,FALSE,7.869,,,,,,,,,,,,,,,,,,,,,,,,,,,,,,
,Juan LZU,001,2022-04-28_18h19.25.111,classification_task,2021.2.3,Win32,59.99880002,5f7226dd35ca1810df602df9,626b377229c10585ec392f89,626b39cf7d43fa1b9a30a58c,,,,,,,,,,,,,,,,,,,,,,,l,1,"[""0.796"",""0.269"",""0.599"",""0.707""]","[0,1,1,1]",0,15,15,15,1,1,0,,,1,FALSE,7.8638,,,,,,,,,,,,,,,,,,,,,,,,,,,,,,
,Juan LZU,001,2022-04-28_18h19.25.111,classification_task,2021.2.3,Win32,59.99880002,5f7226dd35ca1810df602df9,626b377229c10585ec392f89,626b39cf7d43fa1b9a30a58c,,,,,,,,,,,,,,,,,,,,,,,l,1,"[""0.082"",""0.424"",""0.796"",""0.749""]","[1,1,0,1]",0,16,16,16,1,1,1,,,1,FALSE,6.9136,,,,,,,,,,,,,,,,,,,,,,,,,,,,,,
,Juan LZU,001,2022-04-28_18h19.25.111,classification_task,2021.2.3,Win32,59.99880002,5f7226dd35ca1810df602df9,626b377229c10585ec392f89,626b39cf7d43fa1b9a30a58c,,,,,,,,,,,,,,,,,,,,,,,a,1,"[""0.317"",""0.035"",""0.648"",""0.851""]","[1,0,1,1]",0,17,17,17,1,0,1,,,1,FALSE,8.4437,,,,,,,,,,,,,,,,,,,,,,,,,,,,,,
,Juan LZU,001,2022-04-28_18h19.25.111,classification_task,2021.2.3,Win32,59.99880002,5f7226dd35ca1810df602df9,626b377229c10585ec392f89,626b39cf7d43fa1b9a30a58c,,,,,,,,,,,,,,,,,,,,,,,l,1,"[""0.082"",""0.424"",""0.474"",""0.043""]","[1,1,1,0]",0,18,18,18,1,1,1,,,1,FALSE,7.6632,,,,,,,,,,,,,,,,,,,,,,,,,,,,,,
,Juan LZU,001,2022-04-28_18h19.25.111,classification_task,2021.2.3,Win32,59.99880002,5f7226dd35ca1810df602df9,626b377229c10585ec392f89,626b39cf7d43fa1b9a30a58c,,,,,,,,,,,,,,,,,,,,,,,a,1,"[""0.025"",""0.379"",""0.648"",""0.851""]","[0,1,1,1]",0,19,19,19,1,0,1,,,1,FALSE,7.7794,,,,,,,,,,,,,,,,,,,,,,,,,,,,,,
,Juan LZU,001,2022-04-28_18h19.25.111,classification_task,2021.2.3,Win32,59.99880002,5f7226dd35ca1810df602df9,626b377229c10585ec392f89,626b39cf7d43fa1b9a30a58c,,,,,,,,,,,,,,,,,,,,,,,,0,"[""0.134"",""0.174"",""0.599"",""0.707""]","[1,0,1,1]",0,20,20,20,1,1,0,,,1,FALSE,,,,,,,,,,,,,,,,,,,,,,,,,,,,,,,
,Juan LZU,001,2022-04-28_18h19.25.111,classification_task,2021.2.3,Win32,59.99880002,5f7226dd35ca1810df602df9,626b377229c10585ec392f89,626b39cf7d43fa1b9a30a58c,,,,,,,,,,,,,,,,,,,,,,,l,1,"[""0.134"",""0.269"",""0.599"",""0.036""]","[1,1,1,0]",0,21,21,21,1,1,0,,,1,FALSE,7.5065,,,,,,,,,,,,,,,,,,,,,,,,,,,,,,
,Juan LZU,001,2022-04-28_18h19.25.111,classification_task,2021.2.3,Win32,59.99880002,5f7226dd35ca1810df602df9,626b377229c10585ec392f89,626b39cf7d43fa1b9a30a58c,,,,,,,,,,,,,,,,,,,,,,,l,0,"[""0.209"",""0.536"",""0.887"",""0.174""]","[1,1,1,0]",0,22,22,22,1,0,0,,,1,FALSE,5.4608,,,,,,,,,,,,,,,,,,,,,,,,,,,,,,
,Juan LZU,001,2022-04-28_18h19.25.111,classification_task,2021.2.3,Win32,59.99880002,5f7226dd35ca1810df602df9,626b377229c10585ec392f89,626b39cf7d43fa1b9a30a58c,,,,,,,,,,,,,,,,,,,,,,,l,1,"[""0.082"",""0.807"",""0.474"",""0.749""]","[1,0,1,1]",0,23,23,23,1,1,1,,,1,FALSE,8.0843,,,,,,,,,,,,,,,,,,,,,,,,,,,,,,
,Juan LZU,001,2022-04-28_18h19.25.111,classification_task,2021.2.3,Win32,59.99880002,5f7226dd35ca1810df602df9,626b377229c10585ec392f89,626b39cf7d43fa1b9a30a58c,,,,,,,,,,,,,,,,,,,,,,,l,1,"[""0.134"",""0.269"",""0.035"",""0.707""]","[1,1,0,1]",0,24,24,24,1,1,0,,,1,FALSE,8.0627,,,,,,,,,,,,,,,,,,,,,,,,,,,,,,
,Juan LZU,001,2022-04-28_18h19.25.111,classification_task,2021.2.3,Win32,59.99880002,5f7226dd35ca1810df602df9,626b377229c10585ec392f89,626b39cf7d43fa1b9a30a58c,,,,,,,,,,,,,,,,,,,,,,,,0,"[""0.209"",""0.174"",""0.887"",""0.937""]","[1,0,1,1]",0,25,25,25,1,0,0,,,1,FALSE,,,,,,,,,,,,,,,,,,,,,,,,,,,,,,,
,Juan LZU,001,2022-04-28_18h19.25.111,classification_task,2021.2.3,Win32,59.99880002,5f7226dd35ca1810df602df9,626b377229c10585ec392f89,626b39cf7d43fa1b9a30a58c,,,,,,,,,,,,,,,,,,,,,,,a,1,"[""0.317"",""0.379"",""0.648"",""0.796""]","[1,1,1,0]",0,26,26,26,1,0,1,,,1,FALSE,4.9877,,,,,,,,,,,,,,,,,,,,,,,,,,,,,,
,Juan LZU,001,2022-04-28_18h19.25.111,classification_task,2021.2.3,Win32,59.99880002,5f7226dd35ca1810df602df9,626b377229c10585ec392f89,626b39cf7d43fa1b9a30a58c,,,,,,,,,,,,,,,,,,,,,,,l,1,"[""0.036"",""0.424"",""0.474"",""0.749""]","[0,1,1,1]",0,27,27,27,1,1,1,,,1,FALSE,8.5125,,,,,,,,,,,,,,,,,,,,,,,,,,,,,,
,Juan LZU,001,2022-04-28_18h19.25.111,classification_task,2021.2.3,Win32,59.99880002,5f7226dd35ca1810df602df9,626b377229c10585ec392f89,626b39cf7d43fa1b9a30a58c,,,,,,,,,,,,,,,,,,,,,,,l,1,"[""0.790"",""0.269"",""0.599"",""0.707""]","[0,1,1,1]",0,28,28,28,1,1,0,,,1,FALSE,8.7486,,,,,,,,,,,,,,,,,,,,,,,,,,,,,,
,Juan LZU,001,2022-04-28_18h19.25.111,classification_task,2021.2.3,Win32,59.99880002,5f7226dd35ca1810df602df9,626b377229c10585ec392f89,626b39cf7d43fa1b9a30a58c,,,,,,,,,,,,,,,,,,,,,,,,0,"[""0.801"",""0.536"",""0.887"",""0.937""]","[0,1,1,1]",0,29,29,29,1,0,0,,,1,FALSE,,,,,,,,,,,,,,,,,,,,,,,,,,,,,,,
,Juan LZU,001,2022-04-28_18h19.25.111,classification_task,2021.2.3,Win32,59.99880002,5f7226dd35ca1810df602df9,626b377229c10585ec392f89,626b39cf7d43fa1b9a30a58c,,,,,,,,,,,,,,,,,,,,,,,a,1,"[""0.209"",""0.536"",""0.796"",""0.937""]","[1,1,0,1]",0,30,30,30,1,0,0,,,1,FALSE,6.0113,,,,,,,,,,,,,,,,,,,,,,,,,,,,,,
,Juan LZU,001,2022-04-28_18h19.25.111,classification_task,2021.2.3,Win32,59.99880002,5f7226dd35ca1810df602df9,626b377229c10585ec392f89,626b39cf7d43fa1b9a30a58c,,,,,,,,,,,,,,,,,,,,,,,l,0,"[""0.317"",""0.379"",""0.025"",""0.851""]","[1,1,0,1]",0,31,31,31,1,0,1,,,1,FALSE,8.4737,,,,,,,,,,,,,,,,,,,,,,,,,,,,,,
,Juan LZU,001,2022-04-28_18h19.25.111,classification_task,2021.2.3,Win32,59.99880002,5f7226dd35ca1810df602df9,626b377229c10585ec392f89,626b39cf7d43fa1b9a30a58c,,,,,,,,,,,,,,,,,,,,,,,a,1,"[""0.317"",""0.174"",""0.648"",""0.851""]","[1,0,1,1]",0,32,32,32,1,0,1,,,1,FALSE,8.5981,,,,,,,,,,,,,,,,,,,,,,,,,,,,,,
,Juan LZU,001,2022-04-28_18h19.25.111,classification_task,2021.2.3,Win32,59.99880002,5f7226dd35ca1810df602df9,626b377229c10585ec392f89,626b39cf7d43fa1b9a30a58c,,,,,,,,,,,,,,,,,,,,,,,l,1,"[""0.134"",""0.269"",""0.599"",""0.035""]","[1,1,1,0]",0,33,33,33,1,1,0,,,1,FALSE,8.5774,,,,,,,,,,,,,,,,,,,,,,,,,,,,,,
,Juan LZU,001,2022-04-28_18h19.25.111,classification_task,2021.2.3,Win32,59.99880002,5f7226dd35ca1810df602df9,626b377229c10585ec392f89,626b39cf7d43fa1b9a30a58c,,,,,,,,,,,,,,,,,,,,,,,a,1,"[""0.796"",""0.379"",""0.648"",""0.851""]","[0,1,1,1]",0,34,34,34,1,0,1,,,1,FALSE,6.7052,,,,,,,,,,,,,,,,,,,,,,,,,,,,,,
,Juan LZU,001,2022-04-28_18h19.25.111,classification_task,2021.2.3,Win32,59.99880002,5f7226dd35ca1810df602df9,626b377229c10585ec392f89,626b39cf7d43fa1b9a30a58c,,,,,,,,,,,,,,,,,,,,,,,l,1,"[""0.082"",""0.424"",""0.045"",""0.749""]","[1,1,0,1]",0,35,35,35,1,1,1,,,1,FALSE,4.6936,,,,,,,,,,,,,,,,,,,,,,,,,,,,,,
,Juan LZU,001,2022-04-28_18h19.25.111,classification_task,2021.2.3,Win32,59.99880002,5f7226dd35ca1810df602df9,626b377229c10585ec392f89,626b39cf7d43fa1b9a30a58c,,,,,,,,,,,,,,,,,,,,,,,l,1,"[""0.082"",""0.174"",""0.474"",""0.749""]","[1,0,1,1]",0,36,36,36,1,1,1,,,1,FALSE,4.844,,,,,,,,,,,,,,,,,,,,,,,,,,,,,,
,Juan LZU,001,2022-04-28_18h19.25.111,classification_task,2021.2.3,Win32,59.99880002,5f7226dd35ca1810df602df9,626b377229c10585ec392f89,626b39cf7d43fa1b9a30a58c,,,,,,,,,,,,,,,,,,,,,,,l,0,"[""0.209"",""0.536"",""0.036"",""0.937""]","[1,1,0,1]",0,37,37,37,1,0,0,,,1,FALSE,4.1127,,,,,,,,,,,,,,,,,,,,,,,,,,,,,,
,Juan LZU,001,2022-04-28_18h19.25.111,classification_task,2021.2.3,Win32,59.99880002,5f7226dd35ca1810df602df9,626b377229c10585ec392f89,626b39cf7d43fa1b9a30a58c,,,,,,,,,,,,,,,,,,,,,,,l,0,"[""0.025"",""0.536"",""0.887"",""0.937""]","[0,1,1,1]",0,38,38,38,1,0,0,,,1,FALSE,2.1967,,,,,,,,,,,,,,,,,,,,,,,,,,,,,,
,Juan LZU,001,2022-04-28_18h19.25.111,classification_task,2021.2.3,Win32,59.99880002,5f7226dd35ca1810df602df9,626b377229c10585ec392f89,626b39cf7d43fa1b9a30a58c,,,,,,,,,,,,,,,,,,,,,,,l,0,"[""0.317"",""0.379"",""0.803"",""0.851""]","[1,1,0,1]",0,39,39,39,1,0,1,,,1,FALSE,4.9643,,,,,,,,,,,,,,,,,,,,,,,,,,,,,,
,Juan LZU,001,2022-04-28_18h19.25.111,classification_task,2021.2.3,Win32,59.99880002,5f7226dd35ca1810df602df9,626b377229c10585ec392f89,626b39cf7d43fa1b9a30a58c,,,,,,,,,,,,,,,,,,,,,,,a,0,"[""0.025"",""0.424"",""0.474"",""0.749""]","[0,1,1,1]",0,40,40,40,1,1,1,,,1,FALSE,4.7303,,,,,,,,,,,,,,,,,,,,,,,,,,,,,,
,Juan LZU,001,2022-04-28_18h19.25.111,classification_task,2021.2.3,Win32,59.99880002,5f7226dd35ca1810df602df9,626b377229c10585ec392f89,626b39cf7d43fa1b9a30a58c,,,,,,,,,,,,,,,,,,,,,,,a,0,"[""0.134"",""0.025"",""0.599"",""0.707""]","[1,0,1,1]",0,41,41,41,1,1,0,,,1,FALSE,3.5995,,,,,,,,,,,,,,,,,,,,,,,,,,,,,,
,Juan LZU,001,2022-04-28_18h19.25.111,classification_task,2021.2.3,Win32,59.99880002,5f7226dd35ca1810df602df9,626b377229c10585ec392f89,626b39cf7d43fa1b9a30a58c,,,,,,,,,,,,,,,,,,,,,,,l,0,"[""0.317"",""0.379"",""0.648"",""0.807""]","[1,1,1,0]",0,42,42,42,1,0,1,,,1,FALSE,5.7307,,,,,,,,,,,,,,,,,,,,,,,,,,,,,,
,Juan LZU,001,2022-04-28_18h19.25.111,classification_task,2021.2.3,Win32,59.99880002,5f7226dd35ca1810df602df9,626b377229c10585ec392f89,626b39cf7d43fa1b9a30a58c,,,,,,,,,,,,,,,,,,,,,,,l,1,"[""0.082"",""0.424"",""0.474"",""0.803""]","[1,1,1,0]",0,43,43,43,1,1,1,,,1,FALSE,2.9285,,,,,,,,,,,,,,,,,,,,,,,,,,,,,,
,Juan LZU,001,2022-04-28_18h19.25.111,classification_task,2021.2.3,Win32,59.99880002,5f7226dd35ca1810df602df9,626b377229c10585ec392f89,626b39cf7d43fa1b9a30a58c,,,,,,,,,,,,,,,,,,,,,,,a,1,"[""0.209"",""0.801"",""0.887"",""0.937""]","[1,0,1,1]",0,44,44,44,1,0,0,,,1,FALSE,1.4162,,,,,,,,,,,,,,,,,,,,,,,,,,,,,,
,Juan LZU,001,2022-04-28_18h19.25.111,classification_task,2021.2.3,Win32,59.99880002,5f7226dd35ca1810df602df9,626b377229c10585ec392f89,626b39cf7d43fa1b9a30a58c,,,,,,,,,,,,,,,,,,,,,,,a,0,"[""0.134"",""0.269"",""0.796"",""0.707""]","[1,1,0,1]",0,45,45,45,1,1,0,,,1,FALSE,1.4657,,,,,,,,,,,,,,,,,,,,,,,,,,,,,,
,Juan LZU,001,2022-04-28_18h19.25.111,classification_task,2021.2.3,Win32,59.99880002,5f7226dd35ca1810df602df9,626b377229c10585ec392f89,626b39cf7d43fa1b9a30a58c,,,,,,,,,,,,,,,,,,,,,,,l,1,"[""0.806"",""0.269"",""0.599"",""0.707""]","[0,1,1,1]",0,46,46,46,1,1,0,,,1,FALSE,5.2809,,,,,,,,,,,,,,,,,,,,,,,,,,,,,,
,Juan LZU,001,2022-04-28_18h19.25.111,classification_task,2021.2.3,Win32,59.99880002,5f7226dd35ca1810df602df9,626b377229c10585ec392f89,626b39cf7d43fa1b9a30a58c,,,,,,,,,,,,,,,,,,,,,,,a,1,"[""0.209"",""0.536"",""0.887"",""0.806""]","[1,1,1,0]",0,47,47,47,1,0,0,,,1,FALSE,2.3147,,,,,,,,,,,,,,,,,,,,,,,,,,,,,,
,Juan LZU,001,2022-04-28_18h19.25.111,classification_task,2021.2.3,Win32,59.99880002,5f7226dd35ca1810df602df9,626b377229c10585ec392f89,626b39cf7d43fa1b9a30a58c,,,,,,,,,,,,,,,,,,,,,,,,0,"[""0.036"",""0.424"",""0.474"",""0.749""]","[0,1,1,1]",0,48,48,48,1,1,1,,,1,FALSE,,,,,,,,,,,,,,,,,,,,,,,,,,,,,,,
,Juan LZU,001,2022-04-28_18h19.25.111,classification_task,2021.2.3,Win32,59.99880002,5f7226dd35ca1810df602df9,626b377229c10585ec392f89,626b39cf7d43fa1b9a30a58c,,,,,,,,,,,,,,,,,,,,,,,a,1,"[""0.209"",""0.045"",""0.887"",""0.937""]","[1,0,1,1]",0,49,49,49,1,0,0,,,1,FALSE,3.9278,,,,,,,,,,,,,,,,,,,,,,,,,,,,,,
,Juan LZU,001,2022-04-28_18h19.25.111,classification_task,2021.2.3,Win32,59.99880002,5f7226dd35ca1810df602df9,626b377229c10585ec392f89,626b39cf7d43fa1b9a30a58c,,,,,,,,,,,,,,,,,,,,,,,l,0,"[""0.790"",""0.379"",""0.648"",""0.851""]","[0,1,1,1]",0,50,50,50,1,0,1,,,1,FALSE,4.4886,,,,,,,,,,,,,,,,,,,,,,,,,,,,,,
,Juan LZU,001,2022-04-28_18h19.25.111,classification_task,2021.2.3,Win32,59.99880002,5f7226dd35ca1810df602df9,626b377229c10585ec392f89,626b39cf7d43fa1b9a30a58c,,,,,,,,,,,,,,,,,,,,,,,l,0,"[""0.801"",""0.536"",""0.887"",""0.937""]","[0,1,1,1]",0,51,51,51,1,0,0,,,1,FALSE,1.2144,,,,,,,,,,,,,,,,,,,,,,,,,,,,,,
,Juan LZU,001,2022-04-28_18h19.25.111,classification_task,2021.2.3,Win32,59.99880002,5f7226dd35ca1810df602df9,626b377229c10585ec392f89,626b39cf7d43fa1b9a30a58c,,,,,,,,,,,,,,,,,,,,,,,l,0,"[""0.317"",""0.025"",""0.648"",""0.851""]","[1,0,1,1]",0,52,52,52,1,0,1,,,1,FALSE,3.4177,,,,,,,,,,,,,,,,,,,,,,,,,,,,,,
,Juan LZU,001,2022-04-28_18h19.25.111,classification_task,2021.2.3,Win32,59.99880002,5f7226dd35ca1810df602df9,626b377229c10585ec392f89,626b39cf7d43fa1b9a30a58c,,,,,,,,,,,,,,,,,,,,,,,a,0,"[""0.134"",""0.269"",""0.807"",""0.707""]","[1,1,0,1]",0,53,53,53,1,1,0,,,1,FALSE,4.529,,,,,,,,,,,,,,,,,,,,,,,,,,,,,,
,Juan LZU,001,2022-04-28_18h19.25.111,classification_task,2021.2.3,Win32,59.99880002,5f7226dd35ca1810df602df9,626b377229c10585ec392f89,626b39cf7d43fa1b9a30a58c,,,,,,,,,,,,,,,,,,,,,,,a,1,"[""0.317"",""0.379"",""0.043"",""0.851""]","[1,1,0,1]",0,54,54,54,1,0,1,,,1,FALSE,1.4467,,,,,,,,,,,,,,,,,,,,,,,,,,,,,,
,Juan LZU,001,2022-04-28_18h19.25.111,classification_task,2021.2.3,Win32,59.99880002,5f7226dd35ca1810df602df9,626b377229c10585ec392f89,626b39cf7d43fa1b9a30a58c,,,,,,,,,,,,,,,,,,,,,,,a,0,"[""0.082"",""0.174"",""0.474"",""0.749""]","[1,0,1,1]",0,55,55,55,1,1,1,,,1,FALSE,1.7665,,,,,,,,,,,,,,,,,,,,,,,,,,,,,,
,Juan LZU,001,2022-04-28_18h19.25.111,classification_task,2021.2.3,Win32,59.99880002,5f7226dd35ca1810df602df9,626b377229c10585ec392f89,626b39cf7d43fa1b9a30a58c,,,,,,,,,,,,,,,,,,,,,,,l,0,"[""0.209"",""0.536"",""0.887"",""0.801""]","[1,1,1,0]",0,56,56,56,1,0,0,,,1,FALSE,1.2337,,,,,,,,,,,,,,,,,,,,,,,,,,,,,,
,Juan LZU,001,2022-04-28_18h19.25.111,classification_task,2021.2.3,Win32,59.99880002,5f7226dd35ca1810df602df9,626b377229c10585ec392f89,626b39cf7d43fa1b9a30a58c,,,,,,,,,,,,,,,,,,,,,,,l,0,"[""0.317"",""0.379"",""0.648"",""0.174""]","[1,1,1,0]",0,57,57,57,1,0,1,,,1,FALSE,4.58,,,,,,,,,,,,,,,,,,,,,,,,,,,,,,
,Juan LZU,001,2022-04-28_18h19.25.111,classification_task,2021.2.3,Win32,59.99880002,5f7226dd35ca1810df602df9,626b377229c10585ec392f89,626b39cf7d43fa1b9a30a58c,,,,,,,,,,,,,,,,,,,,,,,l,1,"[""0.082"",""0.424"",""0.803"",""0.749""]","[1,1,0,1]",0,58,58,58,1,1,1,,,1,FALSE,4.1494,,,,,,,,,,,,,,,,,,,,,,,,,,,,,,
,Juan LZU,001,2022-04-28_18h19.25.111,classification_task,2021.2.3,Win32,59.99880002,5f7226dd35ca1810df602df9,626b377229c10585ec392f89,626b39cf7d43fa1b9a30a58c,,,,,,,,,,,,,,,,,,,,,,,a,0,"[""0.134"",""0.793"",""0.599"",""0.707""]","[1,0,1,1]",0,59,59,59,1,1,0,,,1,FALSE,2.593,,,,,,,,,,,,,,,,,,,,,,,,,,,,,,
,Juan LZU,001,2022-04-28_18h19.25.111,classification_task,2021.2.3,Win32,59.99880002,5f7226dd35ca1810df602df9,626b377229c10585ec392f89,626b39cf7d43fa1b9a30a58c,,,,,,,,,,,,,,,,,,,,,,,a,0,"[""0.790"",""0.269"",""0.599"",""0.707""]","[0,1,1,1]",0,60,60,60,1,1,0,,,1,FALSE,2.2932,,,,,,,,,,,,,,,,,,,,,,,,,,,,,,
,Juan LZU,001,2022-04-28_18h19.25.111,classification_task,2021.2.3,Win32,59.99880002,5f7226dd35ca1810df602df9,626b377229c10585ec392f89,626b39cf7d43fa1b9a30a58c,,,,,,,,,,,,,,,,,,,,,,,a,1,"[""0.209"",""0.536"",""0.036"",""0.937""]","[1,1,0,1]",0,61,61,61,1,0,0,,,1,FALSE,2.1661,,,,,,,,,,,,,,,,,,,,,,,,,,,,,,
,Juan LZU,001,2022-04-28_18h19.25.111,classification_task,2021.2.3,Win32,59.99880002,5f7226dd35ca1810df602df9,626b377229c10585ec392f89,626b39cf7d43fa1b9a30a58c,,,,,,,,,,,,,,,,,,,,,,,l,1,"[""0.134"",""0.269"",""0.599"",""0.793""]","[1,1,1,0]",0,62,62,62,1,1,0,,,1,FALSE,1.5814,,,,,,,,,,,,,,,,,,,,,,,,,,,,,,
,Juan LZU,001,2022-04-28_18h19.25.111,classification_task,2021.2.3,Win32,59.99880002,5f7226dd35ca1810df602df9,626b377229c10585ec392f89,626b39cf7d43fa1b9a30a58c,,,,,,,,,,,,,,,,,,,,,,,l,1,"[""0.082"",""0.424"",""0.474"",""0.790""]","[1,1,1,0]",0,63,63,63,1,1,1,,,1,FALSE,2.7483,,,,,,,,,,,,,,,,,,,,,,,,,,,,,,
,Juan LZU,001,2022-04-28_18h19.25.111,classification_task,2021.2.3,Win32,59.99880002,5f7226dd35ca1810df602df9,626b377229c10585ec392f89,626b39cf7d43fa1b9a30a58c,,,,,,,,,,,,,,,,,,,,,,,,,,,,,,,,,,,,,,,0, ,,0,1.520888448,612.563,0,0,0,0,1,2,1,,,,,,,,,,,,,,,,,
,Juan LZU,001,2022-04-28_18h19.25.111,classification_task,2021.2.3,Win32,59.99880002,5f7226dd35ca1810df602df9,626b377229c10585ec392f89,626b39cf7d43fa1b9a30a58c,,,,,,,,,,,,,,,,,,,,,,,,,,,,,,,,,,,,,,,1,  ,,0,6.929012346,618.8524,0,0,0,0,1,2,1,,,,,,,,,,,,,,,,,
,Juan LZU,001,2022-04-28_18h19.25.111,classification_task,2021.2.3,Win32,59.99880002,5f7226dd35ca1810df602df9,626b377229c10585ec392f89,626b39cf7d43fa1b9a30a58c,,,,,,,,,,,,,,,,,,,,,,,,,,,,,,,,,,,,,,,2,  ,,0,7.514605379,630.4174,0,0,0,0,1,2,1,,,,,,,,,,,,,,,,,
,Juan LZU,001,2022-04-28_18h19.25.111,classification_task,2021.2.3,Win32,59.99880002,5f7226dd35ca1810df602df9,626b377229c10585ec392f89,626b39cf7d43fa1b9a30a58c,,,,,,,,,,,,,,,,,,,,,,,,,,,,,,,,,,,,,,,,,,,,,0,0,0,0,1,,1,,,,,,,,,,,,,,,,,
,Juan LZU,001,2022-04-28_18h19.25.111,classification_task,2021.2.3,Win32,59.99880002,5f7226dd35ca1810df602df9,626b377229c10585ec392f89,626b39cf7d43fa1b9a30a58c,,,,,,,,,,,,,,,,,,,,,space,14.7908,l,0,"[""0.025"",""0.536"",""0.887"",""0.937""]","[0,1,1,1]",0,0,0,0,1,0,0,,,1,FALSE,8.2532,,,,,,,,,,,,,,,,,,,,,,,,,,,,,,
,Juan LZU,001,2022-04-28_18h19.25.111,classification_task,2021.2.3,Win32,59.99880002,5f7226dd35ca1810df602df9,626b377229c10585ec392f89,626b39cf7d43fa1b9a30a58c,,,,,,,,,,,,,,,,,,,,,,,a,1,"[""0.209"",""0.536"",""0.887"",""0.043""]","[1,1,1,0]",0,1,1,1,1,0,0,,,1,FALSE,8.0417,,,,,,,,,,,,,,,,,,,,,,,,,,,,,,
,Juan LZU,001,2022-04-28_18h19.25.111,classification_task,2021.2.3,Win32,59.99880002,5f7226dd35ca1810df602df9,626b377229c10585ec392f89,626b39cf7d43fa1b9a30a58c,,,,,,,,,,,,,,,,,,,,,,,l,1,"[""0.134"",""0.269"",""0.035"",""0.707""]","[1,1,0,1]",0,2,2,2,1,1,0,,,1,FALSE,4.951,,,,,,,,,,,,,,,,,,,,,,,,,,,,,,
,Juan LZU,001,2022-04-28_18h19.25.111,classification_task,2021.2.3,Win32,59.99880002,5f7226dd35ca1810df602df9,626b377229c10585ec392f89,626b39cf7d43fa1b9a30a58c,,,,,,,,,,,,,,,,,,,,,,,a,1,"[""0.317"",""0.379"",""0.648"",""0.807""]","[1,1,1,0]",0,3,3,3,1,0,1,,,1,FALSE,9.5465,,,,,,,,,,,,,,,,,,,,,,,,,,,,,,
,Juan LZU,001,2022-04-28_18h19.25.111,classification_task,2021.2.3,Win32,59.99880002,5f7226dd35ca1810df602df9,626b377229c10585ec392f89,626b39cf7d43fa1b9a30a58c,,,,,,,,,,,,,,,,,,,,,,,l,1,"[""0.045"",""0.424"",""0.474"",""0.749""]","[0,1,1,1]",0,4,4,4,1,1,1,,,1,FALSE,7.9557,,,,,,,,,,,,,,,,,,,,,,,,,,,,,,
,Juan LZU,001,2022-04-28_18h19.25.111,classification_task,2021.2.3,Win32,59.99880002,5f7226dd35ca1810df602df9,626b377229c10585ec392f89,626b39cf7d43fa1b9a30a58c,,,,,,,,,,,,,,,,,,,,,,,a,1,"[""0.796"",""0.379"",""0.648"",""0.851""]","[0,1,1,1]",0,5,5,5,1,0,1,,,1,FALSE,4.4437,,,,,,,,,,,,,,,,,,,,,,,,,,,,,,
,Juan LZU,001,2022-04-28_18h19.25.111,classification_task,2021.2.3,Win32,59.99880002,5f7226dd35ca1810df602df9,626b377229c10585ec392f89,626b39cf7d43fa1b9a30a58c,,,,,,,,,,,,,,,,,,,,,,,l,0,"[""0.317"",""0.379"",""0.047"",""0.851""]","[1,1,0,1]",0,6,6,6,1,0,1,,,1,FALSE,0.5987,,,,,,,,,,,,,,,,,,,,,,,,,,,,,,
,Juan LZU,001,2022-04-28_18h19.25.111,classification_task,2021.2.3,Win32,59.99880002,5f7226dd35ca1810df602df9,626b377229c10585ec392f89,626b39cf7d43fa1b9a30a58c,,,,,,,,,,,,,,,,,,,,,,,l,1,"[""0.134"",""0.047"",""0.599"",""0.707""]","[1,0,1,1]",0,7,7,7,1,1,0,,,1,FALSE,1.0773,,,,,,,,,,,,,,,,,,,,,,,,,,,,,,
,Juan LZU,001,2022-04-28_18h19.25.111,classification_task,2021.2.3,Win32,59.99880002,5f7226dd35ca1810df602df9,626b377229c10585ec392f89,626b39cf7d43fa1b9a30a58c,,,,,,,,,,,,,,,,,,,,,,,a,0,"[""0.082"",""0.793"",""0.474"",""0.749""]","[1,0,1,1]",0,8,8,8,1,1,1,,,1,FALSE,1.1133,,,,,,,,,,,,,,,,,,,,,,,,,,,,,,
,Juan LZU,001,2022-04-28_18h19.25.111,classification_task,2021.2.3,Win32,59.99880002,5f7226dd35ca1810df602df9,626b377229c10585ec392f89,626b39cf7d43fa1b9a30a58c,,,,,,,,,,,,,,,,,,,,,,,a,1,"[""0.317"",""0.793"",""0.648"",""0.851""]","[1,0,1,1]",0,9,9,9,1,0,1,,,1,FALSE,3.0151,,,,,,,,,,,,,,,,,,,,,,,,,,,,,,
,Juan LZU,001,2022-04-28_18h19.25.111,classification_task,2021.2.3,Win32,59.99880002,5f7226dd35ca1810df602df9,626b377229c10585ec392f89,626b39cf7d43fa1b9a30a58c,,,,,,,,,,,,,,,,,,,,,,,a,0,"[""0.134"",""0.269"",""0.599"",""0.790""]","[1,1,1,0]",0,10,10,10,1,1,0,,,1,FALSE,2.3476,,,,,,,,,,,,,,,,,,,,,,,,,,,,,,
,Juan LZU,001,2022-04-28_18h19.25.111,classification_task,2021.2.3,Win32,59.99880002,5f7226dd35ca1810df602df9,626b377229c10585ec392f89,626b39cf7d43fa1b9a30a58c,,,,,,,,,,,,,,,,,,,,,,,l,0,"[""0.209"",""0.536"",""0.037"",""0.937""]","[1,1,0,1]",0,11,11,11,1,0,0,,,1,FALSE,1.7815,,,,,,,,,,,,,,,,,,,,,,,,,,,,,,
,Juan LZU,001,2022-04-28_18h19.25.111,classification_task,2021.2.3,Win32,59.99880002,5f7226dd35ca1810df602df9,626b377229c10585ec392f89,626b39cf7d43fa1b9a30a58c,,,,,,,,,,,,,,,,,,,,,,,l,1,"[""0.796"",""0.269"",""0.599"",""0.707""]","[0,1,1,1]",0,12,12,12,1,1,0,,,1,FALSE,1.5814,,,,,,,,,,,,,,,,,,,,,,,,,,,,,,
,Juan LZU,001,2022-04-28_18h19.25.111,classification_task,2021.2.3,Win32,59.99880002,5f7226dd35ca1810df602df9,626b377229c10585ec392f89,626b39cf7d43fa1b9a30a58c,,,,,,,,,,,,,,,,,,,,,,,a,0,"[""0.082"",""0.424"",""0.474"",""0.801""]","[1,1,1,0]",0,13,13,13,1,1,1,,,1,FALSE,1.711,,,,,,,,,,,,,,,,,,,,,,,,,,,,,,
,Juan LZU,001,2022-04-28_18h19.25.111,classification_task,2021.2.3,Win32,59.99880002,5f7226dd35ca1810df602df9,626b377229c10585ec392f89,626b39cf7d43fa1b9a30a58c,,,,,,,,,,,,,,,,,,,,,,,l,0,"[""0.209"",""0.806"",""0.887"",""0.937""]","[1,0,1,1]",0,14,14,14,1,0,0,,,1,FALSE,1.3163,,,,,,,,,,,,,,,,,,,,,,,,,,,,,,
,Juan LZU,001,2022-04-28_18h19.25.111,classification_task,2021.2.3,Win32,59.99880002,5f7226dd35ca1810df602df9,626b377229c10585ec392f89,626b39cf7d43fa1b9a30a58c,,,,,,,,,,,,,,,,,,,,,,,a,0,"[""0.082"",""0.424"",""0.803"",""0.749""]","[1,1,0,1]",0,15,15,15,1,1,1,,,1,FALSE,1.3647,,,,,,,,,,,,,,,,,,,,,,,,,,,,,,
,Juan LZU,001,2022-04-28_18h19.25.111,classification_task,2021.2.3,Win32,59.99880002,5f7226dd35ca1810df602df9,626b377229c10585ec392f89,626b39cf7d43fa1b9a30a58c,,,,,,,,,,,,,,,,,,,,,,,a,1,"[""0.801"",""0.379"",""0.648"",""0.851""]","[0,1,1,1]",0,16,16,16,1,0,1,,,1,FALSE,2.6153,,,,,,,,,,,,,,,,,,,,,,,,,,,,,,
,Juan LZU,001,2022-04-28_18h19.25.111,classification_task,2021.2.3,Win32,59.99880002,5f7226dd35ca1810df602df9,626b377229c10585ec392f89,626b39cf7d43fa1b9a30a58c,,,,,,,,,,,,,,,,,,,,,,,l,1,"[""0.082"",""0.174"",""0.474"",""0.749""]","[1,0,1,1]",0,17,17,17,1,1,1,,,1,FALSE,1.1645,,,,,,,,,,,,,,,,,,,,,,,,,,,,,,
,Juan LZU,001,2022-04-28_18h19.25.111,classification_task,2021.2.3,Win32,59.99880002,5f7226dd35ca1810df602df9,626b377229c10585ec392f89,626b39cf7d43fa1b9a30a58c,,,,,,,,,,,,,,,,,,,,,,,a,1,"[""0.317"",""0.379"",""0.648"",""0.793""]","[1,1,1,0]",0,18,18,18,1,0,1,,,1,FALSE,1.4662,,,,,,,,,,,,,,,,,,,,,,,,,,,,,,
,Juan LZU,001,2022-04-28_18h19.25.111,classification_task,2021.2.3,Win32,59.99880002,5f7226dd35ca1810df602df9,626b377229c10585ec392f89,626b39cf7d43fa1b9a30a58c,,,,,,,,,,,,,,,,,,,,,,,a,0,"[""0.082"",""0.424"",""0.474"",""0.025""]","[1,1,1,0]",0,19,19,19,1,1,1,,,1,FALSE,2.016,,,,,,,,,,,,,,,,,,,,,,,,,,,,,,
,Juan LZU,001,2022-04-28_18h19.25.111,classification_task,2021.2.3,Win32,59.99880002,5f7226dd35ca1810df602df9,626b377229c10585ec392f89,626b39cf7d43fa1b9a30a58c,,,,,,,,,,,,,,,,,,,,,,,a,1,"[""0.317"",""0.037"",""0.648"",""0.851""]","[1,0,1,1]",0,20,20,20,1,0,1,,,1,FALSE,2.5971,,,,,,,,,,,,,,,,,,,,,,,,,,,,,,
,Juan LZU,001,2022-04-28_18h19.25.111,classification_task,2021.2.3,Win32,59.99880002,5f7226dd35ca1810df602df9,626b377229c10585ec392f89,626b39cf7d43fa1b9a30a58c,,,,,,,,,,,,,,,,,,,,,,,l,0,"[""0.209"",""0.807"",""0.887"",""0.937""]","[1,0,1,1]",0,21,21,21,1,0,0,,,1,FALSE,2.4584,,,,,,,,,,,,,,,,,,,,,,,,,,,,,,
,Juan LZU,001,2022-04-28_18h19.25.111,classification_task,2021.2.3,Win32,59.99880002,5f7226dd35ca1810df602df9,626b377229c10585ec392f89,626b39cf7d43fa1b9a30a58c,,,,,,,,,,,,,,,,,,,,,,,l,1,"[""0.036"",""0.424"",""0.474"",""0.749""]","[0,1,1,1]",0,22,22,22,1,1,1,,,1,FALSE,2.0067,,,,,,,,,,,,,,,,,,,,,,,,,,,,,,
,Juan LZU,001,2022-04-28_18h19.25.111,classification_task,2021.2.3,Win32,59.99880002,5f7226dd35ca1810df602df9,626b377229c10585ec392f89,626b39cf7d43fa1b9a30a58c,,,,,,,,,,,,,,,,,,,,,,,a,1,"[""0.209"",""0.536"",""0.887"",""0.174""]","[1,1,1,0]",0,23,23,23,1,0,0,,,1,FALSE,1.5141,,,,,,,,,,,,,,,,,,,,,,,,,,,,,,
,Juan LZU,001,2022-04-28_18h19.25.111,classification_task,2021.2.3,Win32,59.99880002,5f7226dd35ca1810df602df9,626b377229c10585ec392f89,626b39cf7d43fa1b9a30a58c,,,,,,,,,,,,,,,,,,,,,,,l,1,"[""0.134"",""0.036"",""0.599"",""0.707""]","[1,0,1,1]",0,24,24,24,1,1,0,,,1,FALSE,1.3484,,,,,,,,,,,,,,,,,,,,,,,,,,,,,,
,Juan LZU,001,2022-04-28_18h19.25.111,classification_task,2021.2.3,Win32,59.99880002,5f7226dd35ca1810df602df9,626b377229c10585ec392f89,626b39cf7d43fa1b9a30a58c,,,,,,,,,,,,,,,,,,,,,,,l,1,"[""0.134"",""0.269"",""0.025"",""0.707""]","[1,1,0,1]",0,25,25,25,1,1,0,,,1,FALSE,1.4494,,,,,,,,,,,,,,,,,,,,,,,,,,,,,,
,Juan LZU,001,2022-04-28_18h19.25.111,classification_task,2021.2.3,Win32,59.99880002,5f7226dd35ca1810df602df9,626b377229c10585ec392f89,626b39cf7d43fa1b9a30a58c,,,,,,,,,,,,,,,,,,,,,,,a,0,"[""0.082"",""0.424"",""0.793"",""0.749""]","[1,1,0,1]",0,26,26,26,1,1,1,,,1,FALSE,1.6469,,,,,,,,,,,,,,,,,,,,,,,,,,,,,,
,Juan LZU,001,2022-04-28_18h19.25.111,classification_task,2021.2.3,Win32,59.99880002,5f7226dd35ca1810df602df9,626b377229c10585ec392f89,626b39cf7d43fa1b9a30a58c,,,,,,,,,,,,,,,,,,,,,,,l,1,"[""0.134"",""0.269"",""0.599"",""0.174""]","[1,1,1,0]",0,27,27,27,1,1,0,,,1,FALSE,2.7813,,,,,,,,,,,,,,,,,,,,,,,,,,,,,,
,Juan LZU,001,2022-04-28_18h19.25.111,classification_task,2021.2.3,Win32,59.99880002,5f7226dd35ca1810df602df9,626b377229c10585ec392f89,626b39cf7d43fa1b9a30a58c,,,,,,,,,,,,,,,,,,,,,,,a,1,"[""0.790"",""0.536"",""0.887"",""0.937""]","[0,1,1,1]",0,28,28,28,1,0,0,,,1,FALSE,1.0018,,,,,,,,,,,,,,,,,,,,,,,,,,,,,,
,Juan LZU,001,2022-04-28_18h19.25.111,classification_task,2021.2.3,Win32,59.99880002,5f7226dd35ca1810df602df9,626b377229c10585ec392f89,626b39cf7d43fa1b9a30a58c,,,,,,,,,,,,,,,,,,,,,,,l,0,"[""0.317"",""0.379"",""0.803"",""0.851""]","[1,1,0,1]",0,29,29,29,1,0,1,,,1,FALSE,2.4818,,,,,,,,,,,,,,,,,,,,,,,,,,,,,,
,Juan LZU,001,2022-04-28_18h19.25.111,classification_task,2021.2.3,Win32,59.99880002,5f7226dd35ca1810df602df9,626b377229c10585ec392f89,626b39cf7d43fa1b9a30a58c,,,,,,,,,,,,,,,,,,,,,,,a,0,"[""0.790"",""0.269"",""0.599"",""0.707""]","[0,1,1,1]",0,30,30,30,1,1,0,,,1,FALSE,1.9831,,,,,,,,,,,,,,,,,,,,,,,,,,,,,,
,Juan LZU,001,2022-04-28_18h19.25.111,classification_task,2021.2.3,Win32,59.99880002,5f7226dd35ca1810df602df9,626b377229c10585ec392f89,626b39cf7d43fa1b9a30a58c,,,,,,,,,,,,,,,,,,,,,,,a,1,"[""0.209"",""0.536"",""0.807"",""0.937""]","[1,1,0,1]",0,31,31,31,1,0,0,,,1,FALSE,1.3983,,,,,,,,,,,,,,,,,,,,,,,,,,,,,,
,Juan LZU,001,2022-04-28_18h19.25.111,classification_task,2021.2.3,Win32,59.99880002,5f7226dd35ca1810df602df9,626b377229c10585ec392f89,626b39cf7d43fa1b9a30a58c,,,,,,,,,,,,,,,,,,,,,,,l,1,"[""0.134"",""0.269"",""0.790"",""0.707""]","[1,1,0,1]",0,32,32,32,1,1,0,,,1,FALSE,1.1995,,,,,,,,,,,,,,,,,,,,,,,,,,,,,,
,Juan LZU,001,2022-04-28_18h19.25.111,classification_task,2021.2.3,Win32,59.99880002,5f7226dd35ca1810df602df9,626b377229c10585ec392f89,626b39cf7d43fa1b9a30a58c,,,,,,,,,,,,,,,,,,,,,,,l,1,"[""0.045"",""0.424"",""0.474"",""0.749""]","[0,1,1,1]",0,33,33,33,1,1,1,,,1,FALSE,2.0683,,,,,,,,,,,,,,,,,,,,,,,,,,,,,,
,Juan LZU,001,2022-04-28_18h19.25.111,classification_task,2021.2.3,Win32,59.99880002,5f7226dd35ca1810df602df9,626b377229c10585ec392f89,626b39cf7d43fa1b9a30a58c,,,,,,,,,,,,,,,,,,,,,,,l,1,"[""0.134"",""0.045"",""0.599"",""0.707""]","[1,0,1,1]",0,34,34,34,1,1,0,,,1,FALSE,2.2308,,,,,,,,,,,,,,,,,,,,,,,,,,,,,,
,Juan LZU,001,2022-04-28_18h19.25.111,classification_task,2021.2.3,Win32,59.99880002,5f7226dd35ca1810df602df9,626b377229c10585ec392f89,626b39cf7d43fa1b9a30a58c,,,,,,,,,,,,,,,,,,,,,,,a,1,"[""0.317"",""0.379"",""0.648"",""0.790""]","[1,1,1,0]",0,35,35,35,1,0,1,,,1,FALSE,1.5497,,,,,,,,,,,,,,,,,,,,,,,,,,,,,,
,Juan LZU,001,2022-04-28_18h19.25.111,classification_task,2021.2.3,Win32,59.99880002,5f7226dd35ca1810df602df9,626b377229c10585ec392f89,626b39cf7d43fa1b9a30a58c,,,,,,,,,,,,,,,,,,,,,,,l,0,"[""0.047"",""0.379"",""0.648"",""0.851""]","[0,1,1,1]",0,36,36,36,1,0,1,,,1,FALSE,2.2848,,,,,,,,,,,,,,,,,,,,,,,,,,,,,,
,Juan LZU,001,2022-04-28_18h19.25.111,classification_task,2021.2.3,Win32,59.99880002,5f7226dd35ca1810df602df9,626b377229c10585ec392f89,626b39cf7d43fa1b9a30a58c,,,,,,,,,,,,,,,,,,,,,,,l,1,"[""0.082"",""0.424"",""0.474"",""0.807""]","[1,1,1,0]",0,37,37,37,1,1,1,,,1,FALSE,3.1133,,,,,,,,,,,,,,,,,,,,,,,,,,,,,,
,Juan LZU,001,2022-04-28_18h19.25.111,classification_task,2021.2.3,Win32,59.99880002,5f7226dd35ca1810df602df9,626b377229c10585ec392f89,626b39cf7d43fa1b9a30a58c,,,,,,,,,,,,,,,,,,,,,,,l,1,"[""0.025"",""0.269"",""0.599"",""0.707""]","[0,1,1,1]",0,38,38,38,1,1,0,,,1,FALSE,1.6152,,,,,,,,,,,,,,,,,,,,,,,,,,,,,,
,Juan LZU,001,2022-04-28_18h19.25.111,classification_task,2021.2.3,Win32,59.99880002,5f7226dd35ca1810df602df9,626b377229c10585ec392f89,626b39cf7d43fa1b9a30a58c,,,,,,,,,,,,,,,,,,,,,,,a,1,"[""0.209"",""0.790"",""0.887"",""0.937""]","[1,0,1,1]",0,39,39,39,1,0,0,,,1,FALSE,1.3704,,,,,,,,,,,,,,,,,,,,,,,,,,,,,,
,Juan LZU,001,2022-04-28_18h19.25.111,classification_task,2021.2.3,Win32,59.99880002,5f7226dd35ca1810df602df9,626b377229c10585ec392f89,626b39cf7d43fa1b9a30a58c,,,,,,,,,,,,,,,,,,,,,,,l,1,"[""0.134"",""0.269"",""0.599"",""0.803""]","[1,1,1,0]",0,40,40,40,1,1,0,,,1,FALSE,1.8007,,,,,,,,,,,,,,,,,,,,,,,,,,,,,,
,Juan LZU,001,2022-04-28_18h19.25.111,classification_task,2021.2.3,Win32,59.99880002,5f7226dd35ca1810df602df9,626b377229c10585ec392f89,626b39cf7d43fa1b9a30a58c,,,,,,,,,,,,,,,,,,,,,,,a,1,"[""0.317"",""0.807"",""0.648"",""0.851""]","[1,0,1,1]",0,41,41,41,1,0,1,,,1,FALSE,1.3821,,,,,,,,,,,,,,,,,,,,,,,,,,,,,,
,Juan LZU,001,2022-04-28_18h19.25.111,classification_task,2021.2.3,Win32,59.99880002,5f7226dd35ca1810df602df9,626b377229c10585ec392f89,626b39cf7d43fa1b9a30a58c,,,,,,,,,,,,,,,,,,,,,,,l,1,"[""0.082"",""0.796"",""0.474"",""0.749""]","[1,0,1,1]",0,42,42,42,1,1,1,,,1,FALSE,3.897,,,,,,,,,,,,,,,,,,,,,,,,,,,,,,
,Juan LZU,001,2022-04-28_18h19.25.111,classification_task,2021.2.3,Win32,59.99880002,5f7226dd35ca1810df602df9,626b377229c10585ec392f89,626b39cf7d43fa1b9a30a58c,,,,,,,,,,,,,,,,,,,,,,,a,1,"[""0.317"",""0.379"",""0.806"",""0.851""]","[1,1,0,1]",0,43,43,43,1,0,1,,,1,FALSE,2.0808,,,,,,,,,,,,,,,,,,,,,,,,,,,,,,
,Juan LZU,001,2022-04-28_18h19.25.111,classification_task,2021.2.3,Win32,59.99880002,5f7226dd35ca1810df602df9,626b377229c10585ec392f89,626b39cf7d43fa1b9a30a58c,,,,,,,,,,,,,,,,,,,,,,,a,1,"[""0.209"",""0.536"",""0.025"",""0.937""]","[1,1,0,1]",0,44,44,44,1,0,0,,,1,FALSE,1.1643,,,,,,,,,,,,,,,,,,,,,,,,,,,,,,
,Juan LZU,001,2022-04-28_18h19.25.111,classification_task,2021.2.3,Win32,59.99880002,5f7226dd35ca1810df602df9,626b377229c10585ec392f89,626b39cf7d43fa1b9a30a58c,,,,,,,,,,,,,,,,,,,,,,,a,1,"[""0.037"",""0.536"",""0.887"",""0.937""]","[0,1,1,1]",0,45,45,45,1,0,0,,,1,FALSE,1.5247,,,,,,,,,,,,,,,,,,,,,,,,,,,,,,
,Juan LZU,001,2022-04-28_18h19.25.111,classification_task,2021.2.3,Win32,59.99880002,5f7226dd35ca1810df602df9,626b377229c10585ec392f89,626b39cf7d43fa1b9a30a58c,,,,,,,,,,,,,,,,,,,,,,,a,1,"[""0.209"",""0.536"",""0.887"",""0.047""]","[1,1,1,0]",0,46,46,46,1,0,0,,,1,FALSE,1.5828,,,,,,,,,,,,,,,,,,,,,,,,,,,,,,
,Juan LZU,001,2022-04-28_18h19.25.111,classification_task,2021.2.3,Win32,59.99880002,5f7226dd35ca1810df602df9,626b377229c10585ec392f89,626b39cf7d43fa1b9a30a58c,,,,,,,,,,,,,,,,,,,,,,,l,1,"[""0.082"",""0.424"",""0.807"",""0.749""]","[1,1,0,1]",0,47,47,47,1,1,1,,,1,FALSE,2.032,,,,,,,,,,,,,,,,,,,,,,,,,,,,,,
,Juan LZU,001,2022-04-28_18h19.25.111,classification_task,2021.2.3,Win32,59.99880002,5f7226dd35ca1810df602df9,626b377229c10585ec392f89,626b39cf7d43fa1b9a30a58c,,,,,,,,,,,,,,,,,,,,,,,l,1,"[""0.134"",""0.269"",""0.599"",""0.801""]","[1,1,1,0]",0,48,48,48,1,1,0,,,1,FALSE,2.4877,,,,,,,,,,,,,,,,,,,,,,,,,,,,,,
,Juan LZU,001,2022-04-28_18h19.25.111,classification_task,2021.2.3,Win32,59.99880002,5f7226dd35ca1810df602df9,626b377229c10585ec392f89,626b39cf7d43fa1b9a30a58c,,,,,,,,,,,,,,,,,,,,,,,l,1,"[""0.801"",""0.269"",""0.599"",""0.707""]","[0,1,1,1]",0,49,49,49,1,1,0,,,1,FALSE,2.2829,,,,,,,,,,,,,,,,,,,,,,,,,,,,,,
,Juan LZU,001,2022-04-28_18h19.25.111,classification_task,2021.2.3,Win32,59.99880002,5f7226dd35ca1810df602df9,626b377229c10585ec392f89,626b39cf7d43fa1b9a30a58c,,,,,,,,,,,,,,,,,,,,,,,l,1,"[""0.082"",""0.045"",""0.474"",""0.749""]","[1,0,1,1]",0,50,50,50,1,1,1,,,1,FALSE,2.9983,,,,,,,,,,,,,,,,,,,,,,,,,,,,,,
,Juan LZU,001,2022-04-28_18h19.25.111,classification_task,2021.2.3,Win32,59.99880002,5f7226dd35ca1810df602df9,626b377229c10585ec392f89,626b39cf7d43fa1b9a30a58c,,,,,,,,,,,,,,,,,,,,,,,l,1,"[""0.134"",""0.269"",""0.807"",""0.707""]","[1,1,0,1]",0,51,51,51,1,1,0,,,1,FALSE,2.6312,,,,,,,,,,,,,,,,,,,,,,,,,,,,,,
,Juan LZU,001,2022-04-28_18h19.25.111,classification_task,2021.2.3,Win32,59.99880002,5f7226dd35ca1810df602df9,626b377229c10585ec392f89,626b39cf7d43fa1b9a30a58c,,,,,,,,,,,,,,,,,,,,,,,l,1,"[""0.134"",""0.796"",""0.599"",""0.707""]","[1,0,1,1]",0,52,52,52,1,1,0,,,1,FALSE,2.1645,,,,,,,,,,,,,,,,,,,,,,,,,,,,,,
,Juan LZU,001,2022-04-28_18h19.25.111,classification_task,2021.2.3,Win32,59.99880002,5f7226dd35ca1810df602df9,626b377229c10585ec392f89,626b39cf7d43fa1b9a30a58c,,,,,,,,,,,,,,,,,,,,,,,a,1,"[""0.209"",""0.536"",""0.790"",""0.937""]","[1,1,0,1]",0,53,53,53,1,0,0,,,1,FALSE,1.1749,,,,,,,,,,,,,,,,,,,,,,,,,,,,,,
,Juan LZU,001,2022-04-28_18h19.25.111,classification_task,2021.2.3,Win32,59.99880002,5f7226dd35ca1810df602df9,626b377229c10585ec392f89,626b39cf7d43fa1b9a30a58c,,,,,,,,,,,,,,,,,,,,,,,l,0,"[""0.317"",""0.379"",""0.790"",""0.851""]","[1,1,0,1]",0,54,54,54,1,0,1,,,1,FALSE,2.8451,,,,,,,,,,,,,,,,,,,,,,,,,,,,,,
,Juan LZU,001,2022-04-28_18h19.25.111,classification_task,2021.2.3,Win32,59.99880002,5f7226dd35ca1810df602df9,626b377229c10585ec392f89,626b39cf7d43fa1b9a30a58c,,,,,,,,,,,,,,,,,,,,,,,a,1,"[""0.209"",""0.536"",""0.887"",""0.025""]","[1,1,1,0]",0,55,55,55,1,0,0,,,1,FALSE,1.4768,,,,,,,,,,,,,,,,,,,,,,,,,,,,,,
,Juan LZU,001,2022-04-28_18h19.25.111,classification_task,2021.2.3,Win32,59.99880002,5f7226dd35ca1810df602df9,626b377229c10585ec392f89,626b39cf7d43fa1b9a30a58c,,,,,,,,,,,,,,,,,,,,,,,a,1,"[""0.803"",""0.536"",""0.887"",""0.937""]","[0,1,1,1]",0,56,56,56,1,0,0,,,1,FALSE,1.2999,,,,,,,,,,,,,,,,,,,,,,,,,,,,,,
,Juan LZU,001,2022-04-28_18h19.25.111,classification_task,2021.2.3,Win32,59.99880002,5f7226dd35ca1810df602df9,626b377229c10585ec392f89,626b39cf7d43fa1b9a30a58c,,,,,,,,,,,,,,,,,,,,,,,l,0,"[""0.801"",""0.379"",""0.648"",""0.851""]","[0,1,1,1]",0,57,57,57,1,0,1,,,1,FALSE,1.9317,,,,,,,,,,,,,,,,,,,,,,,,,,,,,,
,Juan LZU,001,2022-04-28_18h19.25.111,classification_task,2021.2.3,Win32,59.99880002,5f7226dd35ca1810df602df9,626b377229c10585ec392f89,626b39cf7d43fa1b9a30a58c,,,,,,,,,,,,,,,,,,,,,,,a,1,"[""0.317"",""0.379"",""0.648"",""0.796""]","[1,1,1,0]",0,58,58,58,1,0,1,,,1,FALSE,1.0472,,,,,,,,,,,,,,,,,,,,,,,,,,,,,,
,Juan LZU,001,2022-04-28_18h19.25.111,classification_task,2021.2.3,Win32,59.99880002,5f7226dd35ca1810df602df9,626b377229c10585ec392f89,626b39cf7d43fa1b9a30a58c,,,,,,,,,,,,,,,,,,,,,,,a,1,"[""0.317"",""0.803"",""0.648"",""0.851""]","[1,0,1,1]",0,59,59,59,1,0,1,,,1,FALSE,0.7655,,,,,,,,,,,,,,,,,,,,,,,,,,,,,,
,Juan LZU,001,2022-04-28_18h19.25.111,classification_task,2021.2.3,Win32,59.99880002,5f7226dd35ca1810df602df9,626b377229c10585ec392f89,626b39cf7d43fa1b9a30a58c,,,,,,,,,,,,,,,,,,,,,,,l,1,"[""0.796"",""0.424"",""0.474"",""0.749""]","[0,1,1,1]",0,60,60,60,1,1,1,,,1,FALSE,1.2491,,,,,,,,,,,,,,,,,,,,,,,,,,,,,,
,Juan LZU,001,2022-04-28_18h19.25.111,classification_task,2021.2.3,Win32,59.99880002,5f7226dd35ca1810df602df9,626b377229c10585ec392f89,626b39cf7d43fa1b9a30a58c,,,,,,,,,,,,,,,,,,,,,,,a,0,"[""0.082"",""0.424"",""0.801"",""0.749""]","[1,1,0,1]",0,61,61,61,1,1,1,,,1,FALSE,1.323,,,,,,,,,,,,,,,,,,,,,,,,,,,,,,
,Juan LZU,001,2022-04-28_18h19.25.111,classification_task,2021.2.3,Win32,59.99880002,5f7226dd35ca1810df602df9,626b377229c10585ec392f89,626b39cf7d43fa1b9a30a58c,,,,,,,,,,,,,,,,,,,,,,,a,1,"[""0.209"",""0.790"",""0.887"",""0.937""]","[1,0,1,1]",0,62,62,62,1,0,0,,,1,FALSE,1.033,,,,,,,,,,,,,,,,,,,,,,,,,,,,,,
,Juan LZU,001,2022-04-28_18h19.25.111,classification_task,2021.2.3,Win32,59.99880002,5f7226dd35ca1810df602df9,626b377229c10585ec392f89,626b39cf7d43fa1b9a30a58c,,,,,,,,,,,,,,,,,,,,,,,l,1,"[""0.082"",""0.424"",""0.474"",""0.036""]","[1,1,1,0]",0,63,63,63,1,1,1,,,1,FALSE,1.6461,,,,,,,,,,,,,,,,,,,,,,,,,,,,,,
,Juan LZU,001,2022-04-28_18h19.25.111,classification_task,2021.2.3,Win32,59.99880002,5f7226dd35ca1810df602df9,626b377229c10585ec392f89,626b39cf7d43fa1b9a30a58c,,,,,,,,,,,,,,,,,,,,,,,,,,,,,,,,,,,,,,,0, ,,0,4.621086861,237.3011,0,1,1,1,1,2,2,,,,,,,,,,,,,,,,,
,Juan LZU,001,2022-04-28_18h19.25.111,classification_task,2021.2.3,Win32,59.99880002,5f7226dd35ca1810df602df9,626b377229c10585ec392f89,626b39cf7d43fa1b9a30a58c,,,,,,,,,,,,,,,,,,,,,,,,,,,,,,,,,,,,,,,1,  ,,0,1.245315256,240.5679,0,1,1,1,1,2,2,,,,,,,,,,,,,,,,,
,Juan LZU,001,2022-04-28_18h19.25.111,classification_task,2021.2.3,Win32,59.99880002,5f7226dd35ca1810df602df9,626b377229c10585ec392f89,626b39cf7d43fa1b9a30a58c,,,,,,,,,,,,,,,,,,,,,,,,,,,,,,,,,,,,,,,2,  ,,0,1.314208554,243.4383,0,1,1,1,1,2,2,,,,,,,,,,,,,,,,,
,Juan LZU,001,2022-04-28_18h19.25.111,classification_task,2021.2.3,Win32,59.99880002,5f7226dd35ca1810df602df9,626b377229c10585ec392f89,626b39cf7d43fa1b9a30a58c,,,,,,,,,,,,,,,,,,,,,,,,,,,,,,,,,,,,,,,,,,,,,0,1,1,1,1,,2,,,,,,,,,,,,,,,,,
,Juan LZU,001,2022-04-28_18h19.25.111,classification_task,2021.2.3,Win32,59.99880002,5f7226dd35ca1810df602df9,626b377229c10585ec392f89,626b39cf7d43fa1b9a30a58c,,,,,,,,,,,,,,,,,,,,,space,6.2293,a,0,"[""0.134"",""0.269"",""0.793"",""0.707""]","[1,1,0,1]",0,0,0,0,1,1,0,,,1,FALSE,2.3642,,,,,,,,,,,,,,,,,,,,,,,,,,,,,,
,Juan LZU,001,2022-04-28_18h19.25.111,classification_task,2021.2.3,Win32,59.99880002,5f7226dd35ca1810df602df9,626b377229c10585ec392f89,626b39cf7d43fa1b9a30a58c,,,,,,,,,,,,,,,,,,,,,,,l,1,"[""0.807"",""0.424"",""0.474"",""0.749""]","[0,1,1,1]",0,1,1,1,1,1,1,,,1,FALSE,2.9923,,,,,,,,,,,,,,,,,,,,,,,,,,,,,,
,Juan LZU,001,2022-04-28_18h19.25.111,classification_task,2021.2.3,Win32,59.99880002,5f7226dd35ca1810df602df9,626b377229c10585ec392f89,626b39cf7d43fa1b9a30a58c,,,,,,,,,,,,,,,,,,,,,,,a,1,"[""0.317"",""0.796"",""0.648"",""0.851""]","[1,0,1,1]",0,2,2,2,1,0,1,,,1,FALSE,2.9307,,,,,,,,,,,,,,,,,,,,,,,,,,,,,,
,Juan LZU,001,2022-04-28_18h19.25.111,classification_task,2021.2.3,Win32,59.99880002,5f7226dd35ca1810df602df9,626b377229c10585ec392f89,626b39cf7d43fa1b9a30a58c,,,,,,,,,,,,,,,,,,,,,,,l,1,"[""0.045"",""0.269"",""0.599"",""0.707""]","[0,1,1,1]",0,3,3,3,1,1,0,,,1,FALSE,1.3986,,,,,,,,,,,,,,,,,,,,,,,,,,,,,,
,Juan LZU,001,2022-04-28_18h19.25.111,classification_task,2021.2.3,Win32,59.99880002,5f7226dd35ca1810df602df9,626b377229c10585ec392f89,626b39cf7d43fa1b9a30a58c,,,,,,,,,,,,,,,,,,,,,,,a,1,"[""0.045"",""0.536"",""0.887"",""0.937""]","[0,1,1,1]",0,4,4,4,1,0,0,,,1,FALSE,1.7504,,,,,,,,,,,,,,,,,,,,,,,,,,,,,,
,Juan LZU,001,2022-04-28_18h19.25.111,classification_task,2021.2.3,Win32,59.99880002,5f7226dd35ca1810df602df9,626b377229c10585ec392f89,626b39cf7d43fa1b9a30a58c,,,,,,,,,,,,,,,,,,,,,,,l,1,"[""0.082"",""0.424"",""0.047"",""0.749""]","[1,1,0,1]",0,5,5,5,1,1,1,,,1,FALSE,1.7152,,,,,,,,,,,,,,,,,,,,,,,,,,,,,,
,Juan LZU,001,2022-04-28_18h19.25.111,classification_task,2021.2.3,Win32,59.99880002,5f7226dd35ca1810df602df9,626b377229c10585ec392f89,626b39cf7d43fa1b9a30a58c,,,,,,,,,,,,,,,,,,,,,,,l,1,"[""0.082"",""0.036"",""0.474"",""0.749""]","[1,0,1,1]",0,6,6,6,1,1,1,,,1,FALSE,1.4651,,,,,,,,,,,,,,,,,,,,,,,,,,,,,,
,Juan LZU,001,2022-04-28_18h19.25.111,classification_task,2021.2.3,Win32,59.99880002,5f7226dd35ca1810df602df9,626b377229c10585ec392f89,626b39cf7d43fa1b9a30a58c,,,,,,,,,,,,,,,,,,,,,,,a,0,"[""0.082"",""0.424"",""0.474"",""0.793""]","[1,1,1,0]",0,7,7,7,1,1,1,,,1,FALSE,3.099,,,,,,,,,,,,,,,,,,,,,,,,,,,,,,
,Juan LZU,001,2022-04-28_18h19.25.111,classification_task,2021.2.3,Win32,59.99880002,5f7226dd35ca1810df602df9,626b377229c10585ec392f89,626b39cf7d43fa1b9a30a58c,,,,,,,,,,,,,,,,,,,,,,,l,0,"[""0.803"",""0.379"",""0.648"",""0.851""]","[0,1,1,1]",0,8,8,8,1,0,1,,,1,FALSE,2.0332,,,,,,,,,,,,,,,,,,,,,,,,,,,,,,
,Juan LZU,001,2022-04-28_18h19.25.111,classification_task,2021.2.3,Win32,59.99880002,5f7226dd35ca1810df602df9,626b377229c10585ec392f89,626b39cf7d43fa1b9a30a58c,,,,,,,,,,,,,,,,,,,,,,,a,1,"[""0.209"",""0.806"",""0.887"",""0.937""]","[1,0,1,1]",0,9,9,9,1,0,0,,,1,FALSE,0.9782,,,,,,,,,,,,,,,,,,,,,,,,,,,,,,
,Juan LZU,001,2022-04-28_18h19.25.111,classification_task,2021.2.3,Win32,59.99880002,5f7226dd35ca1810df602df9,626b377229c10585ec392f89,626b39cf7d43fa1b9a30a58c,,,,,,,,,,,,,,,,,,,,,,,l,1,"[""0.134"",""0.269"",""0.599"",""0.174""]","[1,1,1,0]",0,10,10,10,1,1,0,,,1,FALSE,1.7337,,,,,,,,,,,,,,,,,,,,,,,,,,,,,,
,Juan LZU,001,2022-04-28_18h19.25.111,classification_task,2021.2.3,Win32,59.99880002,5f7226dd35ca1810df602df9,626b377229c10585ec392f89,626b39cf7d43fa1b9a30a58c,,,,,,,,,,,,,,,,,,,,,,,a,1,"[""0.317"",""0.379"",""0.648"",""0.174""]","[1,1,1,0]",0,11,11,11,1,0,1,,,1,FALSE,2.106,,,,,,,,,,,,,,,,,,,,,,,,,,,,,,
,Juan LZU,001,2022-04-28_18h19.25.111,classification_task,2021.2.3,Win32,59.99880002,5f7226dd35ca1810df602df9,626b377229c10585ec392f89,626b39cf7d43fa1b9a30a58c,,,,,,,,,,,,,,,,,,,,,,,l,1,"[""0.134"",""0.037"",""0.599"",""0.707""]","[1,0,1,1]",0,12,12,12,1,1,0,,,1,FALSE,1.4983,,,,,,,,,,,,,,,,,,,,,,,,,,,,,,
,Juan LZU,001,2022-04-28_18h19.25.111,classification_task,2021.2.3,Win32,59.99880002,5f7226dd35ca1810df602df9,626b377229c10585ec392f89,626b39cf7d43fa1b9a30a58c,,,,,,,,,,,,,,,,,,,,,,,a,1,"[""0.209"",""0.536"",""0.887"",""0.174""]","[1,1,1,0]",0,13,13,13,1,0,0,,,1,FALSE,1.0823,,,,,,,,,,,,,,,,,,,,,,,,,,,,,,
,Juan LZU,001,2022-04-28_18h19.25.111,classification_task,2021.2.3,Win32,59.99880002,5f7226dd35ca1810df602df9,626b377229c10585ec392f89,626b39cf7d43fa1b9a30a58c,,,,,,,,,,,,,,,,,,,,,,,a,1,"[""0.317"",""0.379"",""0.803"",""0.851""]","[1,1,0,1]",0,14,14,14,1,0,1,,,1,FALSE,1.7996,,,,,,,,,,,,,,,,,,,,,,,,,,,,,,
,Juan LZU,001,2022-04-28_18h19.25.111,classification_task,2021.2.3,Win32,59.99880002,5f7226dd35ca1810df602df9,626b377229c10585ec392f89,626b39cf7d43fa1b9a30a58c,,,,,,,,,,,,,,,,,,,,,,,a,1,"[""0.209"",""0.536"",""0.043"",""0.937""]","[1,1,0,1]",0,15,15,15,1,0,0,,,1,FALSE,2.8821,,,,,,,,,,,,,,,,,,,,,,,,,,,,,,
,Juan LZU,001,2022-04-28_18h19.25.111,classification_task,2021.2.3,Win32,59.99880002,5f7226dd35ca1810df602df9,626b377229c10585ec392f89,626b39cf7d43fa1b9a30a58c,,,,,,,,,,,,,,,,,,,,,,,a,1,"[""0.317"",""0.379"",""0.648"",""0.803""]","[1,1,1,0]",0,16,16,16,1,0,1,,,1,FALSE,1.0484,,,,,,,,,,,,,,,,,,,,,,,,,,,,,,
,Juan LZU,001,2022-04-28_18h19.25.111,classification_task,2021.2.3,Win32,59.99880002,5f7226dd35ca1810df602df9,626b377229c10585ec392f89,626b39cf7d43fa1b9a30a58c,,,,,,,,,,,,,,,,,,,,,,,l,1,"[""0.801"",""0.269"",""0.599"",""0.707""]","[0,1,1,1]",0,17,17,17,1,1,0,,,1,FALSE,1.3292,,,,,,,,,,,,,,,,,,,,,,,,,,,,,,
,Juan LZU,001,2022-04-28_18h19.25.111,classification_task,2021.2.3,Win32,59.99880002,5f7226dd35ca1810df602df9,626b377229c10585ec392f89,626b39cf7d43fa1b9a30a58c,,,,,,,,,,,,,,,,,,,,,,,a,1,"[""0.209"",""0.536"",""0.043"",""0.937""]","[1,1,0,1]",0,18,18,18,1,0,0,,,1,FALSE,1.7196,,,,,,,,,,,,,,,,,,,,,,,,,,,,,,
,Juan LZU,001,2022-04-28_18h19.25.111,classification_task,2021.2.3,Win32,59.99880002,5f7226dd35ca1810df602df9,626b377229c10585ec392f89,626b39cf7d43fa1b9a30a58c,,,,,,,,,,,,,,,,,,,,,,,a,1,"[""0.209"",""0.803"",""0.887"",""0.937""]","[1,0,1,1]",0,19,19,19,1,0,0,,,1,FALSE,1.41,,,,,,,,,,,,,,,,,,,,,,,,,,,,,,
,Juan LZU,001,2022-04-28_18h19.25.111,classification_task,2021.2.3,Win32,59.99880002,5f7226dd35ca1810df602df9,626b377229c10585ec392f89,626b39cf7d43fa1b9a30a58c,,,,,,,,,,,,,,,,,,,,,,,l,0,"[""0.317"",""0.379"",""0.035"",""0.851""]","[1,1,0,1]",0,20,20,20,1,0,1,,,1,FALSE,1.7005,,,,,,,,,,,,,,,,,,,,,,,,,,,,,,
,Juan LZU,001,2022-04-28_18h19.25.111,classification_task,2021.2.3,Win32,59.99880002,5f7226dd35ca1810df602df9,626b377229c10585ec392f89,626b39cf7d43fa1b9a30a58c,,,,,,,,,,,,,,,,,,,,,,,a,1,"[""0.025"",""0.536"",""0.887"",""0.937""]","[0,1,1,1]",0,21,21,21,1,0,0,,,1,FALSE,1.3702,,,,,,,,,,,,,,,,,,,,,,,,,,,,,,
,Juan LZU,001,2022-04-28_18h19.25.111,classification_task,2021.2.3,Win32,59.99880002,5f7226dd35ca1810df602df9,626b377229c10585ec392f89,626b39cf7d43fa1b9a30a58c,,,,,,,,,,,,,,,,,,,,,,,l,1,"[""0.082"",""0.424"",""0.807"",""0.749""]","[1,1,0,1]",0,22,22,22,1,1,1,,,1,FALSE,1.764,,,,,,,,,,,,,,,,,,,,,,,,,,,,,,
,Juan LZU,001,2022-04-28_18h19.25.111,classification_task,2021.2.3,Win32,59.99880002,5f7226dd35ca1810df602df9,626b377229c10585ec392f89,626b39cf7d43fa1b9a30a58c,,,,,,,,,,,,,,,,,,,,,,,a,1,"[""0.209"",""0.536"",""0.887"",""0.037""]","[1,1,1,0]",0,23,23,23,1,0,0,,,1,FALSE,3.5332,,,,,,,,,,,,,,,,,,,,,,,,,,,,,,
,Juan LZU,001,2022-04-28_18h19.25.111,classification_task,2021.2.3,Win32,59.99880002,5f7226dd35ca1810df602df9,626b377229c10585ec392f89,626b39cf7d43fa1b9a30a58c,,,,,,,,,,,,,,,,,,,,,,,l,1,"[""0.036"",""0.424"",""0.474"",""0.749""]","[0,1,1,1]",0,24,24,24,1,1,1,,,1,FALSE,1.2979,,,,,,,,,,,,,,,,,,,,,,,,,,,,,,
,Juan LZU,001,2022-04-28_18h19.25.111,classification_task,2021.2.3,Win32,59.99880002,5f7226dd35ca1810df602df9,626b377229c10585ec392f89,626b39cf7d43fa1b9a30a58c,,,,,,,,,,,,,,,,,,,,,,,a,0,"[""0.082"",""0.036"",""0.474"",""0.749""]","[1,0,1,1]",0,25,25,25,1,1,1,,,1,FALSE,1.4028,,,,,,,,,,,,,,,,,,,,,,,,,,,,,,
,Juan LZU,001,2022-04-28_18h19.25.111,classification_task,2021.2.3,Win32,59.99880002,5f7226dd35ca1810df602df9,626b377229c10585ec392f89,626b39cf7d43fa1b9a30a58c,,,,,,,,,,,,,,,,,,,,,,,l,0,"[""0.317"",""0.043"",""0.648"",""0.851""]","[1,0,1,1]",0,26,26,26,1,0,1,,,1,FALSE,3.564,,,,,,,,,,,,,,,,,,,,,,,,,,,,,,
,Juan LZU,001,2022-04-28_18h19.25.111,classification_task,2021.2.3,Win32,59.99880002,5f7226dd35ca1810df602df9,626b377229c10585ec392f89,626b39cf7d43fa1b9a30a58c,,,,,,,,,,,,,,,,,,,,,,,l,0,"[""0.047"",""0.379"",""0.648"",""0.851""]","[0,1,1,1]",0,27,27,27,1,0,1,,,1,FALSE,1.8708,,,,,,,,,,,,,,,,,,,,,,,,,,,,,,
,Juan LZU,001,2022-04-28_18h19.25.111,classification_task,2021.2.3,Win32,59.99880002,5f7226dd35ca1810df602df9,626b377229c10585ec392f89,626b39cf7d43fa1b9a30a58c,,,,,,,,,,,,,,,,,,,,,,,l,1,"[""0.134"",""0.269"",""0.047"",""0.707""]","[1,1,0,1]",0,28,28,28,1,1,0,,,1,FALSE,1.5954,,,,,,,,,,,,,,,,,,,,,,,,,,,,,,
,Juan LZU,001,2022-04-28_18h19.25.111,classification_task,2021.2.3,Win32,59.99880002,5f7226dd35ca1810df602df9,626b377229c10585ec392f89,626b39cf7d43fa1b9a30a58c,,,,,,,,,,,,,,,,,,,,,,,l,1,"[""0.082"",""0.424"",""0.474"",""0.803""]","[1,1,1,0]",0,29,29,29,1,1,1,,,1,FALSE,1.6751,,,,,,,,,,,,,,,,,,,,,,,,,,,,,,
,Juan LZU,001,2022-04-28_18h19.25.111,classification_task,2021.2.3,Win32,59.99880002,5f7226dd35ca1810df602df9,626b377229c10585ec392f89,626b39cf7d43fa1b9a30a58c,,,,,,,,,,,,,,,,,,,,,,,l,1,"[""0.134"",""0.269"",""0.599"",""0.045""]","[1,1,1,0]",0,30,30,30,1,1,0,,,1,FALSE,1.6303,,,,,,,,,,,,,,,,,,,,,,,,,,,,,,
,Juan LZU,001,2022-04-28_18h19.25.111,classification_task,2021.2.3,Win32,59.99880002,5f7226dd35ca1810df602df9,626b377229c10585ec392f89,626b39cf7d43fa1b9a30a58c,,,,,,,,,,,,,,,,,,,,,,,l,1,"[""0.134"",""0.803"",""0.599"",""0.707""]","[1,0,1,1]",0,31,31,31,1,1,0,,,1,FALSE,1.7175,,,,,,,,,,,,,,,,,,,,,,,,,,,,,,
,Juan LZU,001,2022-04-28_18h19.25.111,classification_task,2021.2.3,Win32,59.99880002,5f7226dd35ca1810df602df9,626b377229c10585ec392f89,626b39cf7d43fa1b9a30a58c,,,,,,,,,,,,,,,,,,,,,,,l,1,"[""0.045"",""0.269"",""0.599"",""0.707""]","[0,1,1,1]",0,32,32,32,1,1,0,,,1,FALSE,1.6005,,,,,,,,,,,,,,,,,,,,,,,,,,,,,,
,Juan LZU,001,2022-04-28_18h19.25.111,classification_task,2021.2.3,Win32,59.99880002,5f7226dd35ca1810df602df9,626b377229c10585ec392f89,626b39cf7d43fa1b9a30a58c,,,,,,,,,,,,,,,,,,,,,,,a,1,"[""0.317"",""0.379"",""0.648"",""0.803""]","[1,1,1,0]",0,33,33,33,1,0,1,,,1,FALSE,1.3488,,,,,,,,,,,,,,,,,,,,,,,,,,,,,,
,Juan LZU,001,2022-04-28_18h19.25.111,classification_task,2021.2.3,Win32,59.99880002,5f7226dd35ca1810df602df9,626b377229c10585ec392f89,626b39cf7d43fa1b9a30a58c,,,,,,,,,,,,,,,,,,,,,,,a,1,"[""0.209"",""0.536"",""0.790"",""0.937""]","[1,1,0,1]",0,34,34,34,1,0,0,,,1,FALSE,1.0972,,,,,,,,,,,,,,,,,,,,,,,,,,,,,,
,Juan LZU,001,2022-04-28_18h19.25.111,classification_task,2021.2.3,Win32,59.99880002,5f7226dd35ca1810df602df9,626b377229c10585ec392f89,626b39cf7d43fa1b9a30a58c,,,,,,,,,,,,,,,,,,,,,,,l,0,"[""0.035"",""0.379"",""0.648"",""0.851""]","[0,1,1,1]",0,35,35,35,1,0,1,,,1,FALSE,2.2661,,,,,,,,,,,,,,,,,,,,,,,,,,,,,,
,Juan LZU,001,2022-04-28_18h19.25.111,classification_task,2021.2.3,Win32,59.99880002,5f7226dd35ca1810df602df9,626b377229c10585ec392f89,626b39cf7d43fa1b9a30a58c,,,,,,,,,,,,,,,,,,,,,,,a,1,"[""0.317"",""0.379"",""0.793"",""0.851""]","[1,1,0,1]",0,36,36,36,1,0,1,,,1,FALSE,1.7965,,,,,,,,,,,,,,,,,,,,,,,,,,,,,,
,Juan LZU,001,2022-04-28_18h19.25.111,classification_task,2021.2.3,Win32,59.99880002,5f7226dd35ca1810df602df9,626b377229c10585ec392f89,626b39cf7d43fa1b9a30a58c,,,,,,,,,,,,,,,,,,,,,,,a,1,"[""0.209"",""0.536"",""0.887"",""0.801""]","[1,1,1,0]",0,37,37,37,1,0,0,,,1,FALSE,2.6818,,,,,,,,,,,,,,,,,,,,,,,,,,,,,,
,Juan LZU,001,2022-04-28_18h19.25.111,classification_task,2021.2.3,Win32,59.99880002,5f7226dd35ca1810df602df9,626b377229c10585ec392f89,626b39cf7d43fa1b9a30a58c,,,,,,,,,,,,,,,,,,,,,,,l,1,"[""0.134"",""0.269"",""0.599"",""0.806""]","[1,1,1,0]",0,38,38,38,1,1,0,,,1,FALSE,2.3642,,,,,,,,,,,,,,,,,,,,,,,,,,,,,,
,Juan LZU,001,2022-04-28_18h19.25.111,classification_task,2021.2.3,Win32,59.99880002,5f7226dd35ca1810df602df9,626b377229c10585ec392f89,626b39cf7d43fa1b9a30a58c,,,,,,,,,,,,,,,,,,,,,,,a,1,"[""0.317"",""0.796"",""0.648"",""0.851""]","[1,0,1,1]",0,39,39,39,1,0,1,,,1,FALSE,5.1639,,,,,,,,,,,,,,,,,,,,,,,,,,,,,,
,Juan LZU,001,2022-04-28_18h19.25.111,classification_task,2021.2.3,Win32,59.99880002,5f7226dd35ca1810df602df9,626b377229c10585ec392f89,626b39cf7d43fa1b9a30a58c,,,,,,,,,,,,,,,,,,,,,,,l,1,"[""0.134"",""0.269"",""0.043"",""0.707""]","[1,1,0,1]",0,40,40,40,1,1,0,,,1,FALSE,1.76,,,,,,,,,,,,,,,,,,,,,,,,,,,,,,
,Juan LZU,001,2022-04-28_18h19.25.111,classification_task,2021.2.3,Win32,59.99880002,5f7226dd35ca1810df602df9,626b377229c10585ec392f89,626b39cf7d43fa1b9a30a58c,,,,,,,,,,,,,,,,,,,,,,,a,1,"[""0.209"",""0.047"",""0.887"",""0.937""]","[1,0,1,1]",0,41,41,41,1,0,0,,,1,FALSE,1.2859,,,,,,,,,,,,,,,,,,,,,,,,,,,,,,
,Juan LZU,001,2022-04-28_18h19.25.111,classification_task,2021.2.3,Win32,59.99880002,5f7226dd35ca1810df602df9,626b377229c10585ec392f89,626b39cf7d43fa1b9a30a58c,,,,,,,,,,,,,,,,,,,,,,,l,1,"[""0.082"",""0.424"",""0.474"",""0.047""]","[1,1,1,0]",0,42,42,42,1,1,1,,,1,FALSE,3.8189,,,,,,,,,,,,,,,,,,,,,,,,,,,,,,
,Juan LZU,001,2022-04-28_18h19.25.111,classification_task,2021.2.3,Win32,59.99880002,5f7226dd35ca1810df602df9,626b377229c10585ec392f89,626b39cf7d43fa1b9a30a58c,,,,,,,,,,,,,,,,,,,,,,,l,1,"[""0.082"",""0.801"",""0.474"",""0.749""]","[1,0,1,1]",0,43,43,43,1,1,1,,,1,FALSE,1.927,,,,,,,,,,,,,,,,,,,,,,,,,,,,,,
,Juan LZU,001,2022-04-28_18h19.25.111,classification_task,2021.2.3,Win32,59.99880002,5f7226dd35ca1810df602df9,626b377229c10585ec392f89,626b39cf7d43fa1b9a30a58c,,,,,,,,,,,,,,,,,,,,,,,l,1,"[""0.134"",""0.037"",""0.599"",""0.707""]","[1,0,1,1]",0,44,44,44,1,1,0,,,1,FALSE,1.5679,,,,,,,,,,,,,,,,,,,,,,,,,,,,,,
,Juan LZU,001,2022-04-28_18h19.25.111,classification_task,2021.2.3,Win32,59.99880002,5f7226dd35ca1810df602df9,626b377229c10585ec392f89,626b39cf7d43fa1b9a30a58c,,,,,,,,,,,,,,,,,,,,,,,a,1,"[""0.796"",""0.536"",""0.887"",""0.937""]","[0,1,1,1]",0,45,45,45,1,0,0,,,1,FALSE,1.7476,,,,,,,,,,,,,,,,,,,,,,,,,,,,,,
,Juan LZU,001,2022-04-28_18h19.25.111,classification_task,2021.2.3,Win32,59.99880002,5f7226dd35ca1810df602df9,626b377229c10585ec392f89,626b39cf7d43fa1b9a30a58c,,,,,,,,,,,,,,,,,,,,,,,l,1,"[""0.037"",""0.424"",""0.474"",""0.749""]","[0,1,1,1]",0,46,46,46,1,1,1,,,1,FALSE,2.1999,,,,,,,,,,,,,,,,,,,,,,,,,,,,,,
,Juan LZU,001,2022-04-28_18h19.25.111,classification_task,2021.2.3,Win32,59.99880002,5f7226dd35ca1810df602df9,626b377229c10585ec392f89,626b39cf7d43fa1b9a30a58c,,,,,,,,,,,,,,,,,,,,,,,l,1,"[""0.082"",""0.424"",""0.796"",""0.749""]","[1,1,0,1]",0,47,47,47,1,1,1,,,1,FALSE,2.1444,,,,,,,,,,,,,,,,,,,,,,,,,,,,,,
,Juan LZU,001,2022-04-28_18h19.25.111,classification_task,2021.2.3,Win32,59.99880002,5f7226dd35ca1810df602df9,626b377229c10585ec392f89,626b39cf7d43fa1b9a30a58c,,,,,,,,,,,,,,,,,,,,,,,l,1,"[""0.134"",""0.269"",""0.599"",""0.045""]","[1,1,1,0]",0,48,48,48,1,1,0,,,1,FALSE,1.9154,,,,,,,,,,,,,,,,,,,,,,,,,,,,,,
,Juan LZU,001,2022-04-28_18h19.25.111,classification_task,2021.2.3,Win32,59.99880002,5f7226dd35ca1810df602df9,626b377229c10585ec392f89,626b39cf7d43fa1b9a30a58c,,,,,,,,,,,,,,,,,,,,,,,a,1,"[""0.317"",""0.379"",""0.801"",""0.851""]","[1,1,0,1]",0,49,49,49,1,0,1,,,1,FALSE,1.9201,,,,,,,,,,,,,,,,,,,,,,,,,,,,,,
,Juan LZU,001,2022-04-28_18h19.25.111,classification_task,2021.2.3,Win32,59.99880002,5f7226dd35ca1810df602df9,626b377229c10585ec392f89,626b39cf7d43fa1b9a30a58c,,,,,,,,,,,,,,,,,,,,,,,l,1,"[""0.134"",""0.269"",""0.047"",""0.707""]","[1,1,0,1]",0,50,50,50,1,1,0,,,1,FALSE,1.765,,,,,,,,,,,,,,,,,,,,,,,,,,,,,,
,Juan LZU,001,2022-04-28_18h19.25.111,classification_task,2021.2.3,Win32,59.99880002,5f7226dd35ca1810df602df9,626b377229c10585ec392f89,626b39cf7d43fa1b9a30a58c,,,,,,,,,,,,,,,,,,,,,,,l,1,"[""0.047"",""0.424"",""0.474"",""0.749""]","[0,1,1,1]",0,51,51,51,1,1,1,,,1,FALSE,2.1668,,,,,,,,,,,,,,,,,,,,,,,,,,,,,,
,Juan LZU,001,2022-04-28_18h19.25.111,classification_task,2021.2.3,Win32,59.99880002,5f7226dd35ca1810df602df9,626b377229c10585ec392f89,626b39cf7d43fa1b9a30a58c,,,,,,,,,,,,,,,,,,,,,,,a,1,"[""0.806"",""0.536"",""0.887"",""0.937""]","[0,1,1,1]",0,52,52,52,1,0,0,,,1,FALSE,1.9165,,,,,,,,,,,,,,,,,,,,,,,,,,,,,,
,Juan LZU,001,2022-04-28_18h19.25.111,classification_task,2021.2.3,Win32,59.99880002,5f7226dd35ca1810df602df9,626b377229c10585ec392f89,626b39cf7d43fa1b9a30a58c,,,,,,,,,,,,,,,,,,,,,,,a,0,"[""0.082"",""0.424"",""0.793"",""0.749""]","[1,1,0,1]",0,53,53,53,1,1,1,,,1,FALSE,1.7654,,,,,,,,,,,,,,,,,,,,,,,,,,,,,,
,Juan LZU,001,2022-04-28_18h19.25.111,classification_task,2021.2.3,Win32,59.99880002,5f7226dd35ca1810df602df9,626b377229c10585ec392f89,626b39cf7d43fa1b9a30a58c,,,,,,,,,,,,,,,,,,,,,,,a,1,"[""0.209"",""0.037"",""0.887"",""0.937""]","[1,0,1,1]",0,54,54,54,1,0,0,,,1,FALSE,1.5813,,,,,,,,,,,,,,,,,,,,,,,,,,,,,,
,Juan LZU,001,2022-04-28_18h19.25.111,classification_task,2021.2.3,Win32,59.99880002,5f7226dd35ca1810df602df9,626b377229c10585ec392f89,626b39cf7d43fa1b9a30a58c,,,,,,,,,,,,,,,,,,,,,,,l,1,"[""0.037"",""0.269"",""0.599"",""0.707""]","[0,1,1,1]",0,55,55,55,1,1,0,,,1,FALSE,1.7061,,,,,,,,,,,,,,,,,,,,,,,,,,,,,,
,Juan LZU,001,2022-04-28_18h19.25.111,classification_task,2021.2.3,Win32,59.99880002,5f7226dd35ca1810df602df9,626b377229c10585ec392f89,626b39cf7d43fa1b9a30a58c,,,,,,,,,,,,,,,,,,,,,,,l,1,"[""0.082"",""0.424"",""0.474"",""0.790""]","[1,1,1,0]",0,56,56,56,1,1,1,,,1,FALSE,1.447,,,,,,,,,,,,,,,,,,,,,,,,,,,,,,
,Juan LZU,001,2022-04-28_18h19.25.111,classification_task,2021.2.3,Win32,59.99880002,5f7226dd35ca1810df602df9,626b377229c10585ec392f89,626b39cf7d43fa1b9a30a58c,,,,,,,,,,,,,,,,,,,,,,,a,1,"[""0.317"",""0.379"",""0.648"",""0.036""]","[1,1,1,0]",0,57,57,57,1,0,1,,,1,FALSE,3.5148,,,,,,,,,,,,,,,,,,,,,,,,,,,,,,
,Juan LZU,001,2022-04-28_18h19.25.111,classification_task,2021.2.3,Win32,59.99880002,5f7226dd35ca1810df602df9,626b377229c10585ec392f89,626b39cf7d43fa1b9a30a58c,,,,,,,,,,,,,,,,,,,,,,,a,1,"[""0.209"",""0.536"",""0.887"",""0.807""]","[1,1,1,0]",0,58,58,58,1,0,0,,,1,FALSE,1.3297,,,,,,,,,,,,,,,,,,,,,,,,,,,,,,
,Juan LZU,001,2022-04-28_18h19.25.111,classification_task,2021.2.3,Win32,59.99880002,5f7226dd35ca1810df602df9,626b377229c10585ec392f89,626b39cf7d43fa1b9a30a58c,,,,,,,,,,,,,,,,,,,,,,,l,0,"[""0.803"",""0.379"",""0.648"",""0.851""]","[0,1,1,1]",0,59,59,59,1,0,1,,,1,FALSE,1.7039,,,,,,,,,,,,,,,,,,,,,,,,,,,,,,
,Juan LZU,001,2022-04-28_18h19.25.111,classification_task,2021.2.3,Win32,59.99880002,5f7226dd35ca1810df602df9,626b377229c10585ec392f89,626b39cf7d43fa1b9a30a58c,,,,,,,,,,,,,,,,,,,,,,,a,0,"[""0.082"",""0.793"",""0.474"",""0.749""]","[1,0,1,1]",0,60,60,60,1,1,1,,,1,FALSE,1.3311,,,,,,,,,,,,,,,,,,,,,,,,,,,,,,
,Juan LZU,001,2022-04-28_18h19.25.111,classification_task,2021.2.3,Win32,59.99880002,5f7226dd35ca1810df602df9,626b377229c10585ec392f89,626b39cf7d43fa1b9a30a58c,,,,,,,,,,,,,,,,,,,,,,,l,1,"[""0.134"",""0.036"",""0.599"",""0.707""]","[1,0,1,1]",0,61,61,61,1,1,0,,,1,FALSE,1.4689,,,,,,,,,,,,,,,,,,,,,,,,,,,,,,
,Juan LZU,001,2022-04-28_18h19.25.111,classification_task,2021.2.3,Win32,59.99880002,5f7226dd35ca1810df602df9,626b377229c10585ec392f89,626b39cf7d43fa1b9a30a58c,,,,,,,,,,,,,,,,,,,,,,,a,1,"[""0.209"",""0.536"",""0.790"",""0.937""]","[1,1,0,1]",0,62,62,62,1,0,0,,,1,FALSE,1.6651,,,,,,,,,,,,,,,,,,,,,,,,,,,,,,
,Juan LZU,001,2022-04-28_18h19.25.111,classification_task,2021.2.3,Win32,59.99880002,5f7226dd35ca1810df602df9,626b377229c10585ec392f89,626b39cf7d43fa1b9a30a58c,,,,,,,,,,,,,,,,,,,,,,,l,0,"[""0.317"",""0.801"",""0.648"",""0.851""]","[1,0,1,1]",0,63,63,63,1,0,1,,,1,FALSE,1.4167,,,,,,,,,,,,,,,,,,,,,,,,,,,,,,
,Juan LZU,001,2022-04-28_18h19.25.111,classification_task,2021.2.3,Win32,59.99880002,5f7226dd35ca1810df602df9,626b377229c10585ec392f89,626b39cf7d43fa1b9a30a58c,,,,,,,,,,,,,,,,,,,,,,,,,,,,,,,,,,,,,,,0, ,,0,1.762014991,200.989,0,2,2,2,1,2,3,,,,,,,,,,,,,,,,,
,Juan LZU,001,2022-04-28_18h19.25.111,classification_task,2021.2.3,Win32,59.99880002,5f7226dd35ca1810df602df9,626b377229c10585ec392f89,626b39cf7d43fa1b9a30a58c,,,,,,,,,,,,,,,,,,,,,,,,,,,,,,,,,,,,,,,1,  ,,0,6.997905644,206.1815,0,2,2,2,1,2,3,,,,,,,,,,,,,,,,,
,Juan LZU,001,2022-04-28_18h19.25.111,classification_task,2021.2.3,Win32,59.99880002,5f7226dd35ca1810df602df9,626b377229c10585ec392f89,626b39cf7d43fa1b9a30a58c,,,,,,,,,,,,,,,,,,,,,,,,,,,,,,,,,,,,,,,2,  ,,0,1.004188713,203.6551,0,2,2,2,1,2,3,,,,,,,,,,,,,,,,,
,Juan LZU,001,2022-04-28_18h19.25.111,classification_task,2021.2.3,Win32,59.99880002,5f7226dd35ca1810df602df9,626b377229c10585ec392f89,626b39cf7d43fa1b9a30a58c,,,,,,,,,,,,,,,,,,,,,,,,,,,,,,,,,,,,,,,,,,,,,0,2,2,2,1,,3,,,,,,,,,,,,,,,,,
,Juan LZU,001,2022-04-28_18h19.25.111,classification_task,2021.2.3,Win32,59.99880002,5f7226dd35ca1810df602df9,626b377229c10585ec392f89,626b39cf7d43fa1b9a30a58c,,,,,,,,,,,,,,,,,,,,,,,,,,,,,,,,,,,,,,,,,,,,,,,,,,,,,I believe the aid is a competent performer,,0.7,0,3,1099.2369,0,0,0,0,1,0,,,,
,Juan LZU,001,2022-04-28_18h19.25.111,classification_task,2021.2.3,Win32,59.99880002,5f7226dd35ca1810df602df9,626b377229c10585ec392f89,626b39cf7d43fa1b9a30a58c,,,,,,,,,,,,,,,,,,,,,,,,,,,,,,,,,,,,,,,,,,,,,,,,,,,,,I trust the aid,,0.7,0,4,1101.4795,0,0,0,0,1,0,,,,
,Juan LZU,001,2022-04-28_18h19.25.111,classification_task,2021.2.3,Win32,59.99880002,5f7226dd35ca1810df602df9,626b377229c10585ec392f89,626b39cf7d43fa1b9a30a58c,,,,,,,,,,,,,,,,,,,,,,,,,,,,,,,,,,,,,,,,,,,,,,,,,,,,,I have confidence in the advice given by the aid,,0.7,0,3,1103.9543,0,0,0,0,1,0,,,,
,Juan LZU,001,2022-04-28_18h19.25.111,classification_task,2021.2.3,Win32,59.99880002,5f7226dd35ca1810df602df9,626b377229c10585ec392f89,626b39cf7d43fa1b9a30a58c,,,,,,,,,,,,,,,,,,,,,,,,,,,,,,,,,,,,,,,,,,,,,,,,,,,,,I can depend on the aid,,0.7,0,1,1105.9754,0,0,0,0,1,0,,,,
,Juan LZU,001,2022-04-28_18h19.25.111,classification_task,2021.2.3,Win32,59.99880002,5f7226dd35ca1810df602df9,626b377229c10585ec392f89,626b39cf7d43fa1b9a30a58c,,,,,,,,,,,,,,,,,,,,,,,,,,,,,,,,,,,,,,,,,,,,,,,,,,,,,I can rely on the aid to behave in consistent ways,,0.7,0,2,1109.0286,0,0,0,0,1,0,,,,
,Juan LZU,001,2022-04-28_18h19.25.111,classification_task,2021.2.3,Win32,59.99880002,5f7226dd35ca1810df602df9,626b377229c10585ec392f89,626b39cf7d43fa1b9a30a58c,,,,,,,,,,,,,,,,,,,,,,,,,,,,,,,,,,,,,,,,,,,,,,,,,,,,,I can rely on the aid to do its best every time I take its advice,,0.7,0,2,1113.0247,0,0,0,0,1,0,,,,
,Juan LZU,001,2022-04-28_18h19.25.111,classification_task,2021.2.3,Win32,59.99880002,5f7226dd35ca1810df602df9,626b377229c10585ec392f89,626b39cf7d43fa1b9a30a58c,,,,,,,,,,,,,,,,,,,,,,,,,,,,,,,,,,,,,,,,,,,,,,,,,,,,,"On trials you completed with assistance from the aid, how frequently did you think the aid was correct?",,0.7,0,25%,,0,0,0,0,1,0,,,,
,Juan LZU,001,2022-04-28_18h19.25.111,classification_task,2021.2.3,Win32,59.99880002,5f7226dd35ca1810df602df9,626b377229c10585ec392f89,626b39cf7d43fa1b9a30a58c,,,,,,,,,,,,,,,,,,,,,,,,,,,,,,,,,,,,,,,,,,,,,,,,,,,,,"On trials you completed without the aid, how frequently did you think you were correct?",,0.7,0,70%,,0,0,0,0,1,0,,,,
,Juan LZU,001,2022-04-28_18h19.25.111,classification_task,2021.2.3,Win32,59.99880002,5f7226dd35ca1810df602df9,626b377229c10585ec392f89,626b39cf7d43fa1b9a30a58c,,,,,,,,,,,,,,,,,,,,,,,,,,,,,,,,,,,,,,,,,,,,,,,,,,,,,,,,,,,0,0,0,0,1,,,,,
,Juan LZU,001,2022-04-28_18h19.25.111,classification_task,2021.2.3,Win32,59.99880002,5f7226dd35ca1810df602df9,626b377229c10585ec392f89,626b39cf7d43fa1b9a30a58c,,,,,,,,,,,,,,,,,,,,,,,,,,,,,,,,,,,,,,,,,,,,,,,,,,,,,,,,,,,,,,,,,space,14.0093,1149.2623,
,Juan LZU,001,2022-04-28_18h19.25.111,classification_task,2021.2.3,Win32,59.99880002,5f7226dd35ca1810df602df9,626b377229c10585ec392f89,626b39cf7d43fa1b9a30a58c,,,,,,,,,,,,,,,,,,,,,,,,,,,,,,,,,,,,,,,,,,,,,,,,,,,,,,,,,,,,,,,,,,,,"Mozilla/5.0 (Windows NT 10.0; Win64; x64) AppleWebKit/537.36 (KHTML, like Gecko) Chrome/100.0.4896.88 Safari/537.36"
