usingWebGL,participant,session,date,expName,psychopyVersion,OS,frameRate,PROLIFIC_PID,STUDY_ID,SESSION_ID,signatures_friend,signatures_foe,band_ranges_top,band_ranges_bottom,formitemText,formtype,formundefined,formitemWidth,formindex,formresponse,formrt,key_resp_2.keys,key_resp_2.rt,tute_resp.keys,tute_resp.rt,tutorial.thisRepN,tutorial.thisTrialN,tutorial.thisN,tutorial.thisIndex,tutorial.ran,key_resp_4.keys,key_resp_4.rt,key_resp.keys,key_resp.corr,key_resp.rt,lines_presented,is_signal_presented,trials.thisRepN,trials.thisTrialN,trials.thisN,trials.thisIndex,trials.ran,vessel,active_band,lines,is_signal,supported_pos,catch_trial,debrief_formindex,debrief_formitemText,debrief_formtype,debrief_formitemWidth,debrief_formresponse,debrief_formrt,phases.thisRepN,phases.thisTrialN,phases.thisN,phases.thisIndex,phases.ran,phases.order,phase,key_resp_3.keys,trustitemText,trusttype,trustitemWidth,trustindex,trustresponse,trustrt,support_status.thisRepN,support_status.thisTrialN,support_status.thisN,support_status.thisIndex,support_status.ran,support_status.order,key_resp_5.keys,key_resp_5.rt,globalClockTime,userAgent
TRUE,Liseman Mhlongo,001,2022-04-29_03h02.58.700,classification_task,2021.2.3,Win32,60.04202942,60f4ac44348aacd594c61bb5,626b377229c10585ec392f89,626b38f119540aab4db94569,,,,,,,,,,,,,,,,,,,,,,,,,,,,,,,,,,,,,,,,,,,,,,,,,,,,,,,,,,,,,,,,,,,,
,Liseman Mhlongo,001,2022-04-29_03h02.58.700,classification_task,2021.2.3,Win32,60.04202942,60f4ac44348aacd594c61bb5,626b377229c10585ec392f89,626b38f119540aab4db94569,"[[""0.206"",""0.556"",""0.700"",""0.853""],[""0.168"",""0.415"",""0.896"",""0.945""]]","[[""0.079"",""0.358"",""0.521"",""0.793""],[""0.045"",""0.296"",""0.645"",""0.738""]]","[1,10]","[100,1000]",Video game experience,,,0.7,0,,,,,,,,,,,,,,,,,,,,,,,,,,,,,,,,,,,,,,,,,,,,,,,,,,,,,,,,,,,
,Liseman Mhlongo,001,2022-04-29_03h02.58.700,classification_task,2021.2.3,Win32,60.04202942,60f4ac44348aacd594c61bb5,626b377229c10585ec392f89,626b38f119540aab4db94569,,,,,Approximately how many hours did you spend playing video games in the last week?,,,0.7,0,5,,,,,,,,,,,,,,,,,,,,,,,,,,,,,,,,,,,,,,,,,,,,,,,,,,,,,,,,,,
,Liseman Mhlongo,001,2022-04-29_03h02.58.700,classification_task,2021.2.3,Win32,60.04202942,60f4ac44348aacd594c61bb5,626b377229c10585ec392f89,626b38f119540aab4db94569,,,,,"Which game did you play the most this year? (Enter ""None"" if you didn't play any)",,,0.7,0,FIFA,,,,,,,,,,,,,,,,,,,,,,,,,,,,,,,,,,,,,,,,,,,,,,,,,,,,,,,,,,
,Liseman Mhlongo,001,2022-04-29_03h02.58.700,classification_task,2021.2.3,Win32,60.04202942,60f4ac44348aacd594c61bb5,626b377229c10585ec392f89,626b38f119540aab4db94569,,,,,Visual perception,,,0.7,0,,,,,,,,,,,,,,,,,,,,,,,,,,,,,,,,,,,,,,,,,,,,,,,,,,,,,,,,,,,
,Liseman Mhlongo,001,2022-04-29_03h02.58.700,classification_task,2021.2.3,Win32,60.04202942,60f4ac44348aacd594c61bb5,626b377229c10585ec392f89,626b38f119540aab4db94569,,,,,Do you have any form of color blindness?,,,0.7,0,No,24.8551,,,,,,,,,,,,,,,,,,,,,,,,,,,,,,,,,,,,,,,,,,,,,,,,,,,,,,,,,
,Liseman Mhlongo,001,2022-04-29_03h02.58.700,classification_task,2021.2.3,Win32,60.04202942,60f4ac44348aacd594c61bb5,626b377229c10585ec392f89,626b38f119540aab4db94569,,,,,Do you use software to change the colour temperature of your screen (e.g. f.lux)?,,,0.7,0,No,29.3806,,,,,,,,,,,,,,,,,,,,,,,,,,,,,,,,,,,,,,,,,,,,,,,,,,,,,,,,,
,Liseman Mhlongo,001,2022-04-29_03h02.58.700,classification_task,2021.2.3,Win32,60.04202942,60f4ac44348aacd594c61bb5,626b377229c10585ec392f89,626b38f119540aab4db94569,,,,,,,,,,,,space,52.2618,space,15.5693,0,0,0,0,1,,,,,,,,,,,,,,,,,,,,,,,,,,,,,,,,,,,,,,,,,,,,,,,,
,Liseman Mhlongo,001,2022-04-29_03h02.58.700,classification_task,2021.2.3,Win32,60.04202942,60f4ac44348aacd594c61bb5,626b377229c10585ec392f89,626b38f119540aab4db94569,,,,,,,,,,,,,,space,11.3348,1,0,1,0,1,,,,,,,,,,,,,,,,,,,,,,,,,,,,,,,,,,,,,,,,,,,,,,,,
,Liseman Mhlongo,001,2022-04-29_03h02.58.700,classification_task,2021.2.3,Win32,60.04202942,60f4ac44348aacd594c61bb5,626b377229c10585ec392f89,626b38f119540aab4db94569,,,,,,,,,,,,,,space,16.0473,2,0,2,0,1,,,,,,,,,,,,,,,,,,,,,,,,,,,,,,,,,,,,,,,,,,,,,,,,
,Liseman Mhlongo,001,2022-04-29_03h02.58.700,classification_task,2021.2.3,Win32,60.04202942,60f4ac44348aacd594c61bb5,626b377229c10585ec392f89,626b38f119540aab4db94569,,,,,,,,,,,,,,space,17.9274,3,0,3,0,1,,,,,,,,,,,,,,,,,,,,,,,,,,,,,,,,,,,,,,,,,,,,,,,,
,Liseman Mhlongo,001,2022-04-29_03h02.58.700,classification_task,2021.2.3,Win32,60.04202942,60f4ac44348aacd594c61bb5,626b377229c10585ec392f89,626b38f119540aab4db94569,,,,,,,,,,,,,,space,21.4358,4,0,4,0,1,,,,,,,,,,,,,,,,,,,,,,,,,,,,,,,,,,,,,,,,,,,,,,,,
,Liseman Mhlongo,001,2022-04-29_03h02.58.700,classification_task,2021.2.3,Win32,60.04202942,60f4ac44348aacd594c61bb5,626b377229c10585ec392f89,626b38f119540aab4db94569,,,,,,,,,,,,,,,,,,,,,space,21.6566,a,0,4.427,"[""0.079"",""0.358"",""0.521"",""0.479""]","[1,1,1,0]",0,0,0,0,1,1,0,,,0,FALSE,,,,,,,,,,,,,,,,,,,,,,,,,,,,,,
,Liseman Mhlongo,001,2022-04-29_03h02.58.700,classification_task,2021.2.3,Win32,60.04202942,60f4ac44348aacd594c61bb5,626b377229c10585ec392f89,626b38f119540aab4db94569,,,,,,,,,,,,,,,,,,,,,,,a,1,1.2935,"[""0.458"",""0.556"",""0.700"",""0.853""]","[0,1,1,1]",0,1,1,1,1,0,0,,,0,FALSE,,,,,,,,,,,,,,,,,,,,,,,,,,,,,,
,Liseman Mhlongo,001,2022-04-29_03h02.58.700,classification_task,2021.2.3,Win32,60.04202942,60f4ac44348aacd594c61bb5,626b377229c10585ec392f89,626b38f119540aab4db94569,,,,,,,,,,,,,,,,,,,,,,,l,0,0.9009,"[""0.608"",""0.415"",""0.896"",""0.945""]","[0,1,1,1]",0,2,2,2,1,0,1,,,0,FALSE,,,,,,,,,,,,,,,,,,,,,,,,,,,,,,
,Liseman Mhlongo,001,2022-04-29_03h02.58.700,classification_task,2021.2.3,Win32,60.04202942,60f4ac44348aacd594c61bb5,626b377229c10585ec392f89,626b38f119540aab4db94569,,,,,,,,,,,,,,,,,,,,,,,a,1,0.7492,"[""0.168"",""0.608"",""0.896"",""0.945""]","[1,0,1,1]",0,3,3,3,1,0,1,,,0,FALSE,,,,,,,,,,,,,,,,,,,,,,,,,,,,,,
,Liseman Mhlongo,001,2022-04-29_03h02.58.700,classification_task,2021.2.3,Win32,60.04202942,60f4ac44348aacd594c61bb5,626b377229c10585ec392f89,626b38f119540aab4db94569,,,,,,,,,,,,,,,,,,,,,,,l,0,1.0436,"[""0.168"",""0.415"",""0.608"",""0.945""]","[1,1,0,1]",0,4,4,4,1,0,1,,,0,FALSE,,,,,,,,,,,,,,,,,,,,,,,,,,,,,,
,Liseman Mhlongo,001,2022-04-29_03h02.58.700,classification_task,2021.2.3,Win32,60.04202942,60f4ac44348aacd594c61bb5,626b377229c10585ec392f89,626b38f119540aab4db94569,,,,,,,,,,,,,,,,,,,,,,,a,0,0.5782,"[""0.079"",""0.253"",""0.521"",""0.793""]","[1,0,1,1]",0,5,5,5,1,1,0,,,0,FALSE,,,,,,,,,,,,,,,,,,,,,,,,,,,,,,
,Liseman Mhlongo,001,2022-04-29_03h02.58.700,classification_task,2021.2.3,Win32,60.04202942,60f4ac44348aacd594c61bb5,626b377229c10585ec392f89,626b38f119540aab4db94569,,,,,,,,,,,,,,,,,,,,,,,a,0,0.9642,"[""0.045"",""0.296"",""0.260"",""0.738""]","[1,1,0,1]",0,6,6,6,1,1,1,,,0,FALSE,,,,,,,,,,,,,,,,,,,,,,,,,,,,,,
,Liseman Mhlongo,001,2022-04-29_03h02.58.700,classification_task,2021.2.3,Win32,60.04202942,60f4ac44348aacd594c61bb5,626b377229c10585ec392f89,626b38f119540aab4db94569,,,,,,,,,,,,,,,,,,,,,,,l,0,1.2315,"[""0.206"",""0.556"",""0.700"",""0.245""]","[1,1,1,0]",0,7,7,7,1,0,0,,,0,FALSE,,,,,,,,,,,,,,,,,,,,,,,,,,,,,,
,Liseman Mhlongo,001,2022-04-29_03h02.58.700,classification_task,2021.2.3,Win32,60.04202942,60f4ac44348aacd594c61bb5,626b377229c10585ec392f89,626b38f119540aab4db94569,,,,,,,,,,,,,,,,,,,,,,,a,0,0.9296,"[""0.594"",""0.358"",""0.521"",""0.793""]","[0,1,1,1]",0,8,8,8,1,1,0,,,0,FALSE,,,,,,,,,,,,,,,,,,,,,,,,,,,,,,
,Liseman Mhlongo,001,2022-04-29_03h02.58.700,classification_task,2021.2.3,Win32,60.04202942,60f4ac44348aacd594c61bb5,626b377229c10585ec392f89,626b38f119540aab4db94569,,,,,,,,,,,,,,,,,,,,,,,a,0,1.3109,"[""0.045"",""0.115"",""0.645"",""0.738""]","[1,0,1,1]",0,9,9,9,1,1,1,,,0,FALSE,,,,,,,,,,,,,,,,,,,,,,,,,,,,,,
,Liseman Mhlongo,001,2022-04-29_03h02.58.700,classification_task,2021.2.3,Win32,60.04202942,60f4ac44348aacd594c61bb5,626b377229c10585ec392f89,626b38f119540aab4db94569,,,,,,,,,,,,,,,,,,,,,,,l,1,1.464,"[""0.079"",""0.358"",""0.458"",""0.793""]","[1,1,0,1]",0,10,10,10,1,1,0,,,0,FALSE,,,,,,,,,,,,,,,,,,,,,,,,,,,,,,
,Liseman Mhlongo,001,2022-04-29_03h02.58.700,classification_task,2021.2.3,Win32,60.04202942,60f4ac44348aacd594c61bb5,626b377229c10585ec392f89,626b38f119540aab4db94569,,,,,,,,,,,,,,,,,,,,,,,l,0,1.1199,"[""0.206"",""0.133"",""0.700"",""0.853""]","[1,0,1,1]",0,11,11,11,1,0,0,,,0,FALSE,,,,,,,,,,,,,,,,,,,,,,,,,,,,,,
,Liseman Mhlongo,001,2022-04-29_03h02.58.700,classification_task,2021.2.3,Win32,60.04202942,60f4ac44348aacd594c61bb5,626b377229c10585ec392f89,626b38f119540aab4db94569,,,,,,,,,,,,,,,,,,,,,,,l,1,1.2012,"[""0.485"",""0.296"",""0.645"",""0.738""]","[0,1,1,1]",0,12,12,12,1,1,1,,,0,FALSE,,,,,,,,,,,,,,,,,,,,,,,,,,,,,,
,Liseman Mhlongo,001,2022-04-29_03h02.58.700,classification_task,2021.2.3,Win32,60.04202942,60f4ac44348aacd594c61bb5,626b377229c10585ec392f89,626b38f119540aab4db94569,,,,,,,,,,,,,,,,,,,,,,,a,1,0.866,"[""0.206"",""0.556"",""0.260"",""0.853""]","[1,1,0,1]",0,13,13,13,1,0,0,,,0,FALSE,,,,,,,,,,,,,,,,,,,,,,,,,,,,,,
,Liseman Mhlongo,001,2022-04-29_03h02.58.700,classification_task,2021.2.3,Win32,60.04202942,60f4ac44348aacd594c61bb5,626b377229c10585ec392f89,626b38f119540aab4db94569,,,,,,,,,,,,,,,,,,,,,,,a,1,1.2002,"[""0.168"",""0.415"",""0.896"",""0.458""]","[1,1,1,0]",0,14,14,14,1,0,1,,,0,FALSE,,,,,,,,,,,,,,,,,,,,,,,,,,,,,,
,Liseman Mhlongo,001,2022-04-29_03h02.58.700,classification_task,2021.2.3,Win32,60.04202942,60f4ac44348aacd594c61bb5,626b377229c10585ec392f89,626b38f119540aab4db94569,,,,,,,,,,,,,,,,,,,,,,,a,0,0.9134,"[""0.045"",""0.296"",""0.645"",""0.458""]","[1,1,1,0]",0,15,15,15,1,1,1,,,0,FALSE,,,,,,,,,,,,,,,,,,,,,,,,,,,,,,
,Liseman Mhlongo,001,2022-04-29_03h02.58.700,classification_task,2021.2.3,Win32,60.04202942,60f4ac44348aacd594c61bb5,626b377229c10585ec392f89,626b38f119540aab4db94569,,,,,,,,,,,,,,,,,,,,,,,l,1,1.0119,"[""0.045"",""0.594"",""0.645"",""0.738""]","[1,0,1,1]",0,16,16,16,1,1,1,,,0,FALSE,,,,,,,,,,,,,,,,,,,,,,,,,,,,,,
,Liseman Mhlongo,001,2022-04-29_03h02.58.700,classification_task,2021.2.3,Win32,60.04202942,60f4ac44348aacd594c61bb5,626b377229c10585ec392f89,626b38f119540aab4db94569,,,,,,,,,,,,,,,,,,,,,,,l,0,1.4485,"[""0.168"",""0.608"",""0.896"",""0.945""]","[1,0,1,1]",0,17,17,17,1,0,1,,,0,FALSE,,,,,,,,,,,,,,,,,,,,,,,,,,,,,,
,Liseman Mhlongo,001,2022-04-29_03h02.58.700,classification_task,2021.2.3,Win32,60.04202942,60f4ac44348aacd594c61bb5,626b377229c10585ec392f89,626b38f119540aab4db94569,,,,,,,,,,,,,,,,,,,,,,,l,1,1.1152,"[""0.045"",""0.296"",""0.119"",""0.738""]","[1,1,0,1]",0,18,18,18,1,1,1,,,0,FALSE,,,,,,,,,,,,,,,,,,,,,,,,,,,,,,
,Liseman Mhlongo,001,2022-04-29_03h02.58.700,classification_task,2021.2.3,Win32,60.04202942,60f4ac44348aacd594c61bb5,626b377229c10585ec392f89,626b38f119540aab4db94569,,,,,,,,,,,,,,,,,,,,,,,a,1,0.8608,"[""0.206"",""0.556"",""0.128"",""0.853""]","[1,1,0,1]",0,19,19,19,1,0,0,,,0,FALSE,,,,,,,,,,,,,,,,,,,,,,,,,,,,,,
,Liseman Mhlongo,001,2022-04-29_03h02.58.700,classification_task,2021.2.3,Win32,60.04202942,60f4ac44348aacd594c61bb5,626b377229c10585ec392f89,626b38f119540aab4db94569,,,,,,,,,,,,,,,,,,,,,,,a,0,0.8335,"[""0.079"",""0.358"",""0.521"",""0.608""]","[1,1,1,0]",0,20,20,20,1,1,0,,,0,FALSE,,,,,,,,,,,,,,,,,,,,,,,,,,,,,,
,Liseman Mhlongo,001,2022-04-29_03h02.58.700,classification_task,2021.2.3,Win32,60.04202942,60f4ac44348aacd594c61bb5,626b377229c10585ec392f89,626b38f119540aab4db94569,,,,,,,,,,,,,,,,,,,,,,,a,1,0.8952,"[""0.168"",""0.415"",""0.594"",""0.945""]","[1,1,0,1]",0,21,21,21,1,0,1,,,0,FALSE,,,,,,,,,,,,,,,,,,,,,,,,,,,,,,
,Liseman Mhlongo,001,2022-04-29_03h02.58.700,classification_task,2021.2.3,Win32,60.04202942,60f4ac44348aacd594c61bb5,626b377229c10585ec392f89,626b38f119540aab4db94569,,,,,,,,,,,,,,,,,,,,,,,a,1,0.8964,"[""0.206"",""0.115"",""0.700"",""0.853""]","[1,0,1,1]",0,22,22,22,1,0,0,,,0,FALSE,,,,,,,,,,,,,,,,,,,,,,,,,,,,,,
,Liseman Mhlongo,001,2022-04-29_03h02.58.700,classification_task,2021.2.3,Win32,60.04202942,60f4ac44348aacd594c61bb5,626b377229c10585ec392f89,626b38f119540aab4db94569,,,,,,,,,,,,,,,,,,,,,,,l,0,0.6659,"[""0.206"",""0.556"",""0.700"",""0.608""]","[1,1,1,0]",0,23,23,23,1,0,0,,,0,FALSE,,,,,,,,,,,,,,,,,,,,,,,,,,,,,,
,Liseman Mhlongo,001,2022-04-29_03h02.58.700,classification_task,2021.2.3,Win32,60.04202942,60f4ac44348aacd594c61bb5,626b377229c10585ec392f89,626b38f119540aab4db94569,,,,,,,,,,,,,,,,,,,,,,,a,1,0.8602,"[""0.458"",""0.415"",""0.896"",""0.945""]","[0,1,1,1]",0,24,24,24,1,0,1,,,0,FALSE,,,,,,,,,,,,,,,,,,,,,,,,,,,,,,
,Liseman Mhlongo,001,2022-04-29_03h02.58.700,classification_task,2021.2.3,Win32,60.04202942,60f4ac44348aacd594c61bb5,626b377229c10585ec392f89,626b38f119540aab4db94569,,,,,,,,,,,,,,,,,,,,,,,l,1,0.997,"[""0.045"",""0.296"",""0.645"",""0.253""]","[1,1,1,0]",0,25,25,25,1,1,1,,,0,FALSE,,,,,,,,,,,,,,,,,,,,,,,,,,,,,,
,Liseman Mhlongo,001,2022-04-29_03h02.58.700,classification_task,2021.2.3,Win32,60.04202942,60f4ac44348aacd594c61bb5,626b377229c10585ec392f89,626b38f119540aab4db94569,,,,,,,,,,,,,,,,,,,,,,,l,0,1.0827,"[""0.168"",""0.415"",""0.896"",""0.245""]","[1,1,1,0]",0,26,26,26,1,0,1,,,0,FALSE,,,,,,,,,,,,,,,,,,,,,,,,,,,,,,
,Liseman Mhlongo,001,2022-04-29_03h02.58.700,classification_task,2021.2.3,Win32,60.04202942,60f4ac44348aacd594c61bb5,626b377229c10585ec392f89,626b38f119540aab4db94569,,,,,,,,,,,,,,,,,,,,,,,a,0,0.7956,"[""0.079"",""0.479"",""0.521"",""0.793""]","[1,0,1,1]",0,27,27,27,1,1,0,,,0,FALSE,,,,,,,,,,,,,,,,,,,,,,,,,,,,,,
,Liseman Mhlongo,001,2022-04-29_03h02.58.700,classification_task,2021.2.3,Win32,60.04202942,60f4ac44348aacd594c61bb5,626b377229c10585ec392f89,626b38f119540aab4db94569,,,,,,,,,,,,,,,,,,,,,,,l,1,0.5456,"[""0.485"",""0.296"",""0.645"",""0.738""]","[0,1,1,1]",0,28,28,28,1,1,1,,,0,FALSE,,,,,,,,,,,,,,,,,,,,,,,,,,,,,,
,Liseman Mhlongo,001,2022-04-29_03h02.58.700,classification_task,2021.2.3,Win32,60.04202942,60f4ac44348aacd594c61bb5,626b377229c10585ec392f89,626b38f119540aab4db94569,,,,,,,,,,,,,,,,,,,,,,,a,0,1.378,"[""0.079"",""0.358"",""0.113"",""0.793""]","[1,1,0,1]",0,29,29,29,1,1,0,,,0,FALSE,,,,,,,,,,,,,,,,,,,,,,,,,,,,,,
,Liseman Mhlongo,001,2022-04-29_03h02.58.700,classification_task,2021.2.3,Win32,60.04202942,60f4ac44348aacd594c61bb5,626b377229c10585ec392f89,626b38f119540aab4db94569,,,,,,,,,,,,,,,,,,,,,,,a,0,1.2301,"[""0.458"",""0.358"",""0.521"",""0.793""]","[0,1,1,1]",0,30,30,30,1,1,0,,,0,FALSE,,,,,,,,,,,,,,,,,,,,,,,,,,,,,,
,Liseman Mhlongo,001,2022-04-29_03h02.58.700,classification_task,2021.2.3,Win32,60.04202942,60f4ac44348aacd594c61bb5,626b377229c10585ec392f89,626b38f119540aab4db94569,,,,,,,,,,,,,,,,,,,,,,,l,0,0.5151,"[""0.485"",""0.556"",""0.700"",""0.853""]","[0,1,1,1]",0,31,31,31,1,0,0,,,0,FALSE,,,,,,,,,,,,,,,,,,,,,,,,,,,,,,
,Liseman Mhlongo,001,2022-04-29_03h02.58.700,classification_task,2021.2.3,Win32,60.04202942,60f4ac44348aacd594c61bb5,626b377229c10585ec392f89,626b38f119540aab4db94569,,,,,,,,,,,,,,,,,,,,,,,a,0,1.3147,"[""0.045"",""0.458"",""0.645"",""0.738""]","[1,0,1,1]",0,32,32,32,1,1,1,,,0,FALSE,,,,,,,,,,,,,,,,,,,,,,,,,,,,,,
,Liseman Mhlongo,001,2022-04-29_03h02.58.700,classification_task,2021.2.3,Win32,60.04202942,60f4ac44348aacd594c61bb5,626b377229c10585ec392f89,626b38f119540aab4db94569,,,,,,,,,,,,,,,,,,,,,,,a,0,2.6023,"[""0.045"",""0.296"",""0.608"",""0.738""]","[1,1,0,1]",0,33,33,33,1,1,1,,,0,FALSE,,,,,,,,,,,,,,,,,,,,,,,,,,,,,,
,Liseman Mhlongo,001,2022-04-29_03h02.58.700,classification_task,2021.2.3,Win32,60.04202942,60f4ac44348aacd594c61bb5,626b377229c10585ec392f89,626b38f119540aab4db94569,,,,,,,,,,,,,,,,,,,,,,,l,0,0.3869,"[""0.206"",""0.556"",""0.700"",""0.461""]","[1,1,1,0]",0,34,34,34,1,0,0,,,0,FALSE,,,,,,,,,,,,,,,,,,,,,,,,,,,,,,
,Liseman Mhlongo,001,2022-04-29_03h02.58.700,classification_task,2021.2.3,Win32,60.04202942,60f4ac44348aacd594c61bb5,626b377229c10585ec392f89,626b38f119540aab4db94569,,,,,,,,,,,,,,,,,,,,,,,a,0,0.4479,"[""0.079"",""0.358"",""0.521"",""0.115""]","[1,1,1,0]",0,35,35,35,1,1,0,,,0,FALSE,,,,,,,,,,,,,,,,,,,,,,,,,,,,,,
,Liseman Mhlongo,001,2022-04-29_03h02.58.700,classification_task,2021.2.3,Win32,60.04202942,60f4ac44348aacd594c61bb5,626b377229c10585ec392f89,626b38f119540aab4db94569,,,,,,,,,,,,,,,,,,,,,,,l,1,0.9663,"[""0.128"",""0.358"",""0.521"",""0.793""]","[0,1,1,1]",0,36,36,36,1,1,0,,,0,FALSE,,,,,,,,,,,,,,,,,,,,,,,,,,,,,,
,Liseman Mhlongo,001,2022-04-29_03h02.58.700,classification_task,2021.2.3,Win32,60.04202942,60f4ac44348aacd594c61bb5,626b377229c10585ec392f89,626b38f119540aab4db94569,,,,,,,,,,,,,,,,,,,,,,,l,1,0.8658,"[""0.045"",""0.296"",""0.645"",""0.115""]","[1,1,1,0]",0,37,37,37,1,1,1,,,0,FALSE,,,,,,,,,,,,,,,,,,,,,,,,,,,,,,
,Liseman Mhlongo,001,2022-04-29_03h02.58.700,classification_task,2021.2.3,Win32,60.04202942,60f4ac44348aacd594c61bb5,626b377229c10585ec392f89,626b38f119540aab4db94569,,,,,,,,,,,,,,,,,,,,,,,l,0,1.8853,"[""0.168"",""0.479"",""0.896"",""0.945""]","[1,0,1,1]",0,38,38,38,1,0,1,,,0,FALSE,,,,,,,,,,,,,,,,,,,,,,,,,,,,,,
,Liseman Mhlongo,001,2022-04-29_03h02.58.700,classification_task,2021.2.3,Win32,60.04202942,60f4ac44348aacd594c61bb5,626b377229c10585ec392f89,626b38f119540aab4db94569,,,,,,,,,,,,,,,,,,,,,,,a,0,0.8125,"[""0.079"",""0.253"",""0.521"",""0.793""]","[1,0,1,1]",0,39,39,39,1,1,0,,,0,FALSE,,,,,,,,,,,,,,,,,,,,,,,,,,,,,,
,Liseman Mhlongo,001,2022-04-29_03h02.58.700,classification_task,2021.2.3,Win32,60.04202942,60f4ac44348aacd594c61bb5,626b377229c10585ec392f89,626b38f119540aab4db94569,,,,,,,,,,,,,,,,,,,,,,,l,1,1.1641,"[""0.079"",""0.358"",""0.461"",""0.793""]","[1,1,0,1]",0,40,40,40,1,1,0,,,0,FALSE,,,,,,,,,,,,,,,,,,,,,,,,,,,,,,
,Liseman Mhlongo,001,2022-04-29_03h02.58.700,classification_task,2021.2.3,Win32,60.04202942,60f4ac44348aacd594c61bb5,626b377229c10585ec392f89,626b38f119540aab4db94569,,,,,,,,,,,,,,,,,,,,,,,l,0,1.1487,"[""0.245"",""0.415"",""0.896"",""0.945""]","[0,1,1,1]",0,41,41,41,1,0,1,,,0,FALSE,,,,,,,,,,,,,,,,,,,,,,,,,,,,,,
,Liseman Mhlongo,001,2022-04-29_03h02.58.700,classification_task,2021.2.3,Win32,60.04202942,60f4ac44348aacd594c61bb5,626b377229c10585ec392f89,626b38f119540aab4db94569,,,,,,,,,,,,,,,,,,,,,,,a,1,0.4817,"[""0.168"",""0.415"",""0.119"",""0.945""]","[1,1,0,1]",0,42,42,42,1,0,1,,,0,FALSE,,,,,,,,,,,,,,,,,,,,,,,,,,,,,,
,Liseman Mhlongo,001,2022-04-29_03h02.58.700,classification_task,2021.2.3,Win32,60.04202942,60f4ac44348aacd594c61bb5,626b377229c10585ec392f89,626b38f119540aab4db94569,,,,,,,,,,,,,,,,,,,,,,,a,0,0.781,"[""0.128"",""0.296"",""0.645"",""0.738""]","[0,1,1,1]",0,43,43,43,1,1,1,,,0,FALSE,,,,,,,,,,,,,,,,,,,,,,,,,,,,,,
,Liseman Mhlongo,001,2022-04-29_03h02.58.700,classification_task,2021.2.3,Win32,60.04202942,60f4ac44348aacd594c61bb5,626b377229c10585ec392f89,626b38f119540aab4db94569,,,,,,,,,,,,,,,,,,,,,,,l,0,0.8501,"[""0.206"",""0.556"",""0.253"",""0.853""]","[1,1,0,1]",0,44,44,44,1,0,0,,,0,FALSE,,,,,,,,,,,,,,,,,,,,,,,,,,,,,,
,Liseman Mhlongo,001,2022-04-29_03h02.58.700,classification_task,2021.2.3,Win32,60.04202942,60f4ac44348aacd594c61bb5,626b377229c10585ec392f89,626b38f119540aab4db94569,,,,,,,,,,,,,,,,,,,,,,,a,1,0.63,"[""0.253"",""0.556"",""0.700"",""0.853""]","[0,1,1,1]",0,45,45,45,1,0,0,,,0,FALSE,,,,,,,,,,,,,,,,,,,,,,,,,,,,,,
,Liseman Mhlongo,001,2022-04-29_03h02.58.700,classification_task,2021.2.3,Win32,60.04202942,60f4ac44348aacd594c61bb5,626b377229c10585ec392f89,626b38f119540aab4db94569,,,,,,,,,,,,,,,,,,,,,,,a,1,0.7964,"[""0.168"",""0.415"",""0.896"",""0.113""]","[1,1,1,0]",0,46,46,46,1,0,1,,,0,FALSE,,,,,,,,,,,,,,,,,,,,,,,,,,,,,,
,Liseman Mhlongo,001,2022-04-29_03h02.58.700,classification_task,2021.2.3,Win32,60.04202942,60f4ac44348aacd594c61bb5,626b377229c10585ec392f89,626b38f119540aab4db94569,,,,,,,,,,,,,,,,,,,,,,,a,1,1.0112,"[""0.206"",""0.608"",""0.700"",""0.853""]","[1,0,1,1]",0,47,47,47,1,0,0,,,0,FALSE,,,,,,,,,,,,,,,,,,,,,,,,,,,,,,
,Liseman Mhlongo,001,2022-04-29_03h02.58.700,classification_task,2021.2.3,Win32,60.04202942,60f4ac44348aacd594c61bb5,626b377229c10585ec392f89,626b38f119540aab4db94569,,,,,,,,,,,,,,,,,,,,,,,a,0,1.2656,"[""0.485"",""0.358"",""0.521"",""0.793""]","[0,1,1,1]",0,48,48,48,1,1,0,,,0,FALSE,,,,,,,,,,,,,,,,,,,,,,,,,,,,,,
,Liseman Mhlongo,001,2022-04-29_03h02.58.700,classification_task,2021.2.3,Win32,60.04202942,60f4ac44348aacd594c61bb5,626b377229c10585ec392f89,626b38f119540aab4db94569,,,,,,,,,,,,,,,,,,,,,,,a,0,0.7839,"[""0.079"",""0.358"",""0.521"",""0.458""]","[1,1,1,0]",0,49,49,49,1,1,0,,,0,FALSE,,,,,,,,,,,,,,,,,,,,,,,,,,,,,,
,Liseman Mhlongo,001,2022-04-29_03h02.58.700,classification_task,2021.2.3,Win32,60.04202942,60f4ac44348aacd594c61bb5,626b377229c10585ec392f89,626b38f119540aab4db94569,,,,,,,,,,,,,,,,,,,,,,,a,1,0.8085,"[""0.168"",""0.415"",""0.133"",""0.945""]","[1,1,0,1]",0,50,50,50,1,0,1,,,0,FALSE,,,,,,,,,,,,,,,,,,,,,,,,,,,,,,
,Liseman Mhlongo,001,2022-04-29_03h02.58.700,classification_task,2021.2.3,Win32,60.04202942,60f4ac44348aacd594c61bb5,626b377229c10585ec392f89,626b38f119540aab4db94569,,,,,,,,,,,,,,,,,,,,,,,l,0,0.6671,"[""0.168"",""0.458"",""0.896"",""0.945""]","[1,0,1,1]",0,51,51,51,1,0,1,,,0,FALSE,,,,,,,,,,,,,,,,,,,,,,,,,,,,,,
,Liseman Mhlongo,001,2022-04-29_03h02.58.700,classification_task,2021.2.3,Win32,60.04202942,60f4ac44348aacd594c61bb5,626b377229c10585ec392f89,626b38f119540aab4db94569,,,,,,,,,,,,,,,,,,,,,,,a,0,0.3606,"[""0.079"",""0.458"",""0.521"",""0.793""]","[1,0,1,1]",0,52,52,52,1,1,0,,,0,FALSE,,,,,,,,,,,,,,,,,,,,,,,,,,,,,,
,Liseman Mhlongo,001,2022-04-29_03h02.58.700,classification_task,2021.2.3,Win32,60.04202942,60f4ac44348aacd594c61bb5,626b377229c10585ec392f89,626b38f119540aab4db94569,,,,,,,,,,,,,,,,,,,,,,,l,0,0.3102,"[""0.168"",""0.415"",""0.896"",""0.485""]","[1,1,1,0]",0,53,53,53,1,0,1,,,0,FALSE,,,,,,,,,,,,,,,,,,,,,,,,,,,,,,
,Liseman Mhlongo,001,2022-04-29_03h02.58.700,classification_task,2021.2.3,Win32,60.04202942,60f4ac44348aacd594c61bb5,626b377229c10585ec392f89,626b38f119540aab4db94569,,,,,,,,,,,,,,,,,,,,,,,l,1,0.246,"[""0.045"",""0.479"",""0.645"",""0.738""]","[1,0,1,1]",0,54,54,54,1,1,1,,,0,FALSE,,,,,,,,,,,,,,,,,,,,,,,,,,,,,,
,Liseman Mhlongo,001,2022-04-29_03h02.58.700,classification_task,2021.2.3,Win32,60.04202942,60f4ac44348aacd594c61bb5,626b377229c10585ec392f89,626b38f119540aab4db94569,,,,,,,,,,,,,,,,,,,,,,,a,0,1.3297,"[""0.128"",""0.296"",""0.645"",""0.738""]","[0,1,1,1]",0,55,55,55,1,1,1,,,0,FALSE,,,,,,,,,,,,,,,,,,,,,,,,,,,,,,
,Liseman Mhlongo,001,2022-04-29_03h02.58.700,classification_task,2021.2.3,Win32,60.04202942,60f4ac44348aacd594c61bb5,626b377229c10585ec392f89,626b38f119540aab4db94569,,,,,,,,,,,,,,,,,,,,,,,l,0,0.9129,"[""0.260"",""0.556"",""0.700"",""0.853""]","[0,1,1,1]",0,56,56,56,1,0,0,,,0,FALSE,,,,,,,,,,,,,,,,,,,,,,,,,,,,,,
,Liseman Mhlongo,001,2022-04-29_03h02.58.700,classification_task,2021.2.3,Win32,60.04202942,60f4ac44348aacd594c61bb5,626b377229c10585ec392f89,626b38f119540aab4db94569,,,,,,,,,,,,,,,,,,,,,,,a,0,0.7199,"[""0.045"",""0.296"",""0.461"",""0.738""]","[1,1,0,1]",0,57,57,57,1,1,1,,,0,FALSE,,,,,,,,,,,,,,,,,,,,,,,,,,,,,,
,Liseman Mhlongo,001,2022-04-29_03h02.58.700,classification_task,2021.2.3,Win32,60.04202942,60f4ac44348aacd594c61bb5,626b377229c10585ec392f89,626b38f119540aab4db94569,,,,,,,,,,,,,,,,,,,,,,,a,0,0.276,"[""0.079"",""0.358"",""0.115"",""0.793""]","[1,1,0,1]",0,58,58,58,1,1,0,,,0,FALSE,,,,,,,,,,,,,,,,,,,,,,,,,,,,,,
,Liseman Mhlongo,001,2022-04-29_03h02.58.700,classification_task,2021.2.3,Win32,60.04202942,60f4ac44348aacd594c61bb5,626b377229c10585ec392f89,626b38f119540aab4db94569,,,,,,,,,,,,,,,,,,,,,,,l,0,0.3617,"[""0.206"",""0.556"",""0.133"",""0.853""]","[1,1,0,1]",0,59,59,59,1,0,0,,,0,FALSE,,,,,,,,,,,,,,,,,,,,,,,,,,,,,,
,Liseman Mhlongo,001,2022-04-29_03h02.58.700,classification_task,2021.2.3,Win32,60.04202942,60f4ac44348aacd594c61bb5,626b377229c10585ec392f89,626b38f119540aab4db94569,,,,,,,,,,,,,,,,,,,,,,,a,1,0.1438,"[""0.245"",""0.415"",""0.896"",""0.945""]","[0,1,1,1]",0,60,60,60,1,0,1,,,0,FALSE,,,,,,,,,,,,,,,,,,,,,,,,,,,,,,
,Liseman Mhlongo,001,2022-04-29_03h02.58.700,classification_task,2021.2.3,Win32,60.04202942,60f4ac44348aacd594c61bb5,626b377229c10585ec392f89,626b38f119540aab4db94569,,,,,,,,,,,,,,,,,,,,,,,l,0,0.6761,"[""0.206"",""0.608"",""0.700"",""0.853""]","[1,0,1,1]",0,61,61,61,1,0,0,,,0,FALSE,,,,,,,,,,,,,,,,,,,,,,,,,,,,,,
,Liseman Mhlongo,001,2022-04-29_03h02.58.700,classification_task,2021.2.3,Win32,60.04202942,60f4ac44348aacd594c61bb5,626b377229c10585ec392f89,626b38f119540aab4db94569,,,,,,,,,,,,,,,,,,,,,,,a,0,0.3606,"[""0.045"",""0.296"",""0.645"",""0.246""]","[1,1,1,0]",0,62,62,62,1,1,1,,,0,FALSE,,,,,,,,,,,,,,,,,,,,,,,,,,,,,,
,Liseman Mhlongo,001,2022-04-29_03h02.58.700,classification_task,2021.2.3,Win32,60.04202942,60f4ac44348aacd594c61bb5,626b377229c10585ec392f89,626b38f119540aab4db94569,,,,,,,,,,,,,,,,,,,,,,,l,0,0.3643,"[""0.206"",""0.556"",""0.700"",""0.128""]","[1,1,1,0]",0,63,63,63,1,0,0,,,0,FALSE,,,,,,,,,,,,,,,,,,,,,,,,,,,,,,
,Liseman Mhlongo,001,2022-04-29_03h02.58.700,classification_task,2021.2.3,Win32,60.04202942,60f4ac44348aacd594c61bb5,626b377229c10585ec392f89,626b38f119540aab4db94569,,,,,,,,,,,,,,,,,,,,,,,,,,,,,,,,,,,,,,,0, ,,0,7.859071869,331.4692,0,0,0,0,1,2,1,,,,,,,,,,,,,,,,,
,Liseman Mhlongo,001,2022-04-29_03h02.58.700,classification_task,2021.2.3,Win32,60.04202942,60f4ac44348aacd594c61bb5,626b377229c10585ec392f89,626b38f119540aab4db94569,,,,,,,,,,,,,,,,,,,,,,,,,,,,,,,,,,,,,,,1,  ,,0,10,346.475,0,0,0,0,1,2,1,,,,,,,,,,,,,,,,,
,Liseman Mhlongo,001,2022-04-29_03h02.58.700,classification_task,2021.2.3,Win32,60.04202942,60f4ac44348aacd594c61bb5,626b377229c10585ec392f89,626b38f119540aab4db94569,,,,,,,,,,,,,,,,,,,,,,,,,,,,,,,,,,,,,,,2,  ,,0,10,352.5013,0,0,0,0,1,2,1,,,,,,,,,,,,,,,,,
,Liseman Mhlongo,001,2022-04-29_03h02.58.700,classification_task,2021.2.3,Win32,60.04202942,60f4ac44348aacd594c61bb5,626b377229c10585ec392f89,626b38f119540aab4db94569,,,,,,,,,,,,,,,,,,,,,,,,,,,,,,,,,,,,,,,,,,,,,0,0,0,0,1,,1,,,,,,,,,,,,,,,,,
,Liseman Mhlongo,001,2022-04-29_03h02.58.700,classification_task,2021.2.3,Win32,60.04202942,60f4ac44348aacd594c61bb5,626b377229c10585ec392f89,626b38f119540aab4db94569,,,,,,,,,,,,,,,,,,,,,space,2.5462,a,1,2.9541,"[""0.206"",""0.260"",""0.700"",""0.853""]","[1,0,1,1]",0,0,0,0,1,0,0,,,0,FALSE,,,,,,,,,,,,,,,,,,,,,,,,,,,,,,
,Liseman Mhlongo,001,2022-04-29_03h02.58.700,classification_task,2021.2.3,Win32,60.04202942,60f4ac44348aacd594c61bb5,626b377229c10585ec392f89,626b38f119540aab4db94569,,,,,,,,,,,,,,,,,,,,,,,a,1,0.8481,"[""0.168"",""0.485"",""0.896"",""0.945""]","[1,0,1,1]",0,1,1,1,1,0,1,,,0,FALSE,,,,,,,,,,,,,,,,,,,,,,,,,,,,,,
,Liseman Mhlongo,001,2022-04-29_03h02.58.700,classification_task,2021.2.3,Win32,60.04202942,60f4ac44348aacd594c61bb5,626b377229c10585ec392f89,626b38f119540aab4db94569,,,,,,,,,,,,,,,,,,,,,,,a,0,0.726,"[""0.079"",""0.358"",""0.521"",""0.458""]","[1,1,1,0]",0,2,2,2,1,1,0,,,0,FALSE,,,,,,,,,,,,,,,,,,,,,,,,,,,,,,
,Liseman Mhlongo,001,2022-04-29_03h02.58.700,classification_task,2021.2.3,Win32,60.04202942,60f4ac44348aacd594c61bb5,626b377229c10585ec392f89,626b38f119540aab4db94569,,,,,,,,,,,,,,,,,,,,,,,a,1,0.68,"[""0.168"",""0.415"",""0.608"",""0.945""]","[1,1,0,1]",0,3,3,3,1,0,1,,,0,FALSE,,,,,,,,,,,,,,,,,,,,,,,,,,,,,,
,Liseman Mhlongo,001,2022-04-29_03h02.58.700,classification_task,2021.2.3,Win32,60.04202942,60f4ac44348aacd594c61bb5,626b377229c10585ec392f89,626b38f119540aab4db94569,,,,,,,,,,,,,,,,,,,,,,,l,0,0.9903,"[""0.246"",""0.556"",""0.700"",""0.853""]","[0,1,1,1]",0,4,4,4,1,0,0,,,0,FALSE,,,,,,,,,,,,,,,,,,,,,,,,,,,,,,
,Liseman Mhlongo,001,2022-04-29_03h02.58.700,classification_task,2021.2.3,Win32,60.04202942,60f4ac44348aacd594c61bb5,626b377229c10585ec392f89,626b38f119540aab4db94569,,,,,,,,,,,,,,,,,,,,,,,l,0,0.9093,"[""0.133"",""0.415"",""0.896"",""0.945""]","[0,1,1,1]",0,5,5,5,1,0,1,,,0,FALSE,,,,,,,,,,,,,,,,,,,,,,,,,,,,,,
,Liseman Mhlongo,001,2022-04-29_03h02.58.700,classification_task,2021.2.3,Win32,60.04202942,60f4ac44348aacd594c61bb5,626b377229c10585ec392f89,626b38f119540aab4db94569,,,,,,,,,,,,,,,,,,,,,,,a,0,0.3635,"[""0.045"",""0.296"",""0.645"",""0.485""]","[1,1,1,0]",0,6,6,6,1,1,1,,,0,FALSE,,,,,,,,,,,,,,,,,,,,,,,,,,,,,,
,Liseman Mhlongo,001,2022-04-29_03h02.58.700,classification_task,2021.2.3,Win32,60.04202942,60f4ac44348aacd594c61bb5,626b377229c10585ec392f89,626b38f119540aab4db94569,,,,,,,,,,,,,,,,,,,,,,,a,0,3.1582,"[""0.608"",""0.358"",""0.521"",""0.793""]","[0,1,1,1]",0,7,7,7,1,1,0,,,0,FALSE,,,,,,,,,,,,,,,,,,,,,,,,,,,,,,
,Liseman Mhlongo,001,2022-04-29_03h02.58.700,classification_task,2021.2.3,Win32,60.04202942,60f4ac44348aacd594c61bb5,626b377229c10585ec392f89,626b38f119540aab4db94569,,,,,,,,,,,,,,,,,,,,,,,l,1,0.5816,"[""0.045"",""0.296"",""0.119"",""0.738""]","[1,1,0,1]",0,8,8,8,1,1,1,,,0,FALSE,,,,,,,,,,,,,,,,,,,,,,,,,,,,,,
,Liseman Mhlongo,001,2022-04-29_03h02.58.700,classification_task,2021.2.3,Win32,60.04202942,60f4ac44348aacd594c61bb5,626b377229c10585ec392f89,626b38f119540aab4db94569,,,,,,,,,,,,,,,,,,,,,,,l,0,1.2668,"[""0.206"",""0.556"",""0.253"",""0.853""]","[1,1,0,1]",0,9,9,9,1,0,0,,,0,FALSE,,,,,,,,,,,,,,,,,,,,,,,,,,,,,,
,Liseman Mhlongo,001,2022-04-29_03h02.58.700,classification_task,2021.2.3,Win32,60.04202942,60f4ac44348aacd594c61bb5,626b377229c10585ec392f89,626b38f119540aab4db94569,,,,,,,,,,,,,,,,,,,,,,,a,0,0.3181,"[""0.115"",""0.296"",""0.645"",""0.738""]","[0,1,1,1]",0,10,10,10,1,1,1,,,0,FALSE,,,,,,,,,,,,,,,,,,,,,,,,,,,,,,
,Liseman Mhlongo,001,2022-04-29_03h02.58.700,classification_task,2021.2.3,Win32,60.04202942,60f4ac44348aacd594c61bb5,626b377229c10585ec392f89,626b38f119540aab4db94569,,,,,,,,,,,,,,,,,,,,,,,l,0,0.1676,"[""0.206"",""0.556"",""0.700"",""0.260""]","[1,1,1,0]",0,11,11,11,1,0,0,,,0,FALSE,,,,,,,,,,,,,,,,,,,,,,,,,,,,,,
,Liseman Mhlongo,001,2022-04-29_03h02.58.700,classification_task,2021.2.3,Win32,60.04202942,60f4ac44348aacd594c61bb5,626b377229c10585ec392f89,626b38f119540aab4db94569,,,,,,,,,,,,,,,,,,,,,,,l,0,0.0009,"[""0.168"",""0.415"",""0.896"",""0.458""]","[1,1,1,0]",0,12,12,12,1,0,1,,,0,FALSE,,,,,,,,,,,,,,,,,,,,,,,,,,,,,,
,Liseman Mhlongo,001,2022-04-29_03h02.58.700,classification_task,2021.2.3,Win32,60.04202942,60f4ac44348aacd594c61bb5,626b377229c10585ec392f89,626b38f119540aab4db94569,,,,,,,,,,,,,,,,,,,,,,,l,1,0.8154,"[""0.079"",""0.608"",""0.521"",""0.793""]","[1,0,1,1]",0,13,13,13,1,1,0,,,0,FALSE,,,,,,,,,,,,,,,,,,,,,,,,,,,,,,
,Liseman Mhlongo,001,2022-04-29_03h02.58.700,classification_task,2021.2.3,Win32,60.04202942,60f4ac44348aacd594c61bb5,626b377229c10585ec392f89,626b38f119540aab4db94569,,,,,,,,,,,,,,,,,,,,,,,a,0,0.7806,"[""0.045"",""0.113"",""0.645"",""0.738""]","[1,0,1,1]",0,14,14,14,1,1,1,,,0,FALSE,,,,,,,,,,,,,,,,,,,,,,,,,,,,,,
,Liseman Mhlongo,001,2022-04-29_03h02.58.700,classification_task,2021.2.3,Win32,60.04202942,60f4ac44348aacd594c61bb5,626b377229c10585ec392f89,626b38f119540aab4db94569,,,,,,,,,,,,,,,,,,,,,,,l,1,0.7645,"[""0.079"",""0.358"",""0.260"",""0.793""]","[1,1,0,1]",0,15,15,15,1,1,0,,,0,FALSE,,,,,,,,,,,,,,,,,,,,,,,,,,,,,,
,Liseman Mhlongo,001,2022-04-29_03h02.58.700,classification_task,2021.2.3,Win32,60.04202942,60f4ac44348aacd594c61bb5,626b377229c10585ec392f89,626b38f119540aab4db94569,,,,,,,,,,,,,,,,,,,,,,,a,0,1.0644,"[""0.133"",""0.296"",""0.645"",""0.738""]","[0,1,1,1]",0,16,16,16,1,1,1,,,0,FALSE,,,,,,,,,,,,,,,,,,,,,,,,,,,,,,
,Liseman Mhlongo,001,2022-04-29_03h02.58.700,classification_task,2021.2.3,Win32,60.04202942,60f4ac44348aacd594c61bb5,626b377229c10585ec392f89,626b38f119540aab4db94569,,,,,,,,,,,,,,,,,,,,,,,l,0,0.4106,"[""0.253"",""0.415"",""0.896"",""0.945""]","[0,1,1,1]",0,17,17,17,1,0,1,,,0,FALSE,,,,,,,,,,,,,,,,,,,,,,,,,,,,,,
,Liseman Mhlongo,001,2022-04-29_03h02.58.700,classification_task,2021.2.3,Win32,60.04202942,60f4ac44348aacd594c61bb5,626b377229c10585ec392f89,626b38f119540aab4db94569,,,,,,,,,,,,,,,,,,,,,,,a,0,0.2989,"[""0.079"",""0.358"",""0.521"",""0.253""]","[1,1,1,0]",0,18,18,18,1,1,0,,,0,FALSE,,,,,,,,,,,,,,,,,,,,,,,,,,,,,,
,Liseman Mhlongo,001,2022-04-29_03h02.58.700,classification_task,2021.2.3,Win32,60.04202942,60f4ac44348aacd594c61bb5,626b377229c10585ec392f89,626b38f119540aab4db94569,,,,,,,,,,,,,,,,,,,,,,,a,1,0.1979,"[""0.168"",""0.415"",""0.896"",""0.479""]","[1,1,1,0]",0,19,19,19,1,0,1,,,0,FALSE,,,,,,,,,,,,,,,,,,,,,,,,,,,,,,
,Liseman Mhlongo,001,2022-04-29_03h02.58.700,classification_task,2021.2.3,Win32,60.04202942,60f4ac44348aacd594c61bb5,626b377229c10585ec392f89,626b38f119540aab4db94569,,,,,,,,,,,,,,,,,,,,,,,l,0,0.6298,"[""0.168"",""0.415"",""0.485"",""0.945""]","[1,1,0,1]",0,20,20,20,1,0,1,,,0,FALSE,,,,,,,,,,,,,,,,,,,,,,,,,,,,,,
,Liseman Mhlongo,001,2022-04-29_03h02.58.700,classification_task,2021.2.3,Win32,60.04202942,60f4ac44348aacd594c61bb5,626b377229c10585ec392f89,626b38f119540aab4db94569,,,,,,,,,,,,,,,,,,,,,,,a,0,0.464,"[""0.045"",""0.296"",""0.645"",""0.253""]","[1,1,1,0]",0,21,21,21,1,1,1,,,0,FALSE,,,,,,,,,,,,,,,,,,,,,,,,,,,,,,
,Liseman Mhlongo,001,2022-04-29_03h02.58.700,classification_task,2021.2.3,Win32,60.04202942,60f4ac44348aacd594c61bb5,626b377229c10585ec392f89,626b38f119540aab4db94569,,,,,,,,,,,,,,,,,,,,,,,a,1,0.2647,"[""0.206"",""0.556"",""0.608"",""0.853""]","[1,1,0,1]",0,22,22,22,1,0,0,,,0,FALSE,,,,,,,,,,,,,,,,,,,,,,,,,,,,,,
,Liseman Mhlongo,001,2022-04-29_03h02.58.700,classification_task,2021.2.3,Win32,60.04202942,60f4ac44348aacd594c61bb5,626b377229c10585ec392f89,626b38f119540aab4db94569,,,,,,,,,,,,,,,,,,,,,,,a,0,1.0287,"[""0.461"",""0.358"",""0.521"",""0.793""]","[0,1,1,1]",0,23,23,23,1,1,0,,,0,FALSE,,,,,,,,,,,,,,,,,,,,,,,,,,,,,,
,Liseman Mhlongo,001,2022-04-29_03h02.58.700,classification_task,2021.2.3,Win32,60.04202942,60f4ac44348aacd594c61bb5,626b377229c10585ec392f89,626b38f119540aab4db94569,,,,,,,,,,,,,,,,,,,,,,,l,0,0.3479,"[""0.253"",""0.556"",""0.700"",""0.853""]","[0,1,1,1]",0,24,24,24,1,0,0,,,0,FALSE,,,,,,,,,,,,,,,,,,,,,,,,,,,,,,
,Liseman Mhlongo,001,2022-04-29_03h02.58.700,classification_task,2021.2.3,Win32,60.04202942,60f4ac44348aacd594c61bb5,626b377229c10585ec392f89,626b38f119540aab4db94569,,,,,,,,,,,,,,,,,,,,,,,a,0,0.2943,"[""0.079"",""0.358"",""0.594"",""0.793""]","[1,1,0,1]",0,25,25,25,1,1,0,,,0,FALSE,,,,,,,,,,,,,,,,,,,,,,,,,,,,,,
,Liseman Mhlongo,001,2022-04-29_03h02.58.700,classification_task,2021.2.3,Win32,60.04202942,60f4ac44348aacd594c61bb5,626b377229c10585ec392f89,626b38f119540aab4db94569,,,,,,,,,,,,,,,,,,,,,,,l,1,0.2143,"[""0.079"",""0.479"",""0.521"",""0.793""]","[1,0,1,1]",0,26,26,26,1,1,0,,,0,FALSE,,,,,,,,,,,,,,,,,,,,,,,,,,,,,,
,Liseman Mhlongo,001,2022-04-29_03h02.58.700,classification_task,2021.2.3,Win32,60.04202942,60f4ac44348aacd594c61bb5,626b377229c10585ec392f89,626b38f119540aab4db94569,,,,,,,,,,,,,,,,,,,,,,,a,1,0.3995,"[""0.168"",""0.608"",""0.896"",""0.945""]","[1,0,1,1]",0,27,27,27,1,0,1,,,0,FALSE,,,,,,,,,,,,,,,,,,,,,,,,,,,,,,
,Liseman Mhlongo,001,2022-04-29_03h02.58.700,classification_task,2021.2.3,Win32,60.04202942,60f4ac44348aacd594c61bb5,626b377229c10585ec392f89,626b38f119540aab4db94569,,,,,,,,,,,,,,,,,,,,,,,l,1,0.7329,"[""0.045"",""0.296"",""0.458"",""0.738""]","[1,1,0,1]",0,28,28,28,1,1,1,,,0,FALSE,,,,,,,,,,,,,,,,,,,,,,,,,,,,,,
,Liseman Mhlongo,001,2022-04-29_03h02.58.700,classification_task,2021.2.3,Win32,60.04202942,60f4ac44348aacd594c61bb5,626b377229c10585ec392f89,626b38f119540aab4db94569,,,,,,,,,,,,,,,,,,,,,,,a,1,1.2647,"[""0.206"",""0.133"",""0.700"",""0.853""]","[1,0,1,1]",0,29,29,29,1,0,0,,,0,FALSE,,,,,,,,,,,,,,,,,,,,,,,,,,,,,,
,Liseman Mhlongo,001,2022-04-29_03h02.58.700,classification_task,2021.2.3,Win32,60.04202942,60f4ac44348aacd594c61bb5,626b377229c10585ec392f89,626b38f119540aab4db94569,,,,,,,,,,,,,,,,,,,,,,,a,1,0.8973,"[""0.206"",""0.556"",""0.700"",""0.458""]","[1,1,1,0]",0,30,30,30,1,0,0,,,0,FALSE,,,,,,,,,,,,,,,,,,,,,,,,,,,,,,
,Liseman Mhlongo,001,2022-04-29_03h02.58.700,classification_task,2021.2.3,Win32,60.04202942,60f4ac44348aacd594c61bb5,626b377229c10585ec392f89,626b38f119540aab4db94569,,,,,,,,,,,,,,,,,,,,,,,l,1,0.7639,"[""0.045"",""0.260"",""0.645"",""0.738""]","[1,0,1,1]",0,31,31,31,1,1,1,,,0,FALSE,,,,,,,,,,,,,,,,,,,,,,,,,,,,,,
,Liseman Mhlongo,001,2022-04-29_03h02.58.700,classification_task,2021.2.3,Win32,60.04202942,60f4ac44348aacd594c61bb5,626b377229c10585ec392f89,626b38f119540aab4db94569,,,,,,,,,,,,,,,,,,,,,,,a,1,0.7146,"[""0.168"",""0.415"",""0.260"",""0.945""]","[1,1,0,1]",0,32,32,32,1,0,1,,,0,FALSE,,,,,,,,,,,,,,,,,,,,,,,,,,,,,,
,Liseman Mhlongo,001,2022-04-29_03h02.58.700,classification_task,2021.2.3,Win32,60.04202942,60f4ac44348aacd594c61bb5,626b377229c10585ec392f89,626b38f119540aab4db94569,,,,,,,,,,,,,,,,,,,,,,,a,0,0.7817,"[""0.079"",""0.358"",""0.521"",""0.246""]","[1,1,1,0]",0,33,33,33,1,1,0,,,0,FALSE,,,,,,,,,,,,,,,,,,,,,,,,,,,,,,
,Liseman Mhlongo,001,2022-04-29_03h02.58.700,classification_task,2021.2.3,Win32,60.04202942,60f4ac44348aacd594c61bb5,626b377229c10585ec392f89,626b38f119540aab4db94569,,,,,,,,,,,,,,,,,,,,,,,l,1,0.4142,"[""0.045"",""0.296"",""0.645"",""0.133""]","[1,1,1,0]",0,34,34,34,1,1,1,,,0,FALSE,,,,,,,,,,,,,,,,,,,,,,,,,,,,,,
,Liseman Mhlongo,001,2022-04-29_03h02.58.700,classification_task,2021.2.3,Win32,60.04202942,60f4ac44348aacd594c61bb5,626b377229c10585ec392f89,626b38f119540aab4db94569,,,,,,,,,,,,,,,,,,,,,,,a,0,0.7964,"[""0.045"",""0.296"",""0.119"",""0.738""]","[1,1,0,1]",0,35,35,35,1,1,1,,,0,FALSE,,,,,,,,,,,,,,,,,,,,,,,,,,,,,,
,Liseman Mhlongo,001,2022-04-29_03h02.58.700,classification_task,2021.2.3,Win32,60.04202942,60f4ac44348aacd594c61bb5,626b377229c10585ec392f89,626b38f119540aab4db94569,,,,,,,,,,,,,,,,,,,,,,,l,0,0.3653,"[""0.206"",""0.556"",""0.700"",""0.253""]","[1,1,1,0]",0,36,36,36,1,0,0,,,0,FALSE,,,,,,,,,,,,,,,,,,,,,,,,,,,,,,
,Liseman Mhlongo,001,2022-04-29_03h02.58.700,classification_task,2021.2.3,Win32,60.04202942,60f4ac44348aacd594c61bb5,626b377229c10585ec392f89,626b38f119540aab4db94569,,,,,,,,,,,,,,,,,,,,,,,a,0,0.3147,"[""0.045"",""0.461"",""0.645"",""0.738""]","[1,0,1,1]",0,37,37,37,1,1,1,,,0,FALSE,,,,,,,,,,,,,,,,,,,,,,,,,,,,,,
,Liseman Mhlongo,001,2022-04-29_03h02.58.700,classification_task,2021.2.3,Win32,60.04202942,60f4ac44348aacd594c61bb5,626b377229c10585ec392f89,626b38f119540aab4db94569,,,,,,,,,,,,,,,,,,,,,,,a,1,0.2653,"[""0.168"",""0.415"",""0.896"",""0.246""]","[1,1,1,0]",0,38,38,38,1,0,1,,,0,FALSE,,,,,,,,,,,,,,,,,,,,,,,,,,,,,,
,Liseman Mhlongo,001,2022-04-29_03h02.58.700,classification_task,2021.2.3,Win32,60.04202942,60f4ac44348aacd594c61bb5,626b377229c10585ec392f89,626b38f119540aab4db94569,,,,,,,,,,,,,,,,,,,,,,,l,1,0.8663,"[""0.079"",""0.358"",""0.133"",""0.793""]","[1,1,0,1]",0,39,39,39,1,1,0,,,0,FALSE,,,,,,,,,,,,,,,,,,,,,,,,,,,,,,
,Liseman Mhlongo,001,2022-04-29_03h02.58.700,classification_task,2021.2.3,Win32,60.04202942,60f4ac44348aacd594c61bb5,626b377229c10585ec392f89,626b38f119540aab4db94569,,,,,,,,,,,,,,,,,,,,,,,a,1,1.0145,"[""0.206"",""0.119"",""0.700"",""0.853""]","[1,0,1,1]",0,40,40,40,1,0,0,,,0,FALSE,,,,,,,,,,,,,,,,,,,,,,,,,,,,,,
,Liseman Mhlongo,001,2022-04-29_03h02.58.700,classification_task,2021.2.3,Win32,60.04202942,60f4ac44348aacd594c61bb5,626b377229c10585ec392f89,626b38f119540aab4db94569,,,,,,,,,,,,,,,,,,,,,,,l,0,0.8632,"[""0.245"",""0.556"",""0.700"",""0.853""]","[0,1,1,1]",0,41,41,41,1,0,0,,,0,FALSE,,,,,,,,,,,,,,,,,,,,,,,,,,,,,,
,Liseman Mhlongo,001,2022-04-29_03h02.58.700,classification_task,2021.2.3,Win32,60.04202942,60f4ac44348aacd594c61bb5,626b377229c10585ec392f89,626b38f119540aab4db94569,,,,,,,,,,,,,,,,,,,,,,,a,0,0.6837,"[""0.079"",""0.245"",""0.521"",""0.793""]","[1,0,1,1]",0,42,42,42,1,1,0,,,0,FALSE,,,,,,,,,,,,,,,,,,,,,,,,,,,,,,
,Liseman Mhlongo,001,2022-04-29_03h02.58.700,classification_task,2021.2.3,Win32,60.04202942,60f4ac44348aacd594c61bb5,626b377229c10585ec392f89,626b38f119540aab4db94569,,,,,,,,,,,,,,,,,,,,,,,a,1,0.6646,"[""0.206"",""0.556"",""0.608"",""0.853""]","[1,1,0,1]",0,43,43,43,1,0,0,,,0,FALSE,,,,,,,,,,,,,,,,,,,,,,,,,,,,,,
,Liseman Mhlongo,001,2022-04-29_03h02.58.700,classification_task,2021.2.3,Win32,60.04202942,60f4ac44348aacd594c61bb5,626b377229c10585ec392f89,626b38f119540aab4db94569,,,,,,,,,,,,,,,,,,,,,,,l,0,0.8164,"[""0.253"",""0.415"",""0.896"",""0.945""]","[0,1,1,1]",0,44,44,44,1,0,1,,,0,FALSE,,,,,,,,,,,,,,,,,,,,,,,,,,,,,,
,Liseman Mhlongo,001,2022-04-29_03h02.58.700,classification_task,2021.2.3,Win32,60.04202942,60f4ac44348aacd594c61bb5,626b377229c10585ec392f89,626b38f119540aab4db94569,,,,,,,,,,,,,,,,,,,,,,,a,0,0.3813,"[""0.458"",""0.358"",""0.521"",""0.793""]","[0,1,1,1]",0,45,45,45,1,1,0,,,0,FALSE,,,,,,,,,,,,,,,,,,,,,,,,,,,,,,
,Liseman Mhlongo,001,2022-04-29_03h02.58.700,classification_task,2021.2.3,Win32,60.04202942,60f4ac44348aacd594c61bb5,626b377229c10585ec392f89,626b38f119540aab4db94569,,,,,,,,,,,,,,,,,,,,,,,l,0,0.382,"[""0.168"",""0.115"",""0.896"",""0.945""]","[1,0,1,1]",0,46,46,46,1,0,1,,,0,FALSE,,,,,,,,,,,,,,,,,,,,,,,,,,,,,,
,Liseman Mhlongo,001,2022-04-29_03h02.58.700,classification_task,2021.2.3,Win32,60.04202942,60f4ac44348aacd594c61bb5,626b377229c10585ec392f89,626b38f119540aab4db94569,,,,,,,,,,,,,,,,,,,,,,,a,0,0.8474,"[""0.128"",""0.296"",""0.645"",""0.738""]","[0,1,1,1]",0,47,47,47,1,1,1,,,0,FALSE,,,,,,,,,,,,,,,,,,,,,,,,,,,,,,
,Liseman Mhlongo,001,2022-04-29_03h02.58.700,classification_task,2021.2.3,Win32,60.04202942,60f4ac44348aacd594c61bb5,626b377229c10585ec392f89,626b38f119540aab4db94569,,,,,,,,,,,,,,,,,,,,,,,a,1,0.2817,"[""0.206"",""0.260"",""0.700"",""0.853""]","[1,0,1,1]",0,48,48,48,1,0,0,,,0,FALSE,,,,,,,,,,,,,,,,,,,,,,,,,,,,,,
,Liseman Mhlongo,001,2022-04-29_03h02.58.700,classification_task,2021.2.3,Win32,60.04202942,60f4ac44348aacd594c61bb5,626b377229c10585ec392f89,626b38f119540aab4db94569,,,,,,,,,,,,,,,,,,,,,,,l,1,0.8141,"[""0.079"",""0.245"",""0.521"",""0.793""]","[1,0,1,1]",0,49,49,49,1,1,0,,,0,FALSE,,,,,,,,,,,,,,,,,,,,,,,,,,,,,,
,Liseman Mhlongo,001,2022-04-29_03h02.58.700,classification_task,2021.2.3,Win32,60.04202942,60f4ac44348aacd594c61bb5,626b377229c10585ec392f89,626b38f119540aab4db94569,,,,,,,,,,,,,,,,,,,,,,,a,1,0.8142,"[""0.168"",""0.485"",""0.896"",""0.945""]","[1,0,1,1]",0,50,50,50,1,0,1,,,0,FALSE,,,,,,,,,,,,,,,,,,,,,,,,,,,,,,
,Liseman Mhlongo,001,2022-04-29_03h02.58.700,classification_task,2021.2.3,Win32,60.04202942,60f4ac44348aacd594c61bb5,626b377229c10585ec392f89,626b38f119540aab4db94569,,,,,,,,,,,,,,,,,,,,,,,a,1,1.0973,"[""0.458"",""0.415"",""0.896"",""0.945""]","[0,1,1,1]",0,51,51,51,1,0,1,,,0,FALSE,,,,,,,,,,,,,,,,,,,,,,,,,,,,,,
,Liseman Mhlongo,001,2022-04-29_03h02.58.700,classification_task,2021.2.3,Win32,60.04202942,60f4ac44348aacd594c61bb5,626b377229c10585ec392f89,626b38f119540aab4db94569,,,,,,,,,,,,,,,,,,,,,,,l,1,0.8483,"[""0.045"",""0.594"",""0.645"",""0.738""]","[1,0,1,1]",0,52,52,52,1,1,1,,,0,FALSE,,,,,,,,,,,,,,,,,,,,,,,,,,,,,,
,Liseman Mhlongo,001,2022-04-29_03h02.58.700,classification_task,2021.2.3,Win32,60.04202942,60f4ac44348aacd594c61bb5,626b377229c10585ec392f89,626b38f119540aab4db94569,,,,,,,,,,,,,,,,,,,,,,,a,1,0.7307,"[""0.168"",""0.415"",""0.246"",""0.945""]","[1,1,0,1]",0,53,53,53,1,0,1,,,0,FALSE,,,,,,,,,,,,,,,,,,,,,,,,,,,,,,
,Liseman Mhlongo,001,2022-04-29_03h02.58.700,classification_task,2021.2.3,Win32,60.04202942,60f4ac44348aacd594c61bb5,626b377229c10585ec392f89,626b38f119540aab4db94569,,,,,,,,,,,,,,,,,,,,,,,l,1,0.8649,"[""0.079"",""0.358"",""0.260"",""0.793""]","[1,1,0,1]",0,54,54,54,1,1,0,,,0,FALSE,,,,,,,,,,,,,,,,,,,,,,,,,,,,,,
,Liseman Mhlongo,001,2022-04-29_03h02.58.700,classification_task,2021.2.3,Win32,60.04202942,60f4ac44348aacd594c61bb5,626b377229c10585ec392f89,626b38f119540aab4db94569,,,,,,,,,,,,,,,,,,,,,,,a,1,1.0635,"[""0.206"",""0.556"",""0.458"",""0.853""]","[1,1,0,1]",0,55,55,55,1,0,0,,,0,FALSE,,,,,,,,,,,,,,,,,,,,,,,,,,,,,,
,Liseman Mhlongo,001,2022-04-29_03h02.58.700,classification_task,2021.2.3,Win32,60.04202942,60f4ac44348aacd594c61bb5,626b377229c10585ec392f89,626b38f119540aab4db94569,,,,,,,,,,,,,,,,,,,,,,,l,1,0.7648,"[""0.458"",""0.358"",""0.521"",""0.793""]","[0,1,1,1]",0,56,56,56,1,1,0,,,0,FALSE,,,,,,,,,,,,,,,,,,,,,,,,,,,,,,
,Liseman Mhlongo,001,2022-04-29_03h02.58.700,classification_task,2021.2.3,Win32,60.04202942,60f4ac44348aacd594c61bb5,626b377229c10585ec392f89,626b38f119540aab4db94569,,,,,,,,,,,,,,,,,,,,,,,a,1,0.4979,"[""0.260"",""0.556"",""0.700"",""0.853""]","[0,1,1,1]",0,57,57,57,1,0,0,,,0,FALSE,,,,,,,,,,,,,,,,,,,,,,,,,,,,,,
,Liseman Mhlongo,001,2022-04-29_03h02.58.700,classification_task,2021.2.3,Win32,60.04202942,60f4ac44348aacd594c61bb5,626b377229c10585ec392f89,626b38f119540aab4db94569,,,,,,,,,,,,,,,,,,,,,,,l,1,0.6312,"[""0.045"",""0.296"",""0.479"",""0.738""]","[1,1,0,1]",0,58,58,58,1,1,1,,,0,FALSE,,,,,,,,,,,,,,,,,,,,,,,,,,,,,,
,Liseman Mhlongo,001,2022-04-29_03h02.58.700,classification_task,2021.2.3,Win32,60.04202942,60f4ac44348aacd594c61bb5,626b377229c10585ec392f89,626b38f119540aab4db94569,,,,,,,,,,,,,,,,,,,,,,,a,0,0.4816,"[""0.079"",""0.358"",""0.521"",""0.461""]","[1,1,1,0]",0,59,59,59,1,1,0,,,0,FALSE,,,,,,,,,,,,,,,,,,,,,,,,,,,,,,
,Liseman Mhlongo,001,2022-04-29_03h02.58.700,classification_task,2021.2.3,Win32,60.04202942,60f4ac44348aacd594c61bb5,626b377229c10585ec392f89,626b38f119540aab4db94569,,,,,,,,,,,,,,,,,,,,,,,a,1,0.3989,"[""0.168"",""0.415"",""0.896"",""0.608""]","[1,1,1,0]",0,60,60,60,1,0,1,,,0,FALSE,,,,,,,,,,,,,,,,,,,,,,,,,,,,,,
,Liseman Mhlongo,001,2022-04-29_03h02.58.700,classification_task,2021.2.3,Win32,60.04202942,60f4ac44348aacd594c61bb5,626b377229c10585ec392f89,626b38f119540aab4db94569,,,,,,,,,,,,,,,,,,,,,,,a,1,0.6144,"[""0.206"",""0.556"",""0.700"",""0.245""]","[1,1,1,0]",0,61,61,61,1,0,0,,,0,FALSE,,,,,,,,,,,,,,,,,,,,,,,,,,,,,,
,Liseman Mhlongo,001,2022-04-29_03h02.58.700,classification_task,2021.2.3,Win32,60.04202942,60f4ac44348aacd594c61bb5,626b377229c10585ec392f89,626b38f119540aab4db94569,,,,,,,,,,,,,,,,,,,,,,,a,0,0.5646,"[""0.045"",""0.296"",""0.645"",""0.246""]","[1,1,1,0]",0,62,62,62,1,1,1,,,0,FALSE,,,,,,,,,,,,,,,,,,,,,,,,,,,,,,
,Liseman Mhlongo,001,2022-04-29_03h02.58.700,classification_task,2021.2.3,Win32,60.04202942,60f4ac44348aacd594c61bb5,626b377229c10585ec392f89,626b38f119540aab4db94569,,,,,,,,,,,,,,,,,,,,,,,a,0,0.4151,"[""0.485"",""0.296"",""0.645"",""0.738""]","[0,1,1,1]",0,63,63,63,1,1,1,,,0,FALSE,,,,,,,,,,,,,,,,,,,,,,,,,,,,,,
,Liseman Mhlongo,001,2022-04-29_03h02.58.700,classification_task,2021.2.3,Win32,60.04202942,60f4ac44348aacd594c61bb5,626b377229c10585ec392f89,626b38f119540aab4db94569,,,,,,,,,,,,,,,,,,,,,,,,,,,,,,,,,,,,,,,0, ,,0,4.793320106,130.9428,0,1,1,1,1,2,2,,,,,,,,,,,,,,,,,
,Liseman Mhlongo,001,2022-04-29_03h02.58.700,classification_task,2021.2.3,Win32,60.04202942,60f4ac44348aacd594c61bb5,626b377229c10585ec392f89,626b38f119540aab4db94569,,,,,,,,,,,,,,,,,,,,,,,,,,,,,,,,,,,,,,,1,  ,,0,10,135.1229,0,1,1,1,1,2,2,,,,,,,,,,,,,,,,,
,Liseman Mhlongo,001,2022-04-29_03h02.58.700,classification_task,2021.2.3,Win32,60.04202942,60f4ac44348aacd594c61bb5,626b377229c10585ec392f89,626b38f119540aab4db94569,,,,,,,,,,,,,,,,,,,,,,,,,,,,,,,,,,,,,,,2,  ,,0,10,138.9986,0,1,1,1,1,2,2,,,,,,,,,,,,,,,,,
,Liseman Mhlongo,001,2022-04-29_03h02.58.700,classification_task,2021.2.3,Win32,60.04202942,60f4ac44348aacd594c61bb5,626b377229c10585ec392f89,626b38f119540aab4db94569,,,,,,,,,,,,,,,,,,,,,,,,,,,,,,,,,,,,,,,,,,,,,0,1,1,1,1,,2,,,,,,,,,,,,,,,,,
,Liseman Mhlongo,001,2022-04-29_03h02.58.700,classification_task,2021.2.3,Win32,60.04202942,60f4ac44348aacd594c61bb5,626b377229c10585ec392f89,626b38f119540aab4db94569,,,,,,,,,,,,,,,,,,,,,space,4.6475,a,0,1.1896,"[""0.079"",""0.358"",""0.521"",""0.115""]","[1,1,1,0]",0,0,0,0,1,1,0,,,0,FALSE,,,,,,,,,,,,,,,,,,,,,,,,,,,,,,
,Liseman Mhlongo,001,2022-04-29_03h02.58.700,classification_task,2021.2.3,Win32,60.04202942,60f4ac44348aacd594c61bb5,626b377229c10585ec392f89,626b38f119540aab4db94569,,,,,,,,,,,,,,,,,,,,,,,a,1,0.6638,"[""0.461"",""0.556"",""0.700"",""0.853""]","[0,1,1,1]",0,1,1,1,1,0,0,,,0,FALSE,,,,,,,,,,,,,,,,,,,,,,,,,,,,,,
,Liseman Mhlongo,001,2022-04-29_03h02.58.700,classification_task,2021.2.3,Win32,60.04202942,60f4ac44348aacd594c61bb5,626b377229c10585ec392f89,626b38f119540aab4db94569,,,,,,,,,,,,,,,,,,,,,,,l,1,0.7303,"[""0.079"",""0.358"",""0.245"",""0.793""]","[1,1,0,1]",0,2,2,2,1,1,0,,,0,FALSE,,,,,,,,,,,,,,,,,,,,,,,,,,,,,,
,Liseman Mhlongo,001,2022-04-29_03h02.58.700,classification_task,2021.2.3,Win32,60.04202942,60f4ac44348aacd594c61bb5,626b377229c10585ec392f89,626b38f119540aab4db94569,,,,,,,,,,,,,,,,,,,,,,,a,1,1.4923,"[""0.206"",""0.608"",""0.700"",""0.853""]","[1,0,1,1]",0,3,3,3,1,0,0,,,0,FALSE,,,,,,,,,,,,,,,,,,,,,,,,,,,,,,
,Liseman Mhlongo,001,2022-04-29_03h02.58.700,classification_task,2021.2.3,Win32,60.04202942,60f4ac44348aacd594c61bb5,626b377229c10585ec392f89,626b38f119540aab4db94569,,,,,,,,,,,,,,,,,,,,,,,a,1,1.0475,"[""0.479"",""0.415"",""0.896"",""0.945""]","[0,1,1,1]",0,4,4,4,1,0,1,,,0,FALSE,,,,,,,,,,,,,,,,,,,,,,,,,,,,,,
,Liseman Mhlongo,001,2022-04-29_03h02.58.700,classification_task,2021.2.3,Win32,60.04202942,60f4ac44348aacd594c61bb5,626b377229c10585ec392f89,626b38f119540aab4db94569,,,,,,,,,,,,,,,,,,,,,,,l,1,0.8141,"[""0.119"",""0.358"",""0.521"",""0.793""]","[0,1,1,1]",0,5,5,5,1,1,0,,,0,FALSE,,,,,,,,,,,,,,,,,,,,,,,,,,,,,,
,Liseman Mhlongo,001,2022-04-29_03h02.58.700,classification_task,2021.2.3,Win32,60.04202942,60f4ac44348aacd594c61bb5,626b377229c10585ec392f89,626b38f119540aab4db94569,,,,,,,,,,,,,,,,,,,,,,,l,1,0.6936,"[""0.458"",""0.296"",""0.645"",""0.738""]","[0,1,1,1]",0,6,6,6,1,1,1,,,0,FALSE,,,,,,,,,,,,,,,,,,,,,,,,,,,,,,
,Liseman Mhlongo,001,2022-04-29_03h02.58.700,classification_task,2021.2.3,Win32,60.04202942,60f4ac44348aacd594c61bb5,626b377229c10585ec392f89,626b38f119540aab4db94569,,,,,,,,,,,,,,,,,,,,,,,a,1,0.7951,"[""0.168"",""0.415"",""0.896"",""0.245""]","[1,1,1,0]",0,7,7,7,1,0,1,,,0,FALSE,,,,,,,,,,,,,,,,,,,,,,,,,,,,,,
,Liseman Mhlongo,001,2022-04-29_03h02.58.700,classification_task,2021.2.3,Win32,60.04202942,60f4ac44348aacd594c61bb5,626b377229c10585ec392f89,626b38f119540aab4db94569,,,,,,,,,,,,,,,,,,,,,,,a,0,0.9294,"[""0.045"",""0.296"",""0.645"",""0.458""]","[1,1,1,0]",0,8,8,8,1,1,1,,,0,FALSE,,,,,,,,,,,,,,,,,,,,,,,,,,,,,,
,Liseman Mhlongo,001,2022-04-29_03h02.58.700,classification_task,2021.2.3,Win32,60.04202942,60f4ac44348aacd594c61bb5,626b377229c10585ec392f89,626b38f119540aab4db94569,,,,,,,,,,,,,,,,,,,,,,,a,1,0.8287,"[""0.206"",""0.556"",""0.700"",""0.246""]","[1,1,1,0]",0,9,9,9,1,0,0,,,0,FALSE,,,,,,,,,,,,,,,,,,,,,,,,,,,,,,
,Liseman Mhlongo,001,2022-04-29_03h02.58.700,classification_task,2021.2.3,Win32,60.04202942,60f4ac44348aacd594c61bb5,626b377229c10585ec392f89,626b38f119540aab4db94569,,,,,,,,,,,,,,,,,,,,,,,a,0,0.415,"[""0.045"",""0.296"",""0.260"",""0.738""]","[1,1,0,1]",0,10,10,10,1,1,1,,,0,FALSE,,,,,,,,,,,,,,,,,,,,,,,,,,,,,,
,Liseman Mhlongo,001,2022-04-29_03h02.58.700,classification_task,2021.2.3,Win32,60.04202942,60f4ac44348aacd594c61bb5,626b377229c10585ec392f89,626b38f119540aab4db94569,,,,,,,,,,,,,,,,,,,,,,,a,1,0.3787,"[""0.168"",""0.260"",""0.896"",""0.945""]","[1,0,1,1]",0,11,11,11,1,0,1,,,0,FALSE,,,,,,,,,,,,,,,,,,,,,,,,,,,,,,
,Liseman Mhlongo,001,2022-04-29_03h02.58.700,classification_task,2021.2.3,Win32,60.04202942,60f4ac44348aacd594c61bb5,626b377229c10585ec392f89,626b38f119540aab4db94569,,,,,,,,,,,,,,,,,,,,,,,l,0,0.2108,"[""0.206"",""0.556"",""0.253"",""0.853""]","[1,1,0,1]",0,12,12,12,1,0,0,,,0,FALSE,,,,,,,,,,,,,,,,,,,,,,,,,,,,,,
,Liseman Mhlongo,001,2022-04-29_03h02.58.700,classification_task,2021.2.3,Win32,60.04202942,60f4ac44348aacd594c61bb5,626b377229c10585ec392f89,626b38f119540aab4db94569,,,,,,,,,,,,,,,,,,,,,,,a,0,0.6159,"[""0.079"",""0.245"",""0.521"",""0.793""]","[1,0,1,1]",0,13,13,13,1,1,0,,,0,FALSE,,,,,,,,,,,,,,,,,,,,,,,,,,,,,,
,Liseman Mhlongo,001,2022-04-29_03h02.58.700,classification_task,2021.2.3,Win32,60.04202942,60f4ac44348aacd594c61bb5,626b377229c10585ec392f89,626b38f119540aab4db94569,,,,,,,,,,,,,,,,,,,,,,,l,0,0.2892,"[""0.168"",""0.415"",""0.594"",""0.945""]","[1,1,0,1]",0,14,14,14,1,0,1,,,0,FALSE,,,,,,,,,,,,,,,,,,,,,,,,,,,,,,
,Liseman Mhlongo,001,2022-04-29_03h02.58.700,classification_task,2021.2.3,Win32,60.04202942,60f4ac44348aacd594c61bb5,626b377229c10585ec392f89,626b38f119540aab4db94569,,,,,,,,,,,,,,,,,,,,,,,a,0,0.3764,"[""0.045"",""0.113"",""0.645"",""0.738""]","[1,0,1,1]",0,15,15,15,1,1,1,,,0,FALSE,,,,,,,,,,,,,,,,,,,,,,,,,,,,,,
,Liseman Mhlongo,001,2022-04-29_03h02.58.700,classification_task,2021.2.3,Win32,60.04202942,60f4ac44348aacd594c61bb5,626b377229c10585ec392f89,626b38f119540aab4db94569,,,,,,,,,,,,,,,,,,,,,,,l,0,0.3124,"[""0.206"",""0.458"",""0.700"",""0.853""]","[1,0,1,1]",0,16,16,16,1,0,0,,,0,FALSE,,,,,,,,,,,,,,,,,,,,,,,,,,,,,,
,Liseman Mhlongo,001,2022-04-29_03h02.58.700,classification_task,2021.2.3,Win32,60.04202942,60f4ac44348aacd594c61bb5,626b377229c10585ec392f89,626b38f119540aab4db94569,,,,,,,,,,,,,,,,,,,,,,,a,1,0.4763,"[""0.206"",""0.556"",""0.700"",""0.458""]","[1,1,1,0]",0,17,17,17,1,0,0,,,0,FALSE,,,,,,,,,,,,,,,,,,,,,,,,,,,,,,
,Liseman Mhlongo,001,2022-04-29_03h02.58.700,classification_task,2021.2.3,Win32,60.04202942,60f4ac44348aacd594c61bb5,626b377229c10585ec392f89,626b38f119540aab4db94569,,,,,,,,,,,,,,,,,,,,,,,a,0,0.3953,"[""0.045"",""0.296"",""0.119"",""0.738""]","[1,1,0,1]",0,18,18,18,1,1,1,,,0,FALSE,,,,,,,,,,,,,,,,,,,,,,,,,,,,,,
,Liseman Mhlongo,001,2022-04-29_03h02.58.700,classification_task,2021.2.3,Win32,60.04202942,60f4ac44348aacd594c61bb5,626b377229c10585ec392f89,626b38f119540aab4db94569,,,,,,,,,,,,,,,,,,,,,,,l,1,0.3274,"[""0.079"",""0.245"",""0.521"",""0.793""]","[1,0,1,1]",0,19,19,19,1,1,0,,,0,FALSE,,,,,,,,,,,,,,,,,,,,,,,,,,,,,,
,Liseman Mhlongo,001,2022-04-29_03h02.58.700,classification_task,2021.2.3,Win32,60.04202942,60f4ac44348aacd594c61bb5,626b377229c10585ec392f89,626b38f119540aab4db94569,,,,,,,,,,,,,,,,,,,,,,,l,1,0.26,"[""0.045"",""0.133"",""0.645"",""0.738""]","[1,0,1,1]",0,20,20,20,1,1,1,,,0,FALSE,,,,,,,,,,,,,,,,,,,,,,,,,,,,,,
,Liseman Mhlongo,001,2022-04-29_03h02.58.700,classification_task,2021.2.3,Win32,60.04202942,60f4ac44348aacd594c61bb5,626b377229c10585ec392f89,626b38f119540aab4db94569,,,,,,,,,,,,,,,,,,,,,,,a,0,0.8417,"[""0.115"",""0.358"",""0.521"",""0.793""]","[0,1,1,1]",0,21,21,21,1,1,0,,,0,FALSE,,,,,,,,,,,,,,,,,,,,,,,,,,,,,,
,Liseman Mhlongo,001,2022-04-29_03h02.58.700,classification_task,2021.2.3,Win32,60.04202942,60f4ac44348aacd594c61bb5,626b377229c10585ec392f89,626b38f119540aab4db94569,,,,,,,,,,,,,,,,,,,,,,,a,0,0.827,"[""0.461"",""0.296"",""0.645"",""0.738""]","[0,1,1,1]",0,22,22,22,1,1,1,,,0,FALSE,,,,,,,,,,,,,,,,,,,,,,,,,,,,,,
,Liseman Mhlongo,001,2022-04-29_03h02.58.700,classification_task,2021.2.3,Win32,60.04202942,60f4ac44348aacd594c61bb5,626b377229c10585ec392f89,626b38f119540aab4db94569,,,,,,,,,,,,,,,,,,,,,,,l,0,0.6091,"[""0.479"",""0.415"",""0.896"",""0.945""]","[0,1,1,1]",0,23,23,23,1,0,1,,,0,FALSE,,,,,,,,,,,,,,,,,,,,,,,,,,,,,,
,Liseman Mhlongo,001,2022-04-29_03h02.58.700,classification_task,2021.2.3,Win32,60.04202942,60f4ac44348aacd594c61bb5,626b377229c10585ec392f89,626b38f119540aab4db94569,,,,,,,,,,,,,,,,,,,,,,,a,1,0.5945,"[""0.168"",""0.415"",""0.896"",""0.133""]","[1,1,1,0]",0,24,24,24,1,0,1,,,0,FALSE,,,,,,,,,,,,,,,,,,,,,,,,,,,,,,
,Liseman Mhlongo,001,2022-04-29_03h02.58.700,classification_task,2021.2.3,Win32,60.04202942,60f4ac44348aacd594c61bb5,626b377229c10585ec392f89,626b38f119540aab4db94569,,,,,,,,,,,,,,,,,,,,,,,l,1,0.6297,"[""0.079"",""0.358"",""0.119"",""0.793""]","[1,1,0,1]",0,25,25,25,1,1,0,,,0,FALSE,,,,,,,,,,,,,,,,,,,,,,,,,,,,,,
,Liseman Mhlongo,001,2022-04-29_03h02.58.700,classification_task,2021.2.3,Win32,60.04202942,60f4ac44348aacd594c61bb5,626b377229c10585ec392f89,626b38f119540aab4db94569,,,,,,,,,,,,,,,,,,,,,,,l,0,0.85,"[""0.115"",""0.556"",""0.700"",""0.853""]","[0,1,1,1]",0,26,26,26,1,0,0,,,0,FALSE,,,,,,,,,,,,,,,,,,,,,,,,,,,,,,
,Liseman Mhlongo,001,2022-04-29_03h02.58.700,classification_task,2021.2.3,Win32,60.04202942,60f4ac44348aacd594c61bb5,626b377229c10585ec392f89,626b38f119540aab4db94569,,,,,,,,,,,,,,,,,,,,,,,a,0,1.0755,"[""0.079"",""0.358"",""0.521"",""0.253""]","[1,1,1,0]",0,27,27,27,1,1,0,,,0,FALSE,,,,,,,,,,,,,,,,,,,,,,,,,,,,,,
,Liseman Mhlongo,001,2022-04-29_03h02.58.700,classification_task,2021.2.3,Win32,60.04202942,60f4ac44348aacd594c61bb5,626b377229c10585ec392f89,626b38f119540aab4db94569,,,,,,,,,,,,,,,,,,,,,,,a,1,0.6955,"[""0.168"",""0.246"",""0.896"",""0.945""]","[1,0,1,1]",0,28,28,28,1,0,1,,,0,FALSE,,,,,,,,,,,,,,,,,,,,,,,,,,,,,,
,Liseman Mhlongo,001,2022-04-29_03h02.58.700,classification_task,2021.2.3,Win32,60.04202942,60f4ac44348aacd594c61bb5,626b377229c10585ec392f89,626b38f119540aab4db94569,,,,,,,,,,,,,,,,,,,,,,,a,1,0.4455,"[""0.206"",""0.556"",""0.115"",""0.853""]","[1,1,0,1]",0,29,29,29,1,0,0,,,0,FALSE,,,,,,,,,,,,,,,,,,,,,,,,,,,,,,
,Liseman Mhlongo,001,2022-04-29_03h02.58.700,classification_task,2021.2.3,Win32,60.04202942,60f4ac44348aacd594c61bb5,626b377229c10585ec392f89,626b38f119540aab4db94569,,,,,,,,,,,,,,,,,,,,,,,a,0,0.6939,"[""0.045"",""0.296"",""0.645"",""0.113""]","[1,1,1,0]",0,30,30,30,1,1,1,,,0,FALSE,,,,,,,,,,,,,,,,,,,,,,,,,,,,,,
,Liseman Mhlongo,001,2022-04-29_03h02.58.700,classification_task,2021.2.3,Win32,60.04202942,60f4ac44348aacd594c61bb5,626b377229c10585ec392f89,626b38f119540aab4db94569,,,,,,,,,,,,,,,,,,,,,,,l,0,0.6277,"[""0.168"",""0.415"",""0.479"",""0.945""]","[1,1,0,1]",0,31,31,31,1,0,1,,,0,FALSE,,,,,,,,,,,,,,,,,,,,,,,,,,,,,,
,Liseman Mhlongo,001,2022-04-29_03h02.58.700,classification_task,2021.2.3,Win32,60.04202942,60f4ac44348aacd594c61bb5,626b377229c10585ec392f89,626b38f119540aab4db94569,,,,,,,,,,,,,,,,,,,,,,,a,1,0.9466,"[""0.206"",""0.119"",""0.700"",""0.853""]","[1,0,1,1]",0,32,32,32,1,0,0,,,0,FALSE,,,,,,,,,,,,,,,,,,,,,,,,,,,,,,
,Liseman Mhlongo,001,2022-04-29_03h02.58.700,classification_task,2021.2.3,Win32,60.04202942,60f4ac44348aacd594c61bb5,626b377229c10585ec392f89,626b38f119540aab4db94569,,,,,,,,,,,,,,,,,,,,,,,a,0,1.8136,"[""0.079"",""0.461"",""0.521"",""0.793""]","[1,0,1,1]",0,33,33,33,1,1,0,,,0,FALSE,,,,,,,,,,,,,,,,,,,,,,,,,,,,,,
,Liseman Mhlongo,001,2022-04-29_03h02.58.700,classification_task,2021.2.3,Win32,60.04202942,60f4ac44348aacd594c61bb5,626b377229c10585ec392f89,626b38f119540aab4db94569,,,,,,,,,,,,,,,,,,,,,,,l,0,1.0445,"[""0.168"",""0.608"",""0.896"",""0.945""]","[1,0,1,1]",0,34,34,34,1,0,1,,,0,FALSE,,,,,,,,,,,,,,,,,,,,,,,,,,,,,,
,Liseman Mhlongo,001,2022-04-29_03h02.58.700,classification_task,2021.2.3,Win32,60.04202942,60f4ac44348aacd594c61bb5,626b377229c10585ec392f89,626b38f119540aab4db94569,,,,,,,,,,,,,,,,,,,,,,,l,1,1.1477,"[""0.045"",""0.296"",""0.246"",""0.738""]","[1,1,0,1]",0,35,35,35,1,1,1,,,0,FALSE,,,,,,,,,,,,,,,,,,,,,,,,,,,,,,
,Liseman Mhlongo,001,2022-04-29_03h02.58.700,classification_task,2021.2.3,Win32,60.04202942,60f4ac44348aacd594c61bb5,626b377229c10585ec392f89,626b38f119540aab4db94569,,,,,,,,,,,,,,,,,,,,,,,a,0,0.8453,"[""0.045"",""0.461"",""0.645"",""0.738""]","[1,0,1,1]",0,36,36,36,1,1,1,,,0,FALSE,,,,,,,,,,,,,,,,,,,,,,,,,,,,,,
,Liseman Mhlongo,001,2022-04-29_03h02.58.700,classification_task,2021.2.3,Win32,60.04202942,60f4ac44348aacd594c61bb5,626b377229c10585ec392f89,626b38f119540aab4db94569,,,,,,,,,,,,,,,,,,,,,,,a,1,0.8143,"[""0.253"",""0.556"",""0.700"",""0.853""]","[0,1,1,1]",0,37,37,37,1,0,0,,,0,FALSE,,,,,,,,,,,,,,,,,,,,,,,,,,,,,,
,Liseman Mhlongo,001,2022-04-29_03h02.58.700,classification_task,2021.2.3,Win32,60.04202942,60f4ac44348aacd594c61bb5,626b377229c10585ec392f89,626b38f119540aab4db94569,,,,,,,,,,,,,,,,,,,,,,,a,1,0.7259,"[""0.458"",""0.415"",""0.896"",""0.945""]","[0,1,1,1]",0,38,38,38,1,0,1,,,0,FALSE,,,,,,,,,,,,,,,,,,,,,,,,,,,,,,
,Liseman Mhlongo,001,2022-04-29_03h02.58.700,classification_task,2021.2.3,Win32,60.04202942,60f4ac44348aacd594c61bb5,626b377229c10585ec392f89,626b38f119540aab4db94569,,,,,,,,,,,,,,,,,,,,,,,l,1,0.8148,"[""0.461"",""0.358"",""0.521"",""0.793""]","[0,1,1,1]",0,39,39,39,1,1,0,,,0,FALSE,,,,,,,,,,,,,,,,,,,,,,,,,,,,,,
,Liseman Mhlongo,001,2022-04-29_03h02.58.700,classification_task,2021.2.3,Win32,60.04202942,60f4ac44348aacd594c61bb5,626b377229c10585ec392f89,626b38f119540aab4db94569,,,,,,,,,,,,,,,,,,,,,,,a,1,0.7794,"[""0.206"",""0.556"",""0.700"",""0.133""]","[1,1,1,0]",0,40,40,40,1,0,0,,,0,FALSE,,,,,,,,,,,,,,,,,,,,,,,,,,,,,,
,Liseman Mhlongo,001,2022-04-29_03h02.58.700,classification_task,2021.2.3,Win32,60.04202942,60f4ac44348aacd594c61bb5,626b377229c10585ec392f89,626b38f119540aab4db94569,,,,,,,,,,,,,,,,,,,,,,,a,1,0.7281,"[""0.168"",""0.415"",""0.896"",""0.461""]","[1,1,1,0]",0,41,41,41,1,0,1,,,0,FALSE,,,,,,,,,,,,,,,,,,,,,,,,,,,,,,
,Liseman Mhlongo,001,2022-04-29_03h02.58.700,classification_task,2021.2.3,Win32,60.04202942,60f4ac44348aacd594c61bb5,626b377229c10585ec392f89,626b38f119540aab4db94569,,,,,,,,,,,,,,,,,,,,,,,l,1,0.4445,"[""0.045"",""0.296"",""0.645"",""0.119""]","[1,1,1,0]",0,42,42,42,1,1,1,,,0,FALSE,,,,,,,,,,,,,,,,,,,,,,,,,,,,,,
,Liseman Mhlongo,001,2022-04-29_03h02.58.700,classification_task,2021.2.3,Win32,60.04202942,60f4ac44348aacd594c61bb5,626b377229c10585ec392f89,626b38f119540aab4db94569,,,,,,,,,,,,,,,,,,,,,,,l,0,1.0482,"[""0.206"",""0.556"",""0.133"",""0.853""]","[1,1,0,1]",0,43,43,43,1,0,0,,,0,FALSE,,,,,,,,,,,,,,,,,,,,,,,,,,,,,,
,Liseman Mhlongo,001,2022-04-29_03h02.58.700,classification_task,2021.2.3,Win32,60.04202942,60f4ac44348aacd594c61bb5,626b377229c10585ec392f89,626b38f119540aab4db94569,,,,,,,,,,,,,,,,,,,,,,,l,1,0.6015,"[""0.079"",""0.358"",""0.485"",""0.793""]","[1,1,0,1]",0,44,44,44,1,1,0,,,0,FALSE,,,,,,,,,,,,,,,,,,,,,,,,,,,,,,
,Liseman Mhlongo,001,2022-04-29_03h02.58.700,classification_task,2021.2.3,Win32,60.04202942,60f4ac44348aacd594c61bb5,626b377229c10585ec392f89,626b38f119540aab4db94569,,,,,,,,,,,,,,,,,,,,,,,a,0,0.6827,"[""0.245"",""0.296"",""0.645"",""0.738""]","[0,1,1,1]",0,45,45,45,1,1,1,,,0,FALSE,,,,,,,,,,,,,,,,,,,,,,,,,,,,,,
,Liseman Mhlongo,001,2022-04-29_03h02.58.700,classification_task,2021.2.3,Win32,60.04202942,60f4ac44348aacd594c61bb5,626b377229c10585ec392f89,626b38f119540aab4db94569,,,,,,,,,,,,,,,,,,,,,,,l,1,0.8865,"[""0.079"",""0.358"",""0.521"",""0.458""]","[1,1,1,0]",0,46,46,46,1,1,0,,,0,FALSE,,,,,,,,,,,,,,,,,,,,,,,,,,,,,,
,Liseman Mhlongo,001,2022-04-29_03h02.58.700,classification_task,2021.2.3,Win32,60.04202942,60f4ac44348aacd594c61bb5,626b377229c10585ec392f89,626b38f119540aab4db94569,,,,,,,,,,,,,,,,,,,,,,,l,0,0.7636,"[""0.168"",""0.415"",""0.119"",""0.945""]","[1,1,0,1]",0,47,47,47,1,0,1,,,0,FALSE,,,,,,,,,,,,,,,,,,,,,,,,,,,,,,
,Liseman Mhlongo,001,2022-04-29_03h02.58.700,classification_task,2021.2.3,Win32,60.04202942,60f4ac44348aacd594c61bb5,626b377229c10585ec392f89,626b38f119540aab4db94569,,,,,,,,,,,,,,,,,,,,,,,l,1,0.7663,"[""0.079"",""0.594"",""0.521"",""0.793""]","[1,0,1,1]",0,48,48,48,1,1,0,,,0,FALSE,,,,,,,,,,,,,,,,,,,,,,,,,,,,,,
,Liseman Mhlongo,001,2022-04-29_03h02.58.700,classification_task,2021.2.3,Win32,60.04202942,60f4ac44348aacd594c61bb5,626b377229c10585ec392f89,626b38f119540aab4db94569,,,,,,,,,,,,,,,,,,,,,,,l,1,0.8767,"[""0.485"",""0.358"",""0.521"",""0.793""]","[0,1,1,1]",0,49,49,49,1,1,0,,,0,FALSE,,,,,,,,,,,,,,,,,,,,,,,,,,,,,,
,Liseman Mhlongo,001,2022-04-29_03h02.58.700,classification_task,2021.2.3,Win32,60.04202942,60f4ac44348aacd594c61bb5,626b377229c10585ec392f89,626b38f119540aab4db94569,,,,,,,,,,,,,,,,,,,,,,,a,0,0.5928,"[""0.045"",""0.246"",""0.645"",""0.738""]","[1,0,1,1]",0,50,50,50,1,1,1,,,0,FALSE,,,,,,,,,,,,,,,,,,,,,,,,,,,,,,
,Liseman Mhlongo,001,2022-04-29_03h02.58.700,classification_task,2021.2.3,Win32,60.04202942,60f4ac44348aacd594c61bb5,626b377229c10585ec392f89,626b38f119540aab4db94569,,,,,,,,,,,,,,,,,,,,,,,a,1,0.7107,"[""0.168"",""0.458"",""0.896"",""0.945""]","[1,0,1,1]",0,51,51,51,1,0,1,,,0,FALSE,,,,,,,,,,,,,,,,,,,,,,,,,,,,,,
,Liseman Mhlongo,001,2022-04-29_03h02.58.700,classification_task,2021.2.3,Win32,60.04202942,60f4ac44348aacd594c61bb5,626b377229c10585ec392f89,626b38f119540aab4db94569,,,,,,,,,,,,,,,,,,,,,,,l,1,0.9109,"[""0.079"",""0.358"",""0.253"",""0.793""]","[1,1,0,1]",0,52,52,52,1,1,0,,,0,FALSE,,,,,,,,,,,,,,,,,,,,,,,,,,,,,,
,Liseman Mhlongo,001,2022-04-29_03h02.58.700,classification_task,2021.2.3,Win32,60.04202942,60f4ac44348aacd594c61bb5,626b377229c10585ec392f89,626b38f119540aab4db94569,,,,,,,,,,,,,,,,,,,,,,,a,1,0.8292,"[""0.245"",""0.415"",""0.896"",""0.945""]","[0,1,1,1]",0,53,53,53,1,0,1,,,0,FALSE,,,,,,,,,,,,,,,,,,,,,,,,,,,,,,
,Liseman Mhlongo,001,2022-04-29_03h02.58.700,classification_task,2021.2.3,Win32,60.04202942,60f4ac44348aacd594c61bb5,626b377229c10585ec392f89,626b38f119540aab4db94569,,,,,,,,,,,,,,,,,,,,,,,l,0,0.7615,"[""0.168"",""0.415"",""0.896"",""0.461""]","[1,1,1,0]",0,54,54,54,1,0,1,,,0,FALSE,,,,,,,,,,,,,,,,,,,,,,,,,,,,,,
,Liseman Mhlongo,001,2022-04-29_03h02.58.700,classification_task,2021.2.3,Win32,60.04202942,60f4ac44348aacd594c61bb5,626b377229c10585ec392f89,626b38f119540aab4db94569,,,,,,,,,,,,,,,,,,,,,,,l,0,0.8953,"[""0.206"",""0.458"",""0.700"",""0.853""]","[1,0,1,1]",0,55,55,55,1,0,0,,,0,FALSE,,,,,,,,,,,,,,,,,,,,,,,,,,,,,,
,Liseman Mhlongo,001,2022-04-29_03h02.58.700,classification_task,2021.2.3,Win32,60.04202942,60f4ac44348aacd594c61bb5,626b377229c10585ec392f89,626b38f119540aab4db94569,,,,,,,,,,,,,,,,,,,,,,,l,0,0.8603,"[""0.206"",""0.556"",""0.700"",""0.485""]","[1,1,1,0]",0,56,56,56,1,0,0,,,0,FALSE,,,,,,,,,,,,,,,,,,,,,,,,,,,,,,
,Liseman Mhlongo,001,2022-04-29_03h02.58.700,classification_task,2021.2.3,Win32,60.04202942,60f4ac44348aacd594c61bb5,626b377229c10585ec392f89,626b38f119540aab4db94569,,,,,,,,,,,,,,,,,,,,,,,l,0,0.9812,"[""0.168"",""0.415"",""0.461"",""0.945""]","[1,1,0,1]",0,57,57,57,1,0,1,,,0,FALSE,,,,,,,,,,,,,,,,,,,,,,,,,,,,,,
,Liseman Mhlongo,001,2022-04-29_03h02.58.700,classification_task,2021.2.3,Win32,60.04202942,60f4ac44348aacd594c61bb5,626b377229c10585ec392f89,626b38f119540aab4db94569,,,,,,,,,,,,,,,,,,,,,,,l,1,0.6316,"[""0.079"",""0.358"",""0.521"",""0.608""]","[1,1,1,0]",0,58,58,58,1,1,0,,,0,FALSE,,,,,,,,,,,,,,,,,,,,,,,,,,,,,,
,Liseman Mhlongo,001,2022-04-29_03h02.58.700,classification_task,2021.2.3,Win32,60.04202942,60f4ac44348aacd594c61bb5,626b377229c10585ec392f89,626b38f119540aab4db94569,,,,,,,,,,,,,,,,,,,,,,,a,1,0.9595,"[""0.206"",""0.556"",""0.479"",""0.853""]","[1,1,0,1]",0,59,59,59,1,0,0,,,0,FALSE,,,,,,,,,,,,,,,,,,,,,,,,,,,,,,
,Liseman Mhlongo,001,2022-04-29_03h02.58.700,classification_task,2021.2.3,Win32,60.04202942,60f4ac44348aacd594c61bb5,626b377229c10585ec392f89,626b38f119540aab4db94569,,,,,,,,,,,,,,,,,,,,,,,a,0,0.5976,"[""0.133"",""0.296"",""0.645"",""0.738""]","[0,1,1,1]",0,60,60,60,1,1,1,,,0,FALSE,,,,,,,,,,,,,,,,,,,,,,,,,,,,,,
,Liseman Mhlongo,001,2022-04-29_03h02.58.700,classification_task,2021.2.3,Win32,60.04202942,60f4ac44348aacd594c61bb5,626b377229c10585ec392f89,626b38f119540aab4db94569,,,,,,,,,,,,,,,,,,,,,,,l,1,0.9942,"[""0.045"",""0.296"",""0.645"",""0.594""]","[1,1,1,0]",0,61,61,61,1,1,1,,,0,FALSE,,,,,,,,,,,,,,,,,,,,,,,,,,,,,,
,Liseman Mhlongo,001,2022-04-29_03h02.58.700,classification_task,2021.2.3,Win32,60.04202942,60f4ac44348aacd594c61bb5,626b377229c10585ec392f89,626b38f119540aab4db94569,,,,,,,,,,,,,,,,,,,,,,,l,0,0.8595,"[""0.485"",""0.556"",""0.700"",""0.853""]","[0,1,1,1]",0,62,62,62,1,0,0,,,0,FALSE,,,,,,,,,,,,,,,,,,,,,,,,,,,,,,
,Liseman Mhlongo,001,2022-04-29_03h02.58.700,classification_task,2021.2.3,Win32,60.04202942,60f4ac44348aacd594c61bb5,626b377229c10585ec392f89,626b38f119540aab4db94569,,,,,,,,,,,,,,,,,,,,,,,l,1,0.7621,"[""0.045"",""0.296"",""0.133"",""0.738""]","[1,1,0,1]",0,63,63,63,1,1,1,,,0,FALSE,,,,,,,,,,,,,,,,,,,,,,,,,,,,,,
,Liseman Mhlongo,001,2022-04-29_03h02.58.700,classification_task,2021.2.3,Win32,60.04202942,60f4ac44348aacd594c61bb5,626b377229c10585ec392f89,626b38f119540aab4db94569,,,,,,,,,,,,,,,,,,,,,,,,,,,,,,,,,,,,,,,0, ,,0,9.96031746,128.5664,0,2,2,2,1,2,3,,,,,,,,,,,,,,,,,
,Liseman Mhlongo,001,2022-04-29_03h02.58.700,classification_task,2021.2.3,Win32,60.04202942,60f4ac44348aacd594c61bb5,626b377229c10585ec392f89,626b38f119540aab4db94569,,,,,,,,,,,,,,,,,,,,,,,,,,,,,,,,,,,,,,,1,  ,,0,9.96031746,130.8869,0,2,2,2,1,2,3,,,,,,,,,,,,,,,,,
,Liseman Mhlongo,001,2022-04-29_03h02.58.700,classification_task,2021.2.3,Win32,60.04202942,60f4ac44348aacd594c61bb5,626b377229c10585ec392f89,626b38f119540aab4db94569,,,,,,,,,,,,,,,,,,,,,,,,,,,,,,,,,,,,,,,2,  ,,0,9.822530864,133.0534,0,2,2,2,1,2,3,,,,,,,,,,,,,,,,,
,Liseman Mhlongo,001,2022-04-29_03h02.58.700,classification_task,2021.2.3,Win32,60.04202942,60f4ac44348aacd594c61bb5,626b377229c10585ec392f89,626b38f119540aab4db94569,,,,,,,,,,,,,,,,,,,,,,,,,,,,,,,,,,,,,,,,,,,,,0,2,2,2,1,,3,,,,,,,,,,,,,,,,,
,Liseman Mhlongo,001,2022-04-29_03h02.58.700,classification_task,2021.2.3,Win32,60.04202942,60f4ac44348aacd594c61bb5,626b377229c10585ec392f89,626b38f119540aab4db94569,,,,,,,,,,,,,,,,,,,,,,,,,,,,,,,,,,,,,,,,,,,,,,,,,,,,,I believe the aid is a competent performer,,0.7,0,4,652.9218,0,0,0,0,1,0,,,,
,Liseman Mhlongo,001,2022-04-29_03h02.58.700,classification_task,2021.2.3,Win32,60.04202942,60f4ac44348aacd594c61bb5,626b377229c10585ec392f89,626b38f119540aab4db94569,,,,,,,,,,,,,,,,,,,,,,,,,,,,,,,,,,,,,,,,,,,,,,,,,,,,,I trust the aid,,0.7,0,2,654.7612,0,0,0,0,1,0,,,,
,Liseman Mhlongo,001,2022-04-29_03h02.58.700,classification_task,2021.2.3,Win32,60.04202942,60f4ac44348aacd594c61bb5,626b377229c10585ec392f89,626b38f119540aab4db94569,,,,,,,,,,,,,,,,,,,,,,,,,,,,,,,,,,,,,,,,,,,,,,,,,,,,,I have confidence in the advice given by the aid,,0.7,0,4,659.8477,0,0,0,0,1,0,,,,
,Liseman Mhlongo,001,2022-04-29_03h02.58.700,classification_task,2021.2.3,Win32,60.04202942,60f4ac44348aacd594c61bb5,626b377229c10585ec392f89,626b38f119540aab4db94569,,,,,,,,,,,,,,,,,,,,,,,,,,,,,,,,,,,,,,,,,,,,,,,,,,,,,I can depend on the aid,,0.7,0,3,662.1464,0,0,0,0,1,0,,,,
,Liseman Mhlongo,001,2022-04-29_03h02.58.700,classification_task,2021.2.3,Win32,60.04202942,60f4ac44348aacd594c61bb5,626b377229c10585ec392f89,626b38f119540aab4db94569,,,,,,,,,,,,,,,,,,,,,,,,,,,,,,,,,,,,,,,,,,,,,,,,,,,,,I can rely on the aid to behave in consistent ways,,0.7,0,3,664.3768,0,0,0,0,1,0,,,,
,Liseman Mhlongo,001,2022-04-29_03h02.58.700,classification_task,2021.2.3,Win32,60.04202942,60f4ac44348aacd594c61bb5,626b377229c10585ec392f89,626b38f119540aab4db94569,,,,,,,,,,,,,,,,,,,,,,,,,,,,,,,,,,,,,,,,,,,,,,,,,,,,,I can rely on the aid to do its best every time I take its advice,,0.7,0,3,669.7224,0,0,0,0,1,0,,,,
,Liseman Mhlongo,001,2022-04-29_03h02.58.700,classification_task,2021.2.3,Win32,60.04202942,60f4ac44348aacd594c61bb5,626b377229c10585ec392f89,626b38f119540aab4db94569,,,,,,,,,,,,,,,,,,,,,,,,,,,,,,,,,,,,,,,,,,,,,,,,,,,,,"On trials you completed with assistance from the aid, how frequently did you think the aid was correct?",,0.7,0,70%,,0,0,0,0,1,0,,,,
,Liseman Mhlongo,001,2022-04-29_03h02.58.700,classification_task,2021.2.3,Win32,60.04202942,60f4ac44348aacd594c61bb5,626b377229c10585ec392f89,626b38f119540aab4db94569,,,,,,,,,,,,,,,,,,,,,,,,,,,,,,,,,,,,,,,,,,,,,,,,,,,,,"On trials you completed without the aid, how frequently did you think you were correct?",,0.7,0,50%,,0,0,0,0,1,0,,,,
,Liseman Mhlongo,001,2022-04-29_03h02.58.700,classification_task,2021.2.3,Win32,60.04202942,60f4ac44348aacd594c61bb5,626b377229c10585ec392f89,626b38f119540aab4db94569,,,,,,,,,,,,,,,,,,,,,,,,,,,,,,,,,,,,,,,,,,,,,,,,,,,,,,,,,,,0,0,0,0,1,,,,,
,Liseman Mhlongo,001,2022-04-29_03h02.58.700,classification_task,2021.2.3,Win32,60.04202942,60f4ac44348aacd594c61bb5,626b377229c10585ec392f89,626b38f119540aab4db94569,,,,,,,,,,,,,,,,,,,,,,,,,,,,,,,,,,,,,,,,,,,,,,,,,,,,,,,,,,,,,,,,,space,14.7658,721.9545,
,Liseman Mhlongo,001,2022-04-29_03h02.58.700,classification_task,2021.2.3,Win32,60.04202942,60f4ac44348aacd594c61bb5,626b377229c10585ec392f89,626b38f119540aab4db94569,,,,,,,,,,,,,,,,,,,,,,,,,,,,,,,,,,,,,,,,,,,,,,,,,,,,,,,,,,,,,,,,,,,,"Mozilla/5.0 (Windows NT 10.0; Win64; x64) AppleWebKit/537.36 (KHTML, like Gecko) Chrome/100.0.4896.127 Safari/537.36"
