usingWebGL,participant,session,date,expName,psychopyVersion,OS,frameRate,PROLIFIC_PID,STUDY_ID,SESSION_ID,signatures_friend,signatures_foe,band_ranges_top,band_ranges_bottom,formitemText,formtype,formundefined,formitemWidth,formindex,formresponse,formrt,key_resp_2.keys,key_resp_2.rt,tute_resp.keys,tute_resp.rt,tutorial.thisRepN,tutorial.thisTrialN,tutorial.thisN,tutorial.thisIndex,tutorial.ran,key_resp_4.keys,key_resp_4.rt,key_resp.keys,key_resp.corr,lines_presented,is_signal_presented,trials.thisRepN,trials.thisTrialN,trials.thisN,trials.thisIndex,trials.ran,vessel,active_band,lines,is_signal,supported_pos,catch_trial,key_resp.rt,debrief_formindex,debrief_formitemText,debrief_formtype,debrief_formitemWidth,debrief_formresponse,debrief_formrt,phases.thisRepN,phases.thisTrialN,phases.thisN,phases.thisIndex,phases.ran,phases.order,phase,key_resp_3.keys,trustitemText,trusttype,trustitemWidth,trustindex,trustresponse,trustrt,support_status.thisRepN,support_status.thisTrialN,support_status.thisN,support_status.thisIndex,support_status.ran,support_status.order,key_resp_5.keys,key_resp_5.rt,globalClockTime,userAgent
TRUE,MBHONI,001,2022-04-29_04h02.15.957,classification_task,2021.2.3,Win32,60.16847172,60d093bed56de3034ee16624,626b377229c10585ec392f8a,626b3be7fef25c8db3b7257a,,,,,,,,,,,,,,,,,,,,,,,,,,,,,,,,,,,,,,,,,,,,,,,,,,,,,,,,,,,,,,,,,,,,
,MBHONI,001,2022-04-29_04h02.15.957,classification_task,2021.2.3,Win32,60.16847172,60d093bed56de3034ee16624,626b377229c10585ec392f8a,626b3be7fef25c8db3b7257a,"[[""0.270"",""0.413"",""0.613"",""0.886""],[""0.214"",""0.466"",""0.937"",""0.972""]]","[[""0.082"",""0.164"",""0.666"",""0.757""],[""0.036"",""0.373"",""0.562"",""0.835""]]","[1,10]","[100,1000]",Video game experience,,,0.7,0,,,,,,,,,,,,,,,,,,,,,,,,,,,,,,,,,,,,,,,,,,,,,,,,,,,,,,,,,,,
,MBHONI,001,2022-04-29_04h02.15.957,classification_task,2021.2.3,Win32,60.16847172,60d093bed56de3034ee16624,626b377229c10585ec392f8a,626b3be7fef25c8db3b7257a,,,,,Approximately how many hours did you spend playing video games in the last week?,,,0.7,0,2,,,,,,,,,,,,,,,,,,,,,,,,,,,,,,,,,,,,,,,,,,,,,,,,,,,,,,,,,,
,MBHONI,001,2022-04-29_04h02.15.957,classification_task,2021.2.3,Win32,60.16847172,60d093bed56de3034ee16624,626b377229c10585ec392f8a,626b3be7fef25c8db3b7257a,,,,,"Which game did you play the most this year? (Enter ""None"" if you didn't play any)",,,0.7,0,CANDY CRUSH,,,,,,,,,,,,,,,,,,,,,,,,,,,,,,,,,,,,,,,,,,,,,,,,,,,,,,,,,,
,MBHONI,001,2022-04-29_04h02.15.957,classification_task,2021.2.3,Win32,60.16847172,60d093bed56de3034ee16624,626b377229c10585ec392f8a,626b3be7fef25c8db3b7257a,,,,,Visual perception,,,0.7,0,,,,,,,,,,,,,,,,,,,,,,,,,,,,,,,,,,,,,,,,,,,,,,,,,,,,,,,,,,,
,MBHONI,001,2022-04-29_04h02.15.957,classification_task,2021.2.3,Win32,60.16847172,60d093bed56de3034ee16624,626b377229c10585ec392f8a,626b3be7fef25c8db3b7257a,,,,,Do you have any form of color blindness?,,,0.7,0,No,33.7847,,,,,,,,,,,,,,,,,,,,,,,,,,,,,,,,,,,,,,,,,,,,,,,,,,,,,,,,,
,MBHONI,001,2022-04-29_04h02.15.957,classification_task,2021.2.3,Win32,60.16847172,60d093bed56de3034ee16624,626b377229c10585ec392f8a,626b3be7fef25c8db3b7257a,,,,,Do you use software to change the colour temperature of your screen (e.g. f.lux)?,,,0.7,0,No,39.0277,,,,,,,,,,,,,,,,,,,,,,,,,,,,,,,,,,,,,,,,,,,,,,,,,,,,,,,,,
,MBHONI,001,2022-04-29_04h02.15.957,classification_task,2021.2.3,Win32,60.16847172,60d093bed56de3034ee16624,626b377229c10585ec392f8a,626b3be7fef25c8db3b7257a,,,,,,,,,,,,space,22.8292,space,12.3499,0,0,0,0,1,,,,,,,,,,,,,,,,,,,,,,,,,,,,,,,,,,,,,,,,,,,,,,,,
,MBHONI,001,2022-04-29_04h02.15.957,classification_task,2021.2.3,Win32,60.16847172,60d093bed56de3034ee16624,626b377229c10585ec392f8a,626b3be7fef25c8db3b7257a,,,,,,,,,,,,,,space,11.2688,1,0,1,0,1,,,,,,,,,,,,,,,,,,,,,,,,,,,,,,,,,,,,,,,,,,,,,,,,
,MBHONI,001,2022-04-29_04h02.15.957,classification_task,2021.2.3,Win32,60.16847172,60d093bed56de3034ee16624,626b377229c10585ec392f8a,626b3be7fef25c8db3b7257a,,,,,,,,,,,,,,space,12.526,2,0,2,0,1,,,,,,,,,,,,,,,,,,,,,,,,,,,,,,,,,,,,,,,,,,,,,,,,
,MBHONI,001,2022-04-29_04h02.15.957,classification_task,2021.2.3,Win32,60.16847172,60d093bed56de3034ee16624,626b377229c10585ec392f8a,626b3be7fef25c8db3b7257a,,,,,,,,,,,,,,space,12.2274,3,0,3,0,1,,,,,,,,,,,,,,,,,,,,,,,,,,,,,,,,,,,,,,,,,,,,,,,,
,MBHONI,001,2022-04-29_04h02.15.957,classification_task,2021.2.3,Win32,60.16847172,60d093bed56de3034ee16624,626b377229c10585ec392f8a,626b3be7fef25c8db3b7257a,,,,,,,,,,,,,,space,25.3781,4,0,4,0,1,,,,,,,,,,,,,,,,,,,,,,,,,,,,,,,,,,,,,,,,,,,,,,,,
,MBHONI,001,2022-04-29_04h02.15.957,classification_task,2021.2.3,Win32,60.16847172,60d093bed56de3034ee16624,626b377229c10585ec392f8a,626b3be7fef25c8db3b7257a,,,,,,,,,,,,,,,,,,,,,space,15.0652,,0,"[""0.214"",""0.466"",""0.509"",""0.972""]","[1,1,0,1]",0,0,0,0,1,0,1,,,1,FALSE,,,,,,,,,,,,,,,,,,,,,,,,,,,,,,,
,MBHONI,001,2022-04-29_04h02.15.957,classification_task,2021.2.3,Win32,60.16847172,60d093bed56de3034ee16624,626b377229c10585ec392f8a,626b3be7fef25c8db3b7257a,,,,,,,,,,,,,,,,,,,,,,,l,1,"[""0.036"",""0.373"",""0.562"",""0.338""]","[1,1,1,0]",0,1,1,1,1,1,1,,,1,FALSE,4.5561,,,,,,,,,,,,,,,,,,,,,,,,,,,,,,
,MBHONI,001,2022-04-29_04h02.15.957,classification_task,2021.2.3,Win32,60.16847172,60d093bed56de3034ee16624,626b377229c10585ec392f8a,626b3be7fef25c8db3b7257a,,,,,,,,,,,,,,,,,,,,,,,a,0,"[""0.082"",""0.321"",""0.666"",""0.757""]","[1,0,1,1]",0,2,2,2,1,1,0,,,1,FALSE,3.5618,,,,,,,,,,,,,,,,,,,,,,,,,,,,,,
,MBHONI,001,2022-04-29_04h02.15.957,classification_task,2021.2.3,Win32,60.16847172,60d093bed56de3034ee16624,626b377229c10585ec392f8a,626b3be7fef25c8db3b7257a,,,,,,,,,,,,,,,,,,,,,,,l,0,"[""0.711"",""0.413"",""0.613"",""0.886""]","[0,1,1,1]",0,3,3,3,1,0,0,,,1,FALSE,3.5006,,,,,,,,,,,,,,,,,,,,,,,,,,,,,,
,MBHONI,001,2022-04-29_04h02.15.957,classification_task,2021.2.3,Win32,60.16847172,60d093bed56de3034ee16624,626b377229c10585ec392f8a,626b3be7fef25c8db3b7257a,,,,,,,,,,,,,,,,,,,,,,,l,0,"[""0.270"",""0.120"",""0.613"",""0.886""]","[1,0,1,1]",0,4,4,4,1,0,0,,,1,FALSE,1.8509,,,,,,,,,,,,,,,,,,,,,,,,,,,,,,
,MBHONI,001,2022-04-29_04h02.15.957,classification_task,2021.2.3,Win32,60.16847172,60d093bed56de3034ee16624,626b377229c10585ec392f8a,626b3be7fef25c8db3b7257a,,,,,,,,,,,,,,,,,,,,,,,a,0,"[""0.036"",""0.373"",""0.509"",""0.835""]","[1,1,0,1]",0,5,5,5,1,1,1,,,1,FALSE,3.3663,,,,,,,,,,,,,,,,,,,,,,,,,,,,,,
,MBHONI,001,2022-04-29_04h02.15.957,classification_task,2021.2.3,Win32,60.16847172,60d093bed56de3034ee16624,626b377229c10585ec392f8a,626b3be7fef25c8db3b7257a,,,,,,,,,,,,,,,,,,,,,,,l,1,"[""0.711"",""0.164"",""0.666"",""0.757""]","[0,1,1,1]",0,6,6,6,1,1,0,,,1,FALSE,2.245,,,,,,,,,,,,,,,,,,,,,,,,,,,,,,
,MBHONI,001,2022-04-29_04h02.15.957,classification_task,2021.2.3,Win32,60.16847172,60d093bed56de3034ee16624,626b377229c10585ec392f8a,626b3be7fef25c8db3b7257a,,,,,,,,,,,,,,,,,,,,,,,l,1,"[""0.082"",""0.164"",""0.321"",""0.757""]","[1,1,0,1]",0,7,7,7,1,1,0,,,1,FALSE,2.2039,,,,,,,,,,,,,,,,,,,,,,,,,,,,,,
,MBHONI,001,2022-04-29_04h02.15.957,classification_task,2021.2.3,Win32,60.16847172,60d093bed56de3034ee16624,626b377229c10585ec392f8a,626b3be7fef25c8db3b7257a,,,,,,,,,,,,,,,,,,,,,,,,0,"[""0.791"",""0.373"",""0.562"",""0.835""]","[0,1,1,1]",0,8,8,8,1,1,1,,,1,FALSE,,,,,,,,,,,,,,,,,,,,,,,,,,,,,,,
,MBHONI,001,2022-04-29_04h02.15.957,classification_task,2021.2.3,Win32,60.16847172,60d093bed56de3034ee16624,626b377229c10585ec392f8a,626b3be7fef25c8db3b7257a,,,,,,,,,,,,,,,,,,,,,,,a,1,"[""0.270"",""0.413"",""0.711"",""0.886""]","[1,1,0,1]",0,9,9,9,1,0,0,,,1,FALSE,5.6964,,,,,,,,,,,,,,,,,,,,,,,,,,,,,,
,MBHONI,001,2022-04-29_04h02.15.957,classification_task,2021.2.3,Win32,60.16847172,60d093bed56de3034ee16624,626b377229c10585ec392f8a,626b3be7fef25c8db3b7257a,,,,,,,,,,,,,,,,,,,,,,,l,0,"[""0.270"",""0.413"",""0.613"",""0.321""]","[1,1,1,0]",0,10,10,10,1,0,0,,,1,FALSE,6.1443,,,,,,,,,,,,,,,,,,,,,,,,,,,,,,
,MBHONI,001,2022-04-29_04h02.15.957,classification_task,2021.2.3,Win32,60.16847172,60d093bed56de3034ee16624,626b377229c10585ec392f8a,626b3be7fef25c8db3b7257a,,,,,,,,,,,,,,,,,,,,,,,a,1,"[""0.338"",""0.466"",""0.937"",""0.972""]","[0,1,1,1]",0,11,11,11,1,0,1,,,1,FALSE,3.2992,,,,,,,,,,,,,,,,,,,,,,,,,,,,,,
,MBHONI,001,2022-04-29_04h02.15.957,classification_task,2021.2.3,Win32,60.16847172,60d093bed56de3034ee16624,626b377229c10585ec392f8a,626b3be7fef25c8db3b7257a,,,,,,,,,,,,,,,,,,,,,,,l,1,"[""0.082"",""0.164"",""0.666"",""0.120""]","[1,1,1,0]",0,12,12,12,1,1,0,,,1,FALSE,6.0844,,,,,,,,,,,,,,,,,,,,,,,,,,,,,,
,MBHONI,001,2022-04-29_04h02.15.957,classification_task,2021.2.3,Win32,60.16847172,60d093bed56de3034ee16624,626b377229c10585ec392f8a,626b3be7fef25c8db3b7257a,,,,,,,,,,,,,,,,,,,,,,,a,1,"[""0.214"",""0.509"",""0.937"",""0.972""]","[1,0,1,1]",0,13,13,13,1,0,1,,,1,FALSE,3.493,,,,,,,,,,,,,,,,,,,,,,,,,,,,,,
,MBHONI,001,2022-04-29_04h02.15.957,classification_task,2021.2.3,Win32,60.16847172,60d093bed56de3034ee16624,626b377229c10585ec392f8a,626b3be7fef25c8db3b7257a,,,,,,,,,,,,,,,,,,,,,,,a,1,"[""0.214"",""0.466"",""0.937"",""0.311""]","[1,1,1,0]",0,14,14,14,1,0,1,,,1,FALSE,4.2764,,,,,,,,,,,,,,,,,,,,,,,,,,,,,,
,MBHONI,001,2022-04-29_04h02.15.957,classification_task,2021.2.3,Win32,60.16847172,60d093bed56de3034ee16624,626b377229c10585ec392f8a,626b3be7fef25c8db3b7257a,,,,,,,,,,,,,,,,,,,,,,,l,1,"[""0.036"",""0.338"",""0.562"",""0.835""]","[1,0,1,1]",0,15,15,15,1,1,1,,,1,FALSE,3.1764,,,,,,,,,,,,,,,,,,,,,,,,,,,,,,
,MBHONI,001,2022-04-29_04h02.15.957,classification_task,2021.2.3,Win32,60.16847172,60d093bed56de3034ee16624,626b377229c10585ec392f8a,626b3be7fef25c8db3b7257a,,,,,,,,,,,,,,,,,,,,,,,a,1,"[""0.214"",""0.466"",""0.937"",""0.523""]","[1,1,1,0]",0,16,16,16,1,0,1,,,1,FALSE,2.1732,,,,,,,,,,,,,,,,,,,,,,,,,,,,,,
,MBHONI,001,2022-04-29_04h02.15.957,classification_task,2021.2.3,Win32,60.16847172,60d093bed56de3034ee16624,626b377229c10585ec392f8a,626b3be7fef25c8db3b7257a,,,,,,,,,,,,,,,,,,,,,,,l,1,"[""0.036"",""0.373"",""0.321"",""0.835""]","[1,1,0,1]",0,17,17,17,1,1,1,,,1,FALSE,2.5916,,,,,,,,,,,,,,,,,,,,,,,,,,,,,,
,MBHONI,001,2022-04-29_04h02.15.957,classification_task,2021.2.3,Win32,60.16847172,60d093bed56de3034ee16624,626b377229c10585ec392f8a,626b3be7fef25c8db3b7257a,,,,,,,,,,,,,,,,,,,,,,,l,1,"[""0.082"",""0.164"",""0.666"",""0.509""]","[1,1,1,0]",0,18,18,18,1,1,0,,,1,FALSE,3.0691,,,,,,,,,,,,,,,,,,,,,,,,,,,,,,
,MBHONI,001,2022-04-29_04h02.15.957,classification_task,2021.2.3,Win32,60.16847172,60d093bed56de3034ee16624,626b377229c10585ec392f8a,626b3be7fef25c8db3b7257a,,,,,,,,,,,,,,,,,,,,,,,a,0,"[""0.501"",""0.373"",""0.562"",""0.835""]","[0,1,1,1]",0,19,19,19,1,1,1,,,1,FALSE,2.1636,,,,,,,,,,,,,,,,,,,,,,,,,,,,,,
,MBHONI,001,2022-04-29_04h02.15.957,classification_task,2021.2.3,Win32,60.16847172,60d093bed56de3034ee16624,626b377229c10585ec392f8a,626b3be7fef25c8db3b7257a,,,,,,,,,,,,,,,,,,,,,,,l,1,"[""0.036"",""0.305"",""0.562"",""0.835""]","[1,0,1,1]",0,20,20,20,1,1,1,,,1,FALSE,4.3591,,,,,,,,,,,,,,,,,,,,,,,,,,,,,,
,MBHONI,001,2022-04-29_04h02.15.957,classification_task,2021.2.3,Win32,60.16847172,60d093bed56de3034ee16624,626b377229c10585ec392f8a,626b3be7fef25c8db3b7257a,,,,,,,,,,,,,,,,,,,,,,,a,1,"[""0.270"",""0.510"",""0.613"",""0.886""]","[1,0,1,1]",0,21,21,21,1,0,0,,,1,FALSE,3.5031,,,,,,,,,,,,,,,,,,,,,,,,,,,,,,
,MBHONI,001,2022-04-29_04h02.15.957,classification_task,2021.2.3,Win32,60.16847172,60d093bed56de3034ee16624,626b377229c10585ec392f8a,626b3be7fef25c8db3b7257a,,,,,,,,,,,,,,,,,,,,,,,a,1,"[""0.214"",""0.466"",""0.520"",""0.972""]","[1,1,0,1]",0,22,22,22,1,0,1,,,1,FALSE,2.9579,,,,,,,,,,,,,,,,,,,,,,,,,,,,,,
,MBHONI,001,2022-04-29_04h02.15.957,classification_task,2021.2.3,Win32,60.16847172,60d093bed56de3034ee16624,626b377229c10585ec392f8a,626b3be7fef25c8db3b7257a,,,,,,,,,,,,,,,,,,,,,,,l,0,"[""0.270"",""0.413"",""0.613"",""0.711""]","[1,1,1,0]",0,23,23,23,1,0,0,,,1,FALSE,3.0727,,,,,,,,,,,,,,,,,,,,,,,,,,,,,,
,MBHONI,001,2022-04-29_04h02.15.957,classification_task,2021.2.3,Win32,60.16847172,60d093bed56de3034ee16624,626b377229c10585ec392f8a,626b3be7fef25c8db3b7257a,,,,,,,,,,,,,,,,,,,,,,,a,1,"[""0.270"",""0.413"",""0.311"",""0.886""]","[1,1,0,1]",0,24,24,24,1,0,0,,,1,FALSE,2.4756,,,,,,,,,,,,,,,,,,,,,,,,,,,,,,
,MBHONI,001,2022-04-29_04h02.15.957,classification_task,2021.2.3,Win32,60.16847172,60d093bed56de3034ee16624,626b377229c10585ec392f8a,626b3be7fef25c8db3b7257a,,,,,,,,,,,,,,,,,,,,,,,a,0,"[""0.082"",""0.796"",""0.666"",""0.757""]","[1,0,1,1]",0,25,25,25,1,1,0,,,1,FALSE,2.4522,,,,,,,,,,,,,,,,,,,,,,,,,,,,,,
,MBHONI,001,2022-04-29_04h02.15.957,classification_task,2021.2.3,Win32,60.16847172,60d093bed56de3034ee16624,626b377229c10585ec392f8a,626b3be7fef25c8db3b7257a,,,,,,,,,,,,,,,,,,,,,,,a,0,"[""0.082"",""0.164"",""0.796"",""0.757""]","[1,1,0,1]",0,26,26,26,1,1,0,,,1,FALSE,3.9864,,,,,,,,,,,,,,,,,,,,,,,,,,,,,,
,MBHONI,001,2022-04-29_04h02.15.957,classification_task,2021.2.3,Win32,60.16847172,60d093bed56de3034ee16624,626b377229c10585ec392f8a,626b3be7fef25c8db3b7257a,,,,,,,,,,,,,,,,,,,,,,,a,1,"[""0.501"",""0.466"",""0.937"",""0.972""]","[0,1,1,1]",0,27,27,27,1,0,1,,,1,FALSE,2.2613,,,,,,,,,,,,,,,,,,,,,,,,,,,,,,
,MBHONI,001,2022-04-29_04h02.15.957,classification_task,2021.2.3,Win32,60.16847172,60d093bed56de3034ee16624,626b377229c10585ec392f8a,626b3be7fef25c8db3b7257a,,,,,,,,,,,,,,,,,,,,,,,a,1,"[""0.214"",""0.527"",""0.937"",""0.972""]","[1,0,1,1]",0,28,28,28,1,0,1,,,1,FALSE,2.3589,,,,,,,,,,,,,,,,,,,,,,,,,,,,,,
,MBHONI,001,2022-04-29_04h02.15.957,classification_task,2021.2.3,Win32,60.16847172,60d093bed56de3034ee16624,626b377229c10585ec392f8a,626b3be7fef25c8db3b7257a,,,,,,,,,,,,,,,,,,,,,,,l,1,"[""0.036"",""0.373"",""0.562"",""0.321""]","[1,1,1,0]",0,29,29,29,1,1,1,,,1,FALSE,3.3855,,,,,,,,,,,,,,,,,,,,,,,,,,,,,,
,MBHONI,001,2022-04-29_04h02.15.957,classification_task,2021.2.3,Win32,60.16847172,60d093bed56de3034ee16624,626b377229c10585ec392f8a,626b3be7fef25c8db3b7257a,,,,,,,,,,,,,,,,,,,,,,,a,0,"[""0.791"",""0.164"",""0.666"",""0.757""]","[0,1,1,1]",0,30,30,30,1,1,0,,,1,FALSE,3.7442,,,,,,,,,,,,,,,,,,,,,,,,,,,,,,
,MBHONI,001,2022-04-29_04h02.15.957,classification_task,2021.2.3,Win32,60.16847172,60d093bed56de3034ee16624,626b377229c10585ec392f8a,626b3be7fef25c8db3b7257a,,,,,,,,,,,,,,,,,,,,,,,a,1,"[""0.523"",""0.413"",""0.613"",""0.886""]","[0,1,1,1]",0,31,31,31,1,0,0,,,1,FALSE,2.3665,,,,,,,,,,,,,,,,,,,,,,,,,,,,,,
,MBHONI,001,2022-04-29_04h02.15.957,classification_task,2021.2.3,Win32,60.16847172,60d093bed56de3034ee16624,626b377229c10585ec392f8a,626b3be7fef25c8db3b7257a,,,,,,,,,,,,,,,,,,,,,,,a,1,"[""0.509"",""0.413"",""0.613"",""0.886""]","[0,1,1,1]",0,32,32,32,1,0,0,,,1,FALSE,2.7351,,,,,,,,,,,,,,,,,,,,,,,,,,,,,,
,MBHONI,001,2022-04-29_04h02.15.957,classification_task,2021.2.3,Win32,60.16847172,60d093bed56de3034ee16624,626b377229c10585ec392f8a,626b3be7fef25c8db3b7257a,,,,,,,,,,,,,,,,,,,,,,,a,0,"[""0.082"",""0.509"",""0.666"",""0.757""]","[1,0,1,1]",0,33,33,33,1,1,0,,,1,FALSE,4.0982,,,,,,,,,,,,,,,,,,,,,,,,,,,,,,
,MBHONI,001,2022-04-29_04h02.15.957,classification_task,2021.2.3,Win32,60.16847172,60d093bed56de3034ee16624,626b377229c10585ec392f8a,626b3be7fef25c8db3b7257a,,,,,,,,,,,,,,,,,,,,,,,a,0,"[""0.036"",""0.373"",""0.562"",""0.527""]","[1,1,1,0]",0,34,34,34,1,1,1,,,1,FALSE,3.101,,,,,,,,,,,,,,,,,,,,,,,,,,,,,,
,MBHONI,001,2022-04-29_04h02.15.957,classification_task,2021.2.3,Win32,60.16847172,60d093bed56de3034ee16624,626b377229c10585ec392f8a,626b3be7fef25c8db3b7257a,,,,,,,,,,,,,,,,,,,,,,,l,0,"[""0.509"",""0.466"",""0.937"",""0.972""]","[0,1,1,1]",0,35,35,35,1,0,1,,,1,FALSE,2.1865,,,,,,,,,,,,,,,,,,,,,,,,,,,,,,
,MBHONI,001,2022-04-29_04h02.15.957,classification_task,2021.2.3,Win32,60.16847172,60d093bed56de3034ee16624,626b377229c10585ec392f8a,626b3be7fef25c8db3b7257a,,,,,,,,,,,,,,,,,,,,,,,a,1,"[""0.214"",""0.466"",""0.520"",""0.972""]","[1,1,0,1]",0,36,36,36,1,0,1,,,1,FALSE,2.3701,,,,,,,,,,,,,,,,,,,,,,,,,,,,,,
,MBHONI,001,2022-04-29_04h02.15.957,classification_task,2021.2.3,Win32,60.16847172,60d093bed56de3034ee16624,626b377229c10585ec392f8a,626b3be7fef25c8db3b7257a,,,,,,,,,,,,,,,,,,,,,,,a,0,"[""0.082"",""0.164"",""0.520"",""0.757""]","[1,1,0,1]",0,37,37,37,1,1,0,,,1,FALSE,3.5573,,,,,,,,,,,,,,,,,,,,,,,,,,,,,,
,MBHONI,001,2022-04-29_04h02.15.957,classification_task,2021.2.3,Win32,60.16847172,60d093bed56de3034ee16624,626b377229c10585ec392f8a,626b3be7fef25c8db3b7257a,,,,,,,,,,,,,,,,,,,,,,,a,0,"[""0.527"",""0.164"",""0.666"",""0.757""]","[0,1,1,1]",0,38,38,38,1,1,0,,,1,FALSE,0.8513,,,,,,,,,,,,,,,,,,,,,,,,,,,,,,
,MBHONI,001,2022-04-29_04h02.15.957,classification_task,2021.2.3,Win32,60.16847172,60d093bed56de3034ee16624,626b377229c10585ec392f8a,626b3be7fef25c8db3b7257a,,,,,,,,,,,,,,,,,,,,,,,l,1,"[""0.130"",""0.373"",""0.562"",""0.835""]","[0,1,1,1]",0,39,39,39,1,1,1,,,1,FALSE,0.8521,,,,,,,,,,,,,,,,,,,,,,,,,,,,,,
,MBHONI,001,2022-04-29_04h02.15.957,classification_task,2021.2.3,Win32,60.16847172,60d093bed56de3034ee16624,626b377229c10585ec392f8a,626b3be7fef25c8db3b7257a,,,,,,,,,,,,,,,,,,,,,,,l,0,"[""0.270"",""0.509"",""0.613"",""0.886""]","[1,0,1,1]",0,40,40,40,1,0,0,,,1,FALSE,1.6545,,,,,,,,,,,,,,,,,,,,,,,,,,,,,,
,MBHONI,001,2022-04-29_04h02.15.957,classification_task,2021.2.3,Win32,60.16847172,60d093bed56de3034ee16624,626b377229c10585ec392f8a,626b3be7fef25c8db3b7257a,,,,,,,,,,,,,,,,,,,,,,,l,1,"[""0.036"",""0.321"",""0.562"",""0.835""]","[1,0,1,1]",0,41,41,41,1,1,1,,,1,FALSE,1.1163,,,,,,,,,,,,,,,,,,,,,,,,,,,,,,
,MBHONI,001,2022-04-29_04h02.15.957,classification_task,2021.2.3,Win32,60.16847172,60d093bed56de3034ee16624,626b377229c10585ec392f8a,626b3be7fef25c8db3b7257a,,,,,,,,,,,,,,,,,,,,,,,l,1,"[""0.082"",""0.164"",""0.666"",""0.510""]","[1,1,1,0]",0,42,42,42,1,1,0,,,1,FALSE,1.2182,,,,,,,,,,,,,,,,,,,,,,,,,,,,,,
,MBHONI,001,2022-04-29_04h02.15.957,classification_task,2021.2.3,Win32,60.16847172,60d093bed56de3034ee16624,626b377229c10585ec392f8a,626b3be7fef25c8db3b7257a,,,,,,,,,,,,,,,,,,,,,,,a,1,"[""0.270"",""0.413"",""0.613"",""0.501""]","[1,1,1,0]",0,43,43,43,1,0,0,,,1,FALSE,1.3581,,,,,,,,,,,,,,,,,,,,,,,,,,,,,,
,MBHONI,001,2022-04-29_04h02.15.957,classification_task,2021.2.3,Win32,60.16847172,60d093bed56de3034ee16624,626b377229c10585ec392f8a,626b3be7fef25c8db3b7257a,,,,,,,,,,,,,,,,,,,,,,,a,1,"[""0.214"",""0.466"",""0.937"",""0.711""]","[1,1,1,0]",0,44,44,44,1,0,1,,,1,FALSE,1.2884,,,,,,,,,,,,,,,,,,,,,,,,,,,,,,
,MBHONI,001,2022-04-29_04h02.15.957,classification_task,2021.2.3,Win32,60.16847172,60d093bed56de3034ee16624,626b377229c10585ec392f8a,626b3be7fef25c8db3b7257a,,,,,,,,,,,,,,,,,,,,,,,l,0,"[""0.270"",""0.413"",""0.338"",""0.886""]","[1,1,0,1]",0,45,45,45,1,0,0,,,1,FALSE,1.3534,,,,,,,,,,,,,,,,,,,,,,,,,,,,,,
,MBHONI,001,2022-04-29_04h02.15.957,classification_task,2021.2.3,Win32,60.16847172,60d093bed56de3034ee16624,626b377229c10585ec392f8a,626b3be7fef25c8db3b7257a,,,,,,,,,,,,,,,,,,,,,,,l,1,"[""0.036"",""0.373"",""0.510"",""0.835""]","[1,1,0,1]",0,46,46,46,1,1,1,,,1,FALSE,1.6184,,,,,,,,,,,,,,,,,,,,,,,,,,,,,,
,MBHONI,001,2022-04-29_04h02.15.957,classification_task,2021.2.3,Win32,60.16847172,60d093bed56de3034ee16624,626b377229c10585ec392f8a,626b3be7fef25c8db3b7257a,,,,,,,,,,,,,,,,,,,,,,,l,0,"[""0.214"",""0.520"",""0.937"",""0.972""]","[1,0,1,1]",0,47,47,47,1,0,1,,,1,FALSE,1.7277,,,,,,,,,,,,,,,,,,,,,,,,,,,,,,
,MBHONI,001,2022-04-29_04h02.15.957,classification_task,2021.2.3,Win32,60.16847172,60d093bed56de3034ee16624,626b377229c10585ec392f8a,626b3be7fef25c8db3b7257a,,,,,,,,,,,,,,,,,,,,,,,l,0,"[""0.527"",""0.413"",""0.613"",""0.886""]","[0,1,1,1]",0,48,48,48,1,0,0,,,1,FALSE,1.278,,,,,,,,,,,,,,,,,,,,,,,,,,,,,,
,MBHONI,001,2022-04-29_04h02.15.957,classification_task,2021.2.3,Win32,60.16847172,60d093bed56de3034ee16624,626b377229c10585ec392f8a,626b3be7fef25c8db3b7257a,,,,,,,,,,,,,,,,,,,,,,,l,1,"[""0.036"",""0.373"",""0.708"",""0.835""]","[1,1,0,1]",0,49,49,49,1,1,1,,,1,FALSE,0.9937,,,,,,,,,,,,,,,,,,,,,,,,,,,,,,
,MBHONI,001,2022-04-29_04h02.15.957,classification_task,2021.2.3,Win32,60.16847172,60d093bed56de3034ee16624,626b377229c10585ec392f8a,626b3be7fef25c8db3b7257a,,,,,,,,,,,,,,,,,,,,,,,l,0,"[""0.270"",""0.413"",""0.613"",""0.338""]","[1,1,1,0]",0,50,50,50,1,0,0,,,1,FALSE,0.8857,,,,,,,,,,,,,,,,,,,,,,,,,,,,,,
,MBHONI,001,2022-04-29_04h02.15.957,classification_task,2021.2.3,Win32,60.16847172,60d093bed56de3034ee16624,626b377229c10585ec392f8a,626b3be7fef25c8db3b7257a,,,,,,,,,,,,,,,,,,,,,,,a,0,"[""0.796"",""0.373"",""0.562"",""0.835""]","[0,1,1,1]",0,51,51,51,1,1,1,,,1,FALSE,1.4293,,,,,,,,,,,,,,,,,,,,,,,,,,,,,,
,MBHONI,001,2022-04-29_04h02.15.957,classification_task,2021.2.3,Win32,60.16847172,60d093bed56de3034ee16624,626b377229c10585ec392f8a,626b3be7fef25c8db3b7257a,,,,,,,,,,,,,,,,,,,,,,,a,0,"[""0.082"",""0.164"",""0.509"",""0.757""]","[1,1,0,1]",0,52,52,52,1,1,0,,,1,FALSE,0.7063,,,,,,,,,,,,,,,,,,,,,,,,,,,,,,
,MBHONI,001,2022-04-29_04h02.15.957,classification_task,2021.2.3,Win32,60.16847172,60d093bed56de3034ee16624,626b377229c10585ec392f8a,626b3be7fef25c8db3b7257a,,,,,,,,,,,,,,,,,,,,,,,a,1,"[""0.214"",""0.466"",""0.937"",""0.520""]","[1,1,1,0]",0,53,53,53,1,0,1,,,1,FALSE,0.6352,,,,,,,,,,,,,,,,,,,,,,,,,,,,,,
,MBHONI,001,2022-04-29_04h02.15.957,classification_task,2021.2.3,Win32,60.16847172,60d093bed56de3034ee16624,626b377229c10585ec392f8a,626b3be7fef25c8db3b7257a,,,,,,,,,,,,,,,,,,,,,,,l,0,"[""0.214"",""0.466"",""0.305"",""0.972""]","[1,1,0,1]",0,54,54,54,1,0,1,,,1,FALSE,0.7829,,,,,,,,,,,,,,,,,,,,,,,,,,,,,,
,MBHONI,001,2022-04-29_04h02.15.957,classification_task,2021.2.3,Win32,60.16847172,60d093bed56de3034ee16624,626b377229c10585ec392f8a,626b3be7fef25c8db3b7257a,,,,,,,,,,,,,,,,,,,,,,,a,0,"[""0.082"",""0.796"",""0.666"",""0.757""]","[1,0,1,1]",0,55,55,55,1,1,0,,,1,FALSE,0.7465,,,,,,,,,,,,,,,,,,,,,,,,,,,,,,
,MBHONI,001,2022-04-29_04h02.15.957,classification_task,2021.2.3,Win32,60.16847172,60d093bed56de3034ee16624,626b377229c10585ec392f8a,626b3be7fef25c8db3b7257a,,,,,,,,,,,,,,,,,,,,,,,l,1,"[""0.082"",""0.164"",""0.666"",""0.791""]","[1,1,1,0]",0,56,56,56,1,1,0,,,1,FALSE,0.4683,,,,,,,,,,,,,,,,,,,,,,,,,,,,,,
,MBHONI,001,2022-04-29_04h02.15.957,classification_task,2021.2.3,Win32,60.16847172,60d093bed56de3034ee16624,626b377229c10585ec392f8a,626b3be7fef25c8db3b7257a,,,,,,,,,,,,,,,,,,,,,,,a,0,"[""0.796"",""0.164"",""0.666"",""0.757""]","[0,1,1,1]",0,57,57,57,1,1,0,,,1,FALSE,1.171,,,,,,,,,,,,,,,,,,,,,,,,,,,,,,
,MBHONI,001,2022-04-29_04h02.15.957,classification_task,2021.2.3,Win32,60.16847172,60d093bed56de3034ee16624,626b377229c10585ec392f8a,626b3be7fef25c8db3b7257a,,,,,,,,,,,,,,,,,,,,,,,a,1,"[""0.270"",""0.120"",""0.613"",""0.886""]","[1,0,1,1]",0,58,58,58,1,0,0,,,1,FALSE,0.4718,,,,,,,,,,,,,,,,,,,,,,,,,,,,,,
,MBHONI,001,2022-04-29_04h02.15.957,classification_task,2021.2.3,Win32,60.16847172,60d093bed56de3034ee16624,626b377229c10585ec392f8a,626b3be7fef25c8db3b7257a,,,,,,,,,,,,,,,,,,,,,,,a,1,"[""0.214"",""0.708"",""0.937"",""0.972""]","[1,0,1,1]",0,59,59,59,1,0,1,,,1,FALSE,1.2378,,,,,,,,,,,,,,,,,,,,,,,,,,,,,,
,MBHONI,001,2022-04-29_04h02.15.957,classification_task,2021.2.3,Win32,60.16847172,60d093bed56de3034ee16624,626b377229c10585ec392f8a,626b3be7fef25c8db3b7257a,,,,,,,,,,,,,,,,,,,,,,,l,0,"[""0.270"",""0.413"",""0.527"",""0.886""]","[1,1,0,1]",0,60,60,60,1,0,0,,,1,FALSE,0.7664,,,,,,,,,,,,,,,,,,,,,,,,,,,,,,
,MBHONI,001,2022-04-29_04h02.15.957,classification_task,2021.2.3,Win32,60.16847172,60d093bed56de3034ee16624,626b377229c10585ec392f8a,626b3be7fef25c8db3b7257a,,,,,,,,,,,,,,,,,,,,,,,l,1,"[""0.036"",""0.373"",""0.562"",""0.523""]","[1,1,1,0]",0,61,61,61,1,1,1,,,1,FALSE,0.8738,,,,,,,,,,,,,,,,,,,,,,,,,,,,,,
,MBHONI,001,2022-04-29_04h02.15.957,classification_task,2021.2.3,Win32,60.16847172,60d093bed56de3034ee16624,626b377229c10585ec392f8a,626b3be7fef25c8db3b7257a,,,,,,,,,,,,,,,,,,,,,,,l,1,"[""0.036"",""0.338"",""0.562"",""0.835""]","[1,0,1,1]",0,62,62,62,1,1,1,,,1,FALSE,1.117,,,,,,,,,,,,,,,,,,,,,,,,,,,,,,
,MBHONI,001,2022-04-29_04h02.15.957,classification_task,2021.2.3,Win32,60.16847172,60d093bed56de3034ee16624,626b377229c10585ec392f8a,626b3be7fef25c8db3b7257a,,,,,,,,,,,,,,,,,,,,,,,a,1,"[""0.796"",""0.466"",""0.937"",""0.972""]","[0,1,1,1]",0,63,63,63,1,0,1,,,1,FALSE,1.3508,,,,,,,,,,,,,,,,,,,,,,,,,,,,,,
,MBHONI,001,2022-04-29_04h02.15.957,classification_task,2021.2.3,Win32,60.16847172,60d093bed56de3034ee16624,626b377229c10585ec392f8a,626b3be7fef25c8db3b7257a,,,,,,,,,,,,,,,,,,,,,,,,,,,,,,,,,,,,,,,0, ,,0,7.066798942,400.2393,0,0,0,0,1,2,1,,,,,,,,,,,,,,,,,
,MBHONI,001,2022-04-29_04h02.15.957,classification_task,2021.2.3,Win32,60.16847172,60d093bed56de3034ee16624,626b377229c10585ec392f8a,626b3be7fef25c8db3b7257a,,,,,,,,,,,,,,,,,,,,,,,,,,,,,,,,,,,,,,,1,  ,,0,8.754684744,407.8121,0,0,0,0,1,2,1,,,,,,,,,,,,,,,,,
,MBHONI,001,2022-04-29_04h02.15.957,classification_task,2021.2.3,Win32,60.16847172,60d093bed56de3034ee16624,626b377229c10585ec392f8a,626b3be7fef25c8db3b7257a,,,,,,,,,,,,,,,,,,,,,,,,,,,,,,,,,,,,,,,2,  ,,0,1.038635362,414.3589,0,0,0,0,1,2,1,,,,,,,,,,,,,,,,,
,MBHONI,001,2022-04-29_04h02.15.957,classification_task,2021.2.3,Win32,60.16847172,60d093bed56de3034ee16624,626b377229c10585ec392f8a,626b3be7fef25c8db3b7257a,,,,,,,,,,,,,,,,,,,,,,,,,,,,,,,,,,,,,,,,,,,,,0,0,0,0,1,,1,,,,,,,,,,,,,,,,,
,MBHONI,001,2022-04-29_04h02.15.957,classification_task,2021.2.3,Win32,60.16847172,60d093bed56de3034ee16624,626b377229c10585ec392f8a,626b3be7fef25c8db3b7257a,,,,,,,,,,,,,,,,,,,,,space,9.2391,l,0,"[""0.321"",""0.413"",""0.613"",""0.886""]","[0,1,1,1]",0,0,0,0,1,0,0,,,1,FALSE,3.6646,,,,,,,,,,,,,,,,,,,,,,,,,,,,,,
,MBHONI,001,2022-04-29_04h02.15.957,classification_task,2021.2.3,Win32,60.16847172,60d093bed56de3034ee16624,626b377229c10585ec392f8a,626b3be7fef25c8db3b7257a,,,,,,,,,,,,,,,,,,,,,,,a,0,"[""0.082"",""0.164"",""0.666"",""0.120""]","[1,1,1,0]",0,1,1,1,1,1,0,,,1,FALSE,1.0147,,,,,,,,,,,,,,,,,,,,,,,,,,,,,,
,MBHONI,001,2022-04-29_04h02.15.957,classification_task,2021.2.3,Win32,60.16847172,60d093bed56de3034ee16624,626b377229c10585ec392f8a,626b3be7fef25c8db3b7257a,,,,,,,,,,,,,,,,,,,,,,,a,0,"[""0.082"",""0.164"",""0.791"",""0.757""]","[1,1,0,1]",0,2,2,2,1,1,0,,,1,FALSE,0.5131,,,,,,,,,,,,,,,,,,,,,,,,,,,,,,
,MBHONI,001,2022-04-29_04h02.15.957,classification_task,2021.2.3,Win32,60.16847172,60d093bed56de3034ee16624,626b377229c10585ec392f8a,626b3be7fef25c8db3b7257a,,,,,,,,,,,,,,,,,,,,,,,l,1,"[""0.338"",""0.373"",""0.562"",""0.835""]","[0,1,1,1]",0,3,3,3,1,1,1,,,1,FALSE,5.1296,,,,,,,,,,,,,,,,,,,,,,,,,,,,,,
,MBHONI,001,2022-04-29_04h02.15.957,classification_task,2021.2.3,Win32,60.16847172,60d093bed56de3034ee16624,626b377229c10585ec392f8a,626b3be7fef25c8db3b7257a,,,,,,,,,,,,,,,,,,,,,,,a,1,"[""0.214"",""0.520"",""0.937"",""0.972""]","[1,0,1,1]",0,4,4,4,1,0,1,,,1,FALSE,1.7856,,,,,,,,,,,,,,,,,,,,,,,,,,,,,,
,MBHONI,001,2022-04-29_04h02.15.957,classification_task,2021.2.3,Win32,60.16847172,60d093bed56de3034ee16624,626b377229c10585ec392f8a,626b3be7fef25c8db3b7257a,,,,,,,,,,,,,,,,,,,,,,,l,1,"[""0.036"",""0.373"",""0.562"",""0.120""]","[1,1,1,0]",0,5,5,5,1,1,1,,,1,FALSE,1.447,,,,,,,,,,,,,,,,,,,,,,,,,,,,,,
,MBHONI,001,2022-04-29_04h02.15.957,classification_task,2021.2.3,Win32,60.16847172,60d093bed56de3034ee16624,626b377229c10585ec392f8a,626b3be7fef25c8db3b7257a,,,,,,,,,,,,,,,,,,,,,,,a,1,"[""0.214"",""0.466"",""0.338"",""0.972""]","[1,1,0,1]",0,6,6,6,1,0,1,,,1,FALSE,1.3201,,,,,,,,,,,,,,,,,,,,,,,,,,,,,,
,MBHONI,001,2022-04-29_04h02.15.957,classification_task,2021.2.3,Win32,60.16847172,60d093bed56de3034ee16624,626b377229c10585ec392f8a,626b3be7fef25c8db3b7257a,,,,,,,,,,,,,,,,,,,,,,,l,1,"[""0.036"",""0.373"",""0.523"",""0.835""]","[1,1,0,1]",0,7,7,7,1,1,1,,,1,FALSE,0.9899,,,,,,,,,,,,,,,,,,,,,,,,,,,,,,
,MBHONI,001,2022-04-29_04h02.15.957,classification_task,2021.2.3,Win32,60.16847172,60d093bed56de3034ee16624,626b377229c10585ec392f8a,626b3be7fef25c8db3b7257a,,,,,,,,,,,,,,,,,,,,,,,l,0,"[""0.270"",""0.413"",""0.613"",""0.510""]","[1,1,1,0]",0,8,8,8,1,0,0,,,1,FALSE,3.3675,,,,,,,,,,,,,,,,,,,,,,,,,,,,,,
,MBHONI,001,2022-04-29_04h02.15.957,classification_task,2021.2.3,Win32,60.16847172,60d093bed56de3034ee16624,626b377229c10585ec392f8a,626b3be7fef25c8db3b7257a,,,,,,,,,,,,,,,,,,,,,,,a,1,"[""0.520"",""0.466"",""0.937"",""0.972""]","[0,1,1,1]",0,9,9,9,1,0,1,,,1,FALSE,1.3372,,,,,,,,,,,,,,,,,,,,,,,,,,,,,,
,MBHONI,001,2022-04-29_04h02.15.957,classification_task,2021.2.3,Win32,60.16847172,60d093bed56de3034ee16624,626b377229c10585ec392f8a,626b3be7fef25c8db3b7257a,,,,,,,,,,,,,,,,,,,,,,,a,1,"[""0.270"",""0.413"",""0.120"",""0.886""]","[1,1,0,1]",0,10,10,10,1,0,0,,,1,FALSE,0.9923,,,,,,,,,,,,,,,,,,,,,,,,,,,,,,
,MBHONI,001,2022-04-29_04h02.15.957,classification_task,2021.2.3,Win32,60.16847172,60d093bed56de3034ee16624,626b377229c10585ec392f8a,626b3be7fef25c8db3b7257a,,,,,,,,,,,,,,,,,,,,,,,a,1,"[""0.214"",""0.466"",""0.937"",""0.520""]","[1,1,1,0]",0,11,11,11,1,0,1,,,1,FALSE,1.4326,,,,,,,,,,,,,,,,,,,,,,,,,,,,,,
,MBHONI,001,2022-04-29_04h02.15.957,classification_task,2021.2.3,Win32,60.16847172,60d093bed56de3034ee16624,626b377229c10585ec392f8a,626b3be7fef25c8db3b7257a,,,,,,,,,,,,,,,,,,,,,,,l,1,"[""0.082"",""0.796"",""0.666"",""0.757""]","[1,0,1,1]",0,12,12,12,1,1,0,,,1,FALSE,1.2088,,,,,,,,,,,,,,,,,,,,,,,,,,,,,,
,MBHONI,001,2022-04-29_04h02.15.957,classification_task,2021.2.3,Win32,60.16847172,60d093bed56de3034ee16624,626b377229c10585ec392f8a,626b3be7fef25c8db3b7257a,,,,,,,,,,,,,,,,,,,,,,,l,0,"[""0.270"",""0.527"",""0.613"",""0.886""]","[1,0,1,1]",0,13,13,13,1,0,0,,,1,FALSE,1.0886,,,,,,,,,,,,,,,,,,,,,,,,,,,,,,
,MBHONI,001,2022-04-29_04h02.15.957,classification_task,2021.2.3,Win32,60.16847172,60d093bed56de3034ee16624,626b377229c10585ec392f8a,626b3be7fef25c8db3b7257a,,,,,,,,,,,,,,,,,,,,,,,l,1,"[""0.036"",""0.708"",""0.562"",""0.835""]","[1,0,1,1]",0,14,14,14,1,1,1,,,1,FALSE,1.2425,,,,,,,,,,,,,,,,,,,,,,,,,,,,,,
,MBHONI,001,2022-04-29_04h02.15.957,classification_task,2021.2.3,Win32,60.16847172,60d093bed56de3034ee16624,626b377229c10585ec392f8a,626b3be7fef25c8db3b7257a,,,,,,,,,,,,,,,,,,,,,,,a,0,"[""0.711"",""0.164"",""0.666"",""0.757""]","[0,1,1,1]",0,15,15,15,1,1,0,,,1,FALSE,1.1555,,,,,,,,,,,,,,,,,,,,,,,,,,,,,,
,MBHONI,001,2022-04-29_04h02.15.957,classification_task,2021.2.3,Win32,60.16847172,60d093bed56de3034ee16624,626b377229c10585ec392f8a,626b3be7fef25c8db3b7257a,,,,,,,,,,,,,,,,,,,,,,,a,1,"[""0.214"",""0.466"",""0.120"",""0.972""]","[1,1,0,1]",0,16,16,16,1,0,1,,,1,FALSE,1.1437,,,,,,,,,,,,,,,,,,,,,,,,,,,,,,
,MBHONI,001,2022-04-29_04h02.15.957,classification_task,2021.2.3,Win32,60.16847172,60d093bed56de3034ee16624,626b377229c10585ec392f8a,626b3be7fef25c8db3b7257a,,,,,,,,,,,,,,,,,,,,,,,a,1,"[""0.270"",""0.413"",""0.613"",""0.523""]","[1,1,1,0]",0,17,17,17,1,0,0,,,1,FALSE,1.2094,,,,,,,,,,,,,,,,,,,,,,,,,,,,,,
,MBHONI,001,2022-04-29_04h02.15.957,classification_task,2021.2.3,Win32,60.16847172,60d093bed56de3034ee16624,626b377229c10585ec392f8a,626b3be7fef25c8db3b7257a,,,,,,,,,,,,,,,,,,,,,,,a,1,"[""0.214"",""0.523"",""0.937"",""0.972""]","[1,0,1,1]",0,18,18,18,1,0,1,,,1,FALSE,0.9805,,,,,,,,,,,,,,,,,,,,,,,,,,,,,,
,MBHONI,001,2022-04-29_04h02.15.957,classification_task,2021.2.3,Win32,60.16847172,60d093bed56de3034ee16624,626b377229c10585ec392f8a,626b3be7fef25c8db3b7257a,,,,,,,,,,,,,,,,,,,,,,,l,1,"[""0.796"",""0.373"",""0.562"",""0.835""]","[0,1,1,1]",0,19,19,19,1,1,1,,,1,FALSE,0.8722,,,,,,,,,,,,,,,,,,,,,,,,,,,,,,
,MBHONI,001,2022-04-29_04h02.15.957,classification_task,2021.2.3,Win32,60.16847172,60d093bed56de3034ee16624,626b377229c10585ec392f8a,626b3be7fef25c8db3b7257a,,,,,,,,,,,,,,,,,,,,,,,a,1,"[""0.214"",""0.466"",""0.937"",""0.796""]","[1,1,1,0]",0,20,20,20,1,0,1,,,1,FALSE,0.8968,,,,,,,,,,,,,,,,,,,,,,,,,,,,,,
,MBHONI,001,2022-04-29_04h02.15.957,classification_task,2021.2.3,Win32,60.16847172,60d093bed56de3034ee16624,626b377229c10585ec392f8a,626b3be7fef25c8db3b7257a,,,,,,,,,,,,,,,,,,,,,,,a,0,"[""0.082"",""0.164"",""0.666"",""0.130""]","[1,1,1,0]",0,21,21,21,1,1,0,,,1,FALSE,1.1478,,,,,,,,,,,,,,,,,,,,,,,,,,,,,,
,MBHONI,001,2022-04-29_04h02.15.957,classification_task,2021.2.3,Win32,60.16847172,60d093bed56de3034ee16624,626b377229c10585ec392f8a,626b3be7fef25c8db3b7257a,,,,,,,,,,,,,,,,,,,,,,,l,1,"[""0.036"",""0.373"",""0.321"",""0.835""]","[1,1,0,1]",0,22,22,22,1,1,1,,,1,FALSE,1.0073,,,,,,,,,,,,,,,,,,,,,,,,,,,,,,
,MBHONI,001,2022-04-29_04h02.15.957,classification_task,2021.2.3,Win32,60.16847172,60d093bed56de3034ee16624,626b377229c10585ec392f8a,626b3be7fef25c8db3b7257a,,,,,,,,,,,,,,,,,,,,,,,l,1,"[""0.036"",""0.338"",""0.562"",""0.835""]","[1,0,1,1]",0,23,23,23,1,1,1,,,1,FALSE,0.7686,,,,,,,,,,,,,,,,,,,,,,,,,,,,,,
,MBHONI,001,2022-04-29_04h02.15.957,classification_task,2021.2.3,Win32,60.16847172,60d093bed56de3034ee16624,626b377229c10585ec392f8a,626b3be7fef25c8db3b7257a,,,,,,,,,,,,,,,,,,,,,,,a,1,"[""0.510"",""0.466"",""0.937"",""0.972""]","[0,1,1,1]",0,24,24,24,1,0,1,,,1,FALSE,0.8671,,,,,,,,,,,,,,,,,,,,,,,,,,,,,,
,MBHONI,001,2022-04-29_04h02.15.957,classification_task,2021.2.3,Win32,60.16847172,60d093bed56de3034ee16624,626b377229c10585ec392f8a,626b3be7fef25c8db3b7257a,,,,,,,,,,,,,,,,,,,,,,,a,1,"[""0.711"",""0.413"",""0.613"",""0.886""]","[0,1,1,1]",0,25,25,25,1,0,0,,,1,FALSE,1.1901,,,,,,,,,,,,,,,,,,,,,,,,,,,,,,
,MBHONI,001,2022-04-29_04h02.15.957,classification_task,2021.2.3,Win32,60.16847172,60d093bed56de3034ee16624,626b377229c10585ec392f8a,626b3be7fef25c8db3b7257a,,,,,,,,,,,,,,,,,,,,,,,l,1,"[""0.036"",""0.373"",""0.562"",""0.708""]","[1,1,1,0]",0,26,26,26,1,1,1,,,1,FALSE,0.9606,,,,,,,,,,,,,,,,,,,,,,,,,,,,,,
,MBHONI,001,2022-04-29_04h02.15.957,classification_task,2021.2.3,Win32,60.16847172,60d093bed56de3034ee16624,626b377229c10585ec392f8a,626b3be7fef25c8db3b7257a,,,,,,,,,,,,,,,,,,,,,,,l,1,"[""0.082"",""0.520"",""0.666"",""0.757""]","[1,0,1,1]",0,27,27,27,1,1,0,,,1,FALSE,0.8965,,,,,,,,,,,,,,,,,,,,,,,,,,,,,,
,MBHONI,001,2022-04-29_04h02.15.957,classification_task,2021.2.3,Win32,60.16847172,60d093bed56de3034ee16624,626b377229c10585ec392f8a,626b3be7fef25c8db3b7257a,,,,,,,,,,,,,,,,,,,,,,,a,1,"[""0.270"",""0.413"",""0.130"",""0.886""]","[1,1,0,1]",0,28,28,28,1,0,0,,,1,FALSE,1.1674,,,,,,,,,,,,,,,,,,,,,,,,,,,,,,
,MBHONI,001,2022-04-29_04h02.15.957,classification_task,2021.2.3,Win32,60.16847172,60d093bed56de3034ee16624,626b377229c10585ec392f8a,626b3be7fef25c8db3b7257a,,,,,,,,,,,,,,,,,,,,,,,l,0,"[""0.270"",""0.321"",""0.613"",""0.886""]","[1,0,1,1]",0,29,29,29,1,0,0,,,1,FALSE,1.1186,,,,,,,,,,,,,,,,,,,,,,,,,,,,,,
,MBHONI,001,2022-04-29_04h02.15.957,classification_task,2021.2.3,Win32,60.16847172,60d093bed56de3034ee16624,626b377229c10585ec392f8a,626b3be7fef25c8db3b7257a,,,,,,,,,,,,,,,,,,,,,,,a,0,"[""0.082"",""0.164"",""0.520"",""0.757""]","[1,1,0,1]",0,30,30,30,1,1,0,,,1,FALSE,0.7996,,,,,,,,,,,,,,,,,,,,,,,,,,,,,,
,MBHONI,001,2022-04-29_04h02.15.957,classification_task,2021.2.3,Win32,60.16847172,60d093bed56de3034ee16624,626b377229c10585ec392f8a,626b3be7fef25c8db3b7257a,,,,,,,,,,,,,,,,,,,,,,,l,1,"[""0.791"",""0.164"",""0.666"",""0.757""]","[0,1,1,1]",0,31,31,31,1,1,0,,,1,FALSE,0.6954,,,,,,,,,,,,,,,,,,,,,,,,,,,,,,
,MBHONI,001,2022-04-29_04h02.15.957,classification_task,2021.2.3,Win32,60.16847172,60d093bed56de3034ee16624,626b377229c10585ec392f8a,626b3be7fef25c8db3b7257a,,,,,,,,,,,,,,,,,,,,,,,l,1,"[""0.082"",""0.164"",""0.501"",""0.757""]","[1,1,0,1]",0,32,32,32,1,1,0,,,1,FALSE,2.6116,,,,,,,,,,,,,,,,,,,,,,,,,,,,,,
,MBHONI,001,2022-04-29_04h02.15.957,classification_task,2021.2.3,Win32,60.16847172,60d093bed56de3034ee16624,626b377229c10585ec392f8a,626b3be7fef25c8db3b7257a,,,,,,,,,,,,,,,,,,,,,,,a,1,"[""0.501"",""0.466"",""0.937"",""0.972""]","[0,1,1,1]",0,33,33,33,1,0,1,,,1,FALSE,1.2117,,,,,,,,,,,,,,,,,,,,,,,,,,,,,,
,MBHONI,001,2022-04-29_04h02.15.957,classification_task,2021.2.3,Win32,60.16847172,60d093bed56de3034ee16624,626b377229c10585ec392f8a,626b3be7fef25c8db3b7257a,,,,,,,,,,,,,,,,,,,,,,,l,1,"[""0.036"",""0.373"",""0.562"",""0.311""]","[1,1,1,0]",0,34,34,34,1,1,1,,,1,FALSE,0.8921,,,,,,,,,,,,,,,,,,,,,,,,,,,,,,
,MBHONI,001,2022-04-29_04h02.15.957,classification_task,2021.2.3,Win32,60.16847172,60d093bed56de3034ee16624,626b377229c10585ec392f8a,626b3be7fef25c8db3b7257a,,,,,,,,,,,,,,,,,,,,,,,a,1,"[""0.270"",""0.501"",""0.613"",""0.886""]","[1,0,1,1]",0,35,35,35,1,0,0,,,1,FALSE,1.36,,,,,,,,,,,,,,,,,,,,,,,,,,,,,,
,MBHONI,001,2022-04-29_04h02.15.957,classification_task,2021.2.3,Win32,60.16847172,60d093bed56de3034ee16624,626b377229c10585ec392f8a,626b3be7fef25c8db3b7257a,,,,,,,,,,,,,,,,,,,,,,,l,1,"[""0.711"",""0.373"",""0.562"",""0.835""]","[0,1,1,1]",0,36,36,36,1,1,1,,,1,FALSE,1.1113,,,,,,,,,,,,,,,,,,,,,,,,,,,,,,
,MBHONI,001,2022-04-29_04h02.15.957,classification_task,2021.2.3,Win32,60.16847172,60d093bed56de3034ee16624,626b377229c10585ec392f8a,626b3be7fef25c8db3b7257a,,,,,,,,,,,,,,,,,,,,,,,l,0,"[""0.711"",""0.413"",""0.613"",""0.886""]","[0,1,1,1]",0,37,37,37,1,0,0,,,1,FALSE,1.3984,,,,,,,,,,,,,,,,,,,,,,,,,,,,,,
,MBHONI,001,2022-04-29_04h02.15.957,classification_task,2021.2.3,Win32,60.16847172,60d093bed56de3034ee16624,626b377229c10585ec392f8a,626b3be7fef25c8db3b7257a,,,,,,,,,,,,,,,,,,,,,,,a,0,"[""0.796"",""0.164"",""0.666"",""0.757""]","[0,1,1,1]",0,38,38,38,1,1,0,,,1,FALSE,0.9678,,,,,,,,,,,,,,,,,,,,,,,,,,,,,,
,MBHONI,001,2022-04-29_04h02.15.957,classification_task,2021.2.3,Win32,60.16847172,60d093bed56de3034ee16624,626b377229c10585ec392f8a,626b3be7fef25c8db3b7257a,,,,,,,,,,,,,,,,,,,,,,,l,0,"[""0.270"",""0.413"",""0.613"",""0.523""]","[1,1,1,0]",0,39,39,39,1,0,0,,,1,FALSE,0.7321,,,,,,,,,,,,,,,,,,,,,,,,,,,,,,
,MBHONI,001,2022-04-29_04h02.15.957,classification_task,2021.2.3,Win32,60.16847172,60d093bed56de3034ee16624,626b377229c10585ec392f8a,626b3be7fef25c8db3b7257a,,,,,,,,,,,,,,,,,,,,,,,a,1,"[""0.214"",""0.466"",""0.937"",""0.321""]","[1,1,1,0]",0,40,40,40,1,0,1,,,1,FALSE,1.1957,,,,,,,,,,,,,,,,,,,,,,,,,,,,,,
,MBHONI,001,2022-04-29_04h02.15.957,classification_task,2021.2.3,Win32,60.16847172,60d093bed56de3034ee16624,626b377229c10585ec392f8a,626b3be7fef25c8db3b7257a,,,,,,,,,,,,,,,,,,,,,,,a,0,"[""0.082"",""0.164"",""0.666"",""0.338""]","[1,1,1,0]",0,41,41,41,1,1,0,,,1,FALSE,1.4013,,,,,,,,,,,,,,,,,,,,,,,,,,,,,,
,MBHONI,001,2022-04-29_04h02.15.957,classification_task,2021.2.3,Win32,60.16847172,60d093bed56de3034ee16624,626b377229c10585ec392f8a,626b3be7fef25c8db3b7257a,,,,,,,,,,,,,,,,,,,,,,,a,1,"[""0.214"",""0.523"",""0.937"",""0.972""]","[1,0,1,1]",0,42,42,42,1,0,1,,,1,FALSE,1.1383,,,,,,,,,,,,,,,,,,,,,,,,,,,,,,
,MBHONI,001,2022-04-29_04h02.15.957,classification_task,2021.2.3,Win32,60.16847172,60d093bed56de3034ee16624,626b377229c10585ec392f8a,626b3be7fef25c8db3b7257a,,,,,,,,,,,,,,,,,,,,,,,a,1,"[""0.214"",""0.466"",""0.523"",""0.972""]","[1,1,0,1]",0,43,43,43,1,0,1,,,1,FALSE,0.7834,,,,,,,,,,,,,,,,,,,,,,,,,,,,,,
,MBHONI,001,2022-04-29_04h02.15.957,classification_task,2021.2.3,Win32,60.16847172,60d093bed56de3034ee16624,626b377229c10585ec392f8a,626b3be7fef25c8db3b7257a,,,,,,,,,,,,,,,,,,,,,,,l,0,"[""0.270"",""0.413"",""0.791"",""0.886""]","[1,1,0,1]",0,44,44,44,1,0,0,,,1,FALSE,1.0943,,,,,,,,,,,,,,,,,,,,,,,,,,,,,,
,MBHONI,001,2022-04-29_04h02.15.957,classification_task,2021.2.3,Win32,60.16847172,60d093bed56de3034ee16624,626b377229c10585ec392f8a,626b3be7fef25c8db3b7257a,,,,,,,,,,,,,,,,,,,,,,,l,1,"[""0.082"",""0.510"",""0.666"",""0.757""]","[1,0,1,1]",0,45,45,45,1,1,0,,,1,FALSE,0.8469,,,,,,,,,,,,,,,,,,,,,,,,,,,,,,
,MBHONI,001,2022-04-29_04h02.15.957,classification_task,2021.2.3,Win32,60.16847172,60d093bed56de3034ee16624,626b377229c10585ec392f8a,626b3be7fef25c8db3b7257a,,,,,,,,,,,,,,,,,,,,,,,l,1,"[""0.036"",""0.311"",""0.562"",""0.835""]","[1,0,1,1]",0,46,46,46,1,1,1,,,1,FALSE,0.8769,,,,,,,,,,,,,,,,,,,,,,,,,,,,,,
,MBHONI,001,2022-04-29_04h02.15.957,classification_task,2021.2.3,Win32,60.16847172,60d093bed56de3034ee16624,626b377229c10585ec392f8a,626b3be7fef25c8db3b7257a,,,,,,,,,,,,,,,,,,,,,,,l,1,"[""0.036"",""0.373"",""0.510"",""0.835""]","[1,1,0,1]",0,47,47,47,1,1,1,,,1,FALSE,0.6119,,,,,,,,,,,,,,,,,,,,,,,,,,,,,,
,MBHONI,001,2022-04-29_04h02.15.957,classification_task,2021.2.3,Win32,60.16847172,60d093bed56de3034ee16624,626b377229c10585ec392f8a,626b3be7fef25c8db3b7257a,,,,,,,,,,,,,,,,,,,,,,,l,1,"[""0.036"",""0.373"",""0.562"",""0.520""]","[1,1,1,0]",0,48,48,48,1,1,1,,,1,FALSE,1.7462,,,,,,,,,,,,,,,,,,,,,,,,,,,,,,
,MBHONI,001,2022-04-29_04h02.15.957,classification_task,2021.2.3,Win32,60.16847172,60d093bed56de3034ee16624,626b377229c10585ec392f8a,626b3be7fef25c8db3b7257a,,,,,,,,,,,,,,,,,,,,,,,l,1,"[""0.082"",""0.311"",""0.666"",""0.757""]","[1,0,1,1]",0,49,49,49,1,1,0,,,1,FALSE,2.6582,,,,,,,,,,,,,,,,,,,,,,,,,,,,,,
,MBHONI,001,2022-04-29_04h02.15.957,classification_task,2021.2.3,Win32,60.16847172,60d093bed56de3034ee16624,626b377229c10585ec392f8a,626b3be7fef25c8db3b7257a,,,,,,,,,,,,,,,,,,,,,,,a,0,"[""0.082"",""0.164"",""0.666"",""0.791""]","[1,1,1,0]",0,50,50,50,1,1,0,,,1,FALSE,1.1266,,,,,,,,,,,,,,,,,,,,,,,,,,,,,,
,MBHONI,001,2022-04-29_04h02.15.957,classification_task,2021.2.3,Win32,60.16847172,60d093bed56de3034ee16624,626b377229c10585ec392f8a,626b3be7fef25c8db3b7257a,,,,,,,,,,,,,,,,,,,,,,,a,1,"[""0.214"",""0.466"",""0.937"",""0.796""]","[1,1,1,0]",0,51,51,51,1,0,1,,,1,FALSE,1.177,,,,,,,,,,,,,,,,,,,,,,,,,,,,,,
,MBHONI,001,2022-04-29_04h02.15.957,classification_task,2021.2.3,Win32,60.16847172,60d093bed56de3034ee16624,626b377229c10585ec392f8a,626b3be7fef25c8db3b7257a,,,,,,,,,,,,,,,,,,,,,,,a,1,"[""0.214"",""0.523"",""0.937"",""0.972""]","[1,0,1,1]",0,52,52,52,1,0,1,,,1,FALSE,1.0008,,,,,,,,,,,,,,,,,,,,,,,,,,,,,,
,MBHONI,001,2022-04-29_04h02.15.957,classification_task,2021.2.3,Win32,60.16847172,60d093bed56de3034ee16624,626b377229c10585ec392f8a,626b3be7fef25c8db3b7257a,,,,,,,,,,,,,,,,,,,,,,,a,1,"[""0.321"",""0.413"",""0.613"",""0.886""]","[0,1,1,1]",0,53,53,53,1,0,0,,,1,FALSE,1.1503,,,,,,,,,,,,,,,,,,,,,,,,,,,,,,
,MBHONI,001,2022-04-29_04h02.15.957,classification_task,2021.2.3,Win32,60.16847172,60d093bed56de3034ee16624,626b377229c10585ec392f8a,626b3be7fef25c8db3b7257a,,,,,,,,,,,,,,,,,,,,,,,l,1,"[""0.338"",""0.373"",""0.562"",""0.835""]","[0,1,1,1]",0,54,54,54,1,1,1,,,1,FALSE,1.0611,,,,,,,,,,,,,,,,,,,,,,,,,,,,,,
,MBHONI,001,2022-04-29_04h02.15.957,classification_task,2021.2.3,Win32,60.16847172,60d093bed56de3034ee16624,626b377229c10585ec392f8a,626b3be7fef25c8db3b7257a,,,,,,,,,,,,,,,,,,,,,,,a,1,"[""0.270"",""0.413"",""0.613"",""0.527""]","[1,1,1,0]",0,55,55,55,1,0,0,,,1,FALSE,1.0968,,,,,,,,,,,,,,,,,,,,,,,,,,,,,,
,MBHONI,001,2022-04-29_04h02.15.957,classification_task,2021.2.3,Win32,60.16847172,60d093bed56de3034ee16624,626b377229c10585ec392f8a,626b3be7fef25c8db3b7257a,,,,,,,,,,,,,,,,,,,,,,,l,1,"[""0.036"",""0.520"",""0.562"",""0.835""]","[1,0,1,1]",0,56,56,56,1,1,1,,,1,FALSE,1.5273,,,,,,,,,,,,,,,,,,,,,,,,,,,,,,
,MBHONI,001,2022-04-29_04h02.15.957,classification_task,2021.2.3,Win32,60.16847172,60d093bed56de3034ee16624,626b377229c10585ec392f8a,626b3be7fef25c8db3b7257a,,,,,,,,,,,,,,,,,,,,,,,l,1,"[""0.036"",""0.373"",""0.523"",""0.835""]","[1,1,0,1]",0,57,57,57,1,1,1,,,1,FALSE,1.4276,,,,,,,,,,,,,,,,,,,,,,,,,,,,,,
,MBHONI,001,2022-04-29_04h02.15.957,classification_task,2021.2.3,Win32,60.16847172,60d093bed56de3034ee16624,626b377229c10585ec392f8a,626b3be7fef25c8db3b7257a,,,,,,,,,,,,,,,,,,,,,,,a,1,"[""0.214"",""0.466"",""0.311"",""0.972""]","[1,1,0,1]",0,58,58,58,1,0,1,,,1,FALSE,0.8152,,,,,,,,,,,,,,,,,,,,,,,,,,,,,,
,MBHONI,001,2022-04-29_04h02.15.957,classification_task,2021.2.3,Win32,60.16847172,60d093bed56de3034ee16624,626b377229c10585ec392f8a,626b3be7fef25c8db3b7257a,,,,,,,,,,,,,,,,,,,,,,,a,0,"[""0.082"",""0.164"",""0.321"",""0.757""]","[1,1,0,1]",0,59,59,59,1,1,0,,,1,FALSE,2.9458,,,,,,,,,,,,,,,,,,,,,,,,,,,,,,
,MBHONI,001,2022-04-29_04h02.15.957,classification_task,2021.2.3,Win32,60.16847172,60d093bed56de3034ee16624,626b377229c10585ec392f8a,626b3be7fef25c8db3b7257a,,,,,,,,,,,,,,,,,,,,,,,l,1,"[""0.711"",""0.164"",""0.666"",""0.757""]","[0,1,1,1]",0,60,60,60,1,1,0,,,1,FALSE,0.7321,,,,,,,,,,,,,,,,,,,,,,,,,,,,,,
,MBHONI,001,2022-04-29_04h02.15.957,classification_task,2021.2.3,Win32,60.16847172,60d093bed56de3034ee16624,626b377229c10585ec392f8a,626b3be7fef25c8db3b7257a,,,,,,,,,,,,,,,,,,,,,,,a,1,"[""0.523"",""0.466"",""0.937"",""0.972""]","[0,1,1,1]",0,61,61,61,1,0,1,,,1,FALSE,0.9951,,,,,,,,,,,,,,,,,,,,,,,,,,,,,,
,MBHONI,001,2022-04-29_04h02.15.957,classification_task,2021.2.3,Win32,60.16847172,60d093bed56de3034ee16624,626b377229c10585ec392f8a,626b3be7fef25c8db3b7257a,,,,,,,,,,,,,,,,,,,,,,,l,0,"[""0.270"",""0.711"",""0.613"",""0.886""]","[1,0,1,1]",0,62,62,62,1,0,0,,,1,FALSE,1.1497,,,,,,,,,,,,,,,,,,,,,,,,,,,,,,
,MBHONI,001,2022-04-29_04h02.15.957,classification_task,2021.2.3,Win32,60.16847172,60d093bed56de3034ee16624,626b377229c10585ec392f8a,626b3be7fef25c8db3b7257a,,,,,,,,,,,,,,,,,,,,,,,l,0,"[""0.270"",""0.413"",""0.527"",""0.886""]","[1,1,0,1]",0,63,63,63,1,0,0,,,1,FALSE,0.6971,,,,,,,,,,,,,,,,,,,,,,,,,,,,,,
,MBHONI,001,2022-04-29_04h02.15.957,classification_task,2021.2.3,Win32,60.16847172,60d093bed56de3034ee16624,626b377229c10585ec392f8a,626b3be7fef25c8db3b7257a,,,,,,,,,,,,,,,,,,,,,,,,,,,,,,,,,,,,,,,0, ,,0,4.586640212,166.2562,0,1,1,1,1,2,2,,,,,,,,,,,,,,,,,
,MBHONI,001,2022-04-29_04h02.15.957,classification_task,2021.2.3,Win32,60.16847172,60d093bed56de3034ee16624,626b377229c10585ec392f8a,626b3be7fef25c8db3b7257a,,,,,,,,,,,,,,,,,,,,,,,,,,,,,,,,,,,,,,,1,  ,,0,7.032352293,172.4051,0,1,1,1,1,2,2,,,,,,,,,,,,,,,,,
,MBHONI,001,2022-04-29_04h02.15.957,classification_task,2021.2.3,Win32,60.16847172,60d093bed56de3034ee16624,626b377229c10585ec392f8a,626b3be7fef25c8db3b7257a,,,,,,,,,,,,,,,,,,,,,,,,,,,,,,,,,,,,,,,2,  ,,0,2.037588183,179.4135,0,1,1,1,1,2,2,,,,,,,,,,,,,,,,,
,MBHONI,001,2022-04-29_04h02.15.957,classification_task,2021.2.3,Win32,60.16847172,60d093bed56de3034ee16624,626b377229c10585ec392f8a,626b3be7fef25c8db3b7257a,,,,,,,,,,,,,,,,,,,,,,,,,,,,,,,,,,,,,,,,,,,,,0,1,1,1,1,,2,,,,,,,,,,,,,,,,,
,MBHONI,001,2022-04-29_04h02.15.957,classification_task,2021.2.3,Win32,60.16847172,60d093bed56de3034ee16624,626b377229c10585ec392f8a,626b3be7fef25c8db3b7257a,,,,,,,,,,,,,,,,,,,,,space,7.5203,a,0,"[""0.082"",""0.164"",""0.666"",""0.321""]","[1,1,1,0]",0,0,0,0,1,1,0,,,1,FALSE,2.5644,,,,,,,,,,,,,,,,,,,,,,,,,,,,,,
,MBHONI,001,2022-04-29_04h02.15.957,classification_task,2021.2.3,Win32,60.16847172,60d093bed56de3034ee16624,626b377229c10585ec392f8a,626b3be7fef25c8db3b7257a,,,,,,,,,,,,,,,,,,,,,,,a,0,"[""0.036"",""0.373"",""0.562"",""0.321""]","[1,1,1,0]",0,1,1,1,1,1,1,,,1,FALSE,1.3557,,,,,,,,,,,,,,,,,,,,,,,,,,,,,,
,MBHONI,001,2022-04-29_04h02.15.957,classification_task,2021.2.3,Win32,60.16847172,60d093bed56de3034ee16624,626b377229c10585ec392f8a,626b3be7fef25c8db3b7257a,,,,,,,,,,,,,,,,,,,,,,,l,0,"[""0.214"",""0.791"",""0.937"",""0.972""]","[1,0,1,1]",0,2,2,2,1,0,1,,,1,FALSE,3.4341,,,,,,,,,,,,,,,,,,,,,,,,,,,,,,
,MBHONI,001,2022-04-29_04h02.15.957,classification_task,2021.2.3,Win32,60.16847172,60d093bed56de3034ee16624,626b377229c10585ec392f8a,626b3be7fef25c8db3b7257a,,,,,,,,,,,,,,,,,,,,,,,a,0,"[""0.036"",""0.711"",""0.562"",""0.835""]","[1,0,1,1]",0,3,3,3,1,1,1,,,1,FALSE,1.5332,,,,,,,,,,,,,,,,,,,,,,,,,,,,,,
,MBHONI,001,2022-04-29_04h02.15.957,classification_task,2021.2.3,Win32,60.16847172,60d093bed56de3034ee16624,626b377229c10585ec392f8a,626b3be7fef25c8db3b7257a,,,,,,,,,,,,,,,,,,,,,,,l,0,"[""0.711"",""0.466"",""0.937"",""0.972""]","[0,1,1,1]",0,4,4,4,1,0,1,,,1,FALSE,2.2836,,,,,,,,,,,,,,,,,,,,,,,,,,,,,,
,MBHONI,001,2022-04-29_04h02.15.957,classification_task,2021.2.3,Win32,60.16847172,60d093bed56de3034ee16624,626b377229c10585ec392f8a,626b3be7fef25c8db3b7257a,,,,,,,,,,,,,,,,,,,,,,,a,0,"[""0.082"",""0.164"",""0.708"",""0.757""]","[1,1,0,1]",0,5,5,5,1,1,0,,,1,FALSE,1.0867,,,,,,,,,,,,,,,,,,,,,,,,,,,,,,
,MBHONI,001,2022-04-29_04h02.15.957,classification_task,2021.2.3,Win32,60.16847172,60d093bed56de3034ee16624,626b377229c10585ec392f8a,626b3be7fef25c8db3b7257a,,,,,,,,,,,,,,,,,,,,,,,l,0,"[""0.214"",""0.466"",""0.311"",""0.972""]","[1,1,0,1]",0,6,6,6,1,0,1,,,1,FALSE,0.7836,,,,,,,,,,,,,,,,,,,,,,,,,,,,,,
,MBHONI,001,2022-04-29_04h02.15.957,classification_task,2021.2.3,Win32,60.16847172,60d093bed56de3034ee16624,626b377229c10585ec392f8a,626b3be7fef25c8db3b7257a,,,,,,,,,,,,,,,,,,,,,,,l,0,"[""0.270"",""0.413"",""0.613"",""0.510""]","[1,1,1,0]",0,7,7,7,1,0,0,,,1,FALSE,0.7629,,,,,,,,,,,,,,,,,,,,,,,,,,,,,,
,MBHONI,001,2022-04-29_04h02.15.957,classification_task,2021.2.3,Win32,60.16847172,60d093bed56de3034ee16624,626b377229c10585ec392f8a,626b3be7fef25c8db3b7257a,,,,,,,,,,,,,,,,,,,,,,,a,0,"[""0.036"",""0.373"",""0.130"",""0.835""]","[1,1,0,1]",0,8,8,8,1,1,1,,,1,FALSE,0.6894,,,,,,,,,,,,,,,,,,,,,,,,,,,,,,
,MBHONI,001,2022-04-29_04h02.15.957,classification_task,2021.2.3,Win32,60.16847172,60d093bed56de3034ee16624,626b377229c10585ec392f8a,626b3be7fef25c8db3b7257a,,,,,,,,,,,,,,,,,,,,,,,l,1,"[""0.338"",""0.373"",""0.562"",""0.835""]","[0,1,1,1]",0,9,9,9,1,1,1,,,1,FALSE,1.4634,,,,,,,,,,,,,,,,,,,,,,,,,,,,,,
,MBHONI,001,2022-04-29_04h02.15.957,classification_task,2021.2.3,Win32,60.16847172,60d093bed56de3034ee16624,626b377229c10585ec392f8a,626b3be7fef25c8db3b7257a,,,,,,,,,,,,,,,,,,,,,,,l,1,"[""0.082"",""0.120"",""0.666"",""0.757""]","[1,0,1,1]",0,10,10,10,1,1,0,,,1,FALSE,1.6048,,,,,,,,,,,,,,,,,,,,,,,,,,,,,,
,MBHONI,001,2022-04-29_04h02.15.957,classification_task,2021.2.3,Win32,60.16847172,60d093bed56de3034ee16624,626b377229c10585ec392f8a,626b3be7fef25c8db3b7257a,,,,,,,,,,,,,,,,,,,,,,,l,1,"[""0.130"",""0.164"",""0.666"",""0.757""]","[0,1,1,1]",0,11,11,11,1,1,0,,,1,FALSE,1.2508,,,,,,,,,,,,,,,,,,,,,,,,,,,,,,
,MBHONI,001,2022-04-29_04h02.15.957,classification_task,2021.2.3,Win32,60.16847172,60d093bed56de3034ee16624,626b377229c10585ec392f8a,626b3be7fef25c8db3b7257a,,,,,,,,,,,,,,,,,,,,,,,a,1,"[""0.270"",""0.413"",""0.120"",""0.886""]","[1,1,0,1]",0,12,12,12,1,0,0,,,1,FALSE,1.0227,,,,,,,,,,,,,,,,,,,,,,,,,,,,,,
,MBHONI,001,2022-04-29_04h02.15.957,classification_task,2021.2.3,Win32,60.16847172,60d093bed56de3034ee16624,626b377229c10585ec392f8a,626b3be7fef25c8db3b7257a,,,,,,,,,,,,,,,,,,,,,,,a,1,"[""0.270"",""0.791"",""0.613"",""0.886""]","[1,0,1,1]",0,13,13,13,1,0,0,,,1,FALSE,1.4043,,,,,,,,,,,,,,,,,,,,,,,,,,,,,,
,MBHONI,001,2022-04-29_04h02.15.957,classification_task,2021.2.3,Win32,60.16847172,60d093bed56de3034ee16624,626b377229c10585ec392f8a,626b3be7fef25c8db3b7257a,,,,,,,,,,,,,,,,,,,,,,,a,1,"[""0.130"",""0.413"",""0.613"",""0.886""]","[0,1,1,1]",0,14,14,14,1,0,0,,,1,FALSE,1.2605,,,,,,,,,,,,,,,,,,,,,,,,,,,,,,
,MBHONI,001,2022-04-29_04h02.15.957,classification_task,2021.2.3,Win32,60.16847172,60d093bed56de3034ee16624,626b377229c10585ec392f8a,626b3be7fef25c8db3b7257a,,,,,,,,,,,,,,,,,,,,,,,l,0,"[""0.214"",""0.466"",""0.937"",""0.711""]","[1,1,1,0]",0,15,15,15,1,0,1,,,1,FALSE,1.1691,,,,,,,,,,,,,,,,,,,,,,,,,,,,,,
,MBHONI,001,2022-04-29_04h02.15.957,classification_task,2021.2.3,Win32,60.16847172,60d093bed56de3034ee16624,626b377229c10585ec392f8a,626b3be7fef25c8db3b7257a,,,,,,,,,,,,,,,,,,,,,,,l,0,"[""0.270"",""0.791"",""0.613"",""0.886""]","[1,0,1,1]",0,16,16,16,1,0,0,,,1,FALSE,0.7738,,,,,,,,,,,,,,,,,,,,,,,,,,,,,,
,MBHONI,001,2022-04-29_04h02.15.957,classification_task,2021.2.3,Win32,60.16847172,60d093bed56de3034ee16624,626b377229c10585ec392f8a,626b3be7fef25c8db3b7257a,,,,,,,,,,,,,,,,,,,,,,,l,0,"[""0.214"",""0.466"",""0.937"",""0.338""]","[1,1,1,0]",0,17,17,17,1,0,1,,,1,FALSE,0.8321,,,,,,,,,,,,,,,,,,,,,,,,,,,,,,
,MBHONI,001,2022-04-29_04h02.15.957,classification_task,2021.2.3,Win32,60.16847172,60d093bed56de3034ee16624,626b377229c10585ec392f8a,626b3be7fef25c8db3b7257a,,,,,,,,,,,,,,,,,,,,,,,a,0,"[""0.130"",""0.373"",""0.562"",""0.835""]","[0,1,1,1]",0,18,18,18,1,1,1,,,1,FALSE,1.9726,,,,,,,,,,,,,,,,,,,,,,,,,,,,,,
,MBHONI,001,2022-04-29_04h02.15.957,classification_task,2021.2.3,Win32,60.16847172,60d093bed56de3034ee16624,626b377229c10585ec392f8a,626b3be7fef25c8db3b7257a,,,,,,,,,,,,,,,,,,,,,,,l,0,"[""0.270"",""0.413"",""0.311"",""0.886""]","[1,1,0,1]",0,19,19,19,1,0,0,,,1,FALSE,1.1197,,,,,,,,,,,,,,,,,,,,,,,,,,,,,,
,MBHONI,001,2022-04-29_04h02.15.957,classification_task,2021.2.3,Win32,60.16847172,60d093bed56de3034ee16624,626b377229c10585ec392f8a,626b3be7fef25c8db3b7257a,,,,,,,,,,,,,,,,,,,,,,,l,1,"[""0.036"",""0.373"",""0.338"",""0.835""]","[1,1,0,1]",0,20,20,20,1,1,1,,,1,FALSE,0.8365,,,,,,,,,,,,,,,,,,,,,,,,,,,,,,
,MBHONI,001,2022-04-29_04h02.15.957,classification_task,2021.2.3,Win32,60.16847172,60d093bed56de3034ee16624,626b377229c10585ec392f8a,626b3be7fef25c8db3b7257a,,,,,,,,,,,,,,,,,,,,,,,a,0,"[""0.082"",""0.523"",""0.666"",""0.757""]","[1,0,1,1]",0,21,21,21,1,1,0,,,1,FALSE,0.8633,,,,,,,,,,,,,,,,,,,,,,,,,,,,,,
,MBHONI,001,2022-04-29_04h02.15.957,classification_task,2021.2.3,Win32,60.16847172,60d093bed56de3034ee16624,626b377229c10585ec392f8a,626b3be7fef25c8db3b7257a,,,,,,,,,,,,,,,,,,,,,,,a,0,"[""0.082"",""0.164"",""0.666"",""0.791""]","[1,1,1,0]",0,22,22,22,1,1,0,,,1,FALSE,0.8476,,,,,,,,,,,,,,,,,,,,,,,,,,,,,,
,MBHONI,001,2022-04-29_04h02.15.957,classification_task,2021.2.3,Win32,60.16847172,60d093bed56de3034ee16624,626b377229c10585ec392f8a,626b3be7fef25c8db3b7257a,,,,,,,,,,,,,,,,,,,,,,,l,1,"[""0.082"",""0.164"",""0.501"",""0.757""]","[1,1,0,1]",0,23,23,23,1,1,0,,,1,FALSE,0.474,,,,,,,,,,,,,,,,,,,,,,,,,,,,,,
,MBHONI,001,2022-04-29_04h02.15.957,classification_task,2021.2.3,Win32,60.16847172,60d093bed56de3034ee16624,626b377229c10585ec392f8a,626b3be7fef25c8db3b7257a,,,,,,,,,,,,,,,,,,,,,,,a,1,"[""0.214"",""0.791"",""0.937"",""0.972""]","[1,0,1,1]",0,24,24,24,1,0,1,,,1,FALSE,2.9847,,,,,,,,,,,,,,,,,,,,,,,,,,,,,,
,MBHONI,001,2022-04-29_04h02.15.957,classification_task,2021.2.3,Win32,60.16847172,60d093bed56de3034ee16624,626b377229c10585ec392f8a,626b3be7fef25c8db3b7257a,,,,,,,,,,,,,,,,,,,,,,,a,1,"[""0.510"",""0.466"",""0.937"",""0.972""]","[0,1,1,1]",0,25,25,25,1,0,1,,,1,FALSE,3.6166,,,,,,,,,,,,,,,,,,,,,,,,,,,,,,
,MBHONI,001,2022-04-29_04h02.15.957,classification_task,2021.2.3,Win32,60.16847172,60d093bed56de3034ee16624,626b377229c10585ec392f8a,626b3be7fef25c8db3b7257a,,,,,,,,,,,,,,,,,,,,,,,a,1,"[""0.270"",""0.413"",""0.613"",""0.509""]","[1,1,1,0]",0,26,26,26,1,0,0,,,1,FALSE,1.1713,,,,,,,,,,,,,,,,,,,,,,,,,,,,,,
,MBHONI,001,2022-04-29_04h02.15.957,classification_task,2021.2.3,Win32,60.16847172,60d093bed56de3034ee16624,626b377229c10585ec392f8a,626b3be7fef25c8db3b7257a,,,,,,,,,,,,,,,,,,,,,,,l,1,"[""0.036"",""0.711"",""0.562"",""0.835""]","[1,0,1,1]",0,27,27,27,1,1,1,,,1,FALSE,0.8309,,,,,,,,,,,,,,,,,,,,,,,,,,,,,,
,MBHONI,001,2022-04-29_04h02.15.957,classification_task,2021.2.3,Win32,60.16847172,60d093bed56de3034ee16624,626b377229c10585ec392f8a,626b3be7fef25c8db3b7257a,,,,,,,,,,,,,,,,,,,,,,,a,1,"[""0.509"",""0.413"",""0.613"",""0.886""]","[0,1,1,1]",0,28,28,28,1,0,0,,,1,FALSE,1.5887,,,,,,,,,,,,,,,,,,,,,,,,,,,,,,
,MBHONI,001,2022-04-29_04h02.15.957,classification_task,2021.2.3,Win32,60.16847172,60d093bed56de3034ee16624,626b377229c10585ec392f8a,626b3be7fef25c8db3b7257a,,,,,,,,,,,,,,,,,,,,,,,l,1,"[""0.130"",""0.164"",""0.666"",""0.757""]","[0,1,1,1]",0,29,29,29,1,1,0,,,1,FALSE,1.1766,,,,,,,,,,,,,,,,,,,,,,,,,,,,,,
,MBHONI,001,2022-04-29_04h02.15.957,classification_task,2021.2.3,Win32,60.16847172,60d093bed56de3034ee16624,626b377229c10585ec392f8a,626b3be7fef25c8db3b7257a,,,,,,,,,,,,,,,,,,,,,,,l,0,"[""0.214"",""0.466"",""0.523"",""0.972""]","[1,1,0,1]",0,30,30,30,1,0,1,,,1,FALSE,1.1983,,,,,,,,,,,,,,,,,,,,,,,,,,,,,,
,MBHONI,001,2022-04-29_04h02.15.957,classification_task,2021.2.3,Win32,60.16847172,60d093bed56de3034ee16624,626b377229c10585ec392f8a,626b3be7fef25c8db3b7257a,,,,,,,,,,,,,,,,,,,,,,,l,1,"[""0.036"",""0.373"",""0.562"",""0.321""]","[1,1,1,0]",0,31,31,31,1,1,1,,,1,FALSE,0.8199,,,,,,,,,,,,,,,,,,,,,,,,,,,,,,
,MBHONI,001,2022-04-29_04h02.15.957,classification_task,2021.2.3,Win32,60.16847172,60d093bed56de3034ee16624,626b377229c10585ec392f8a,626b3be7fef25c8db3b7257a,,,,,,,,,,,,,,,,,,,,,,,a,1,"[""0.270"",""0.413"",""0.613"",""0.791""]","[1,1,1,0]",0,32,32,32,1,0,0,,,1,FALSE,0.7813,,,,,,,,,,,,,,,,,,,,,,,,,,,,,,
,MBHONI,001,2022-04-29_04h02.15.957,classification_task,2021.2.3,Win32,60.16847172,60d093bed56de3034ee16624,626b377229c10585ec392f8a,626b3be7fef25c8db3b7257a,,,,,,,,,,,,,,,,,,,,,,,l,1,"[""0.036"",""0.527"",""0.562"",""0.835""]","[1,0,1,1]",0,33,33,33,1,1,1,,,1,FALSE,1.35,,,,,,,,,,,,,,,,,,,,,,,,,,,,,,
,MBHONI,001,2022-04-29_04h02.15.957,classification_task,2021.2.3,Win32,60.16847172,60d093bed56de3034ee16624,626b377229c10585ec392f8a,626b3be7fef25c8db3b7257a,,,,,,,,,,,,,,,,,,,,,,,a,1,"[""0.270"",""0.413"",""0.130"",""0.886""]","[1,1,0,1]",0,34,34,34,1,0,0,,,1,FALSE,1.4044,,,,,,,,,,,,,,,,,,,,,,,,,,,,,,
,MBHONI,001,2022-04-29_04h02.15.957,classification_task,2021.2.3,Win32,60.16847172,60d093bed56de3034ee16624,626b377229c10585ec392f8a,626b3be7fef25c8db3b7257a,,,,,,,,,,,,,,,,,,,,,,,a,1,"[""0.509"",""0.413"",""0.613"",""0.886""]","[0,1,1,1]",0,35,35,35,1,0,0,,,1,FALSE,1.4369,,,,,,,,,,,,,,,,,,,,,,,,,,,,,,
,MBHONI,001,2022-04-29_04h02.15.957,classification_task,2021.2.3,Win32,60.16847172,60d093bed56de3034ee16624,626b377229c10585ec392f8a,626b3be7fef25c8db3b7257a,,,,,,,,,,,,,,,,,,,,,,,l,1,"[""0.311"",""0.373"",""0.562"",""0.835""]","[0,1,1,1]",0,36,36,36,1,1,1,,,1,FALSE,1.2021,,,,,,,,,,,,,,,,,,,,,,,,,,,,,,
,MBHONI,001,2022-04-29_04h02.15.957,classification_task,2021.2.3,Win32,60.16847172,60d093bed56de3034ee16624,626b377229c10585ec392f8a,626b3be7fef25c8db3b7257a,,,,,,,,,,,,,,,,,,,,,,,l,1,"[""0.036"",""0.373"",""0.501"",""0.835""]","[1,1,0,1]",0,37,37,37,1,1,1,,,1,FALSE,1.45,,,,,,,,,,,,,,,,,,,,,,,,,,,,,,
,MBHONI,001,2022-04-29_04h02.15.957,classification_task,2021.2.3,Win32,60.16847172,60d093bed56de3034ee16624,626b377229c10585ec392f8a,626b3be7fef25c8db3b7257a,,,,,,,,,,,,,,,,,,,,,,,a,1,"[""0.791"",""0.466"",""0.937"",""0.972""]","[0,1,1,1]",0,38,38,38,1,0,1,,,1,FALSE,2.3345,,,,,,,,,,,,,,,,,,,,,,,,,,,,,,
,MBHONI,001,2022-04-29_04h02.15.957,classification_task,2021.2.3,Win32,60.16847172,60d093bed56de3034ee16624,626b377229c10585ec392f8a,626b3be7fef25c8db3b7257a,,,,,,,,,,,,,,,,,,,,,,,a,0,"[""0.082"",""0.164"",""0.666"",""0.527""]","[1,1,1,0]",0,39,39,39,1,1,0,,,1,FALSE,2.4469,,,,,,,,,,,,,,,,,,,,,,,,,,,,,,
,MBHONI,001,2022-04-29_04h02.15.957,classification_task,2021.2.3,Win32,60.16847172,60d093bed56de3034ee16624,626b377229c10585ec392f8a,626b3be7fef25c8db3b7257a,,,,,,,,,,,,,,,,,,,,,,,l,1,"[""0.036"",""0.373"",""0.562"",""0.501""]","[1,1,1,0]",0,40,40,40,1,1,1,,,1,FALSE,0.8352,,,,,,,,,,,,,,,,,,,,,,,,,,,,,,
,MBHONI,001,2022-04-29_04h02.15.957,classification_task,2021.2.3,Win32,60.16847172,60d093bed56de3034ee16624,626b377229c10585ec392f8a,626b3be7fef25c8db3b7257a,,,,,,,,,,,,,,,,,,,,,,,a,0,"[""0.082"",""0.164"",""0.520"",""0.757""]","[1,1,0,1]",0,41,41,41,1,1,0,,,1,FALSE,0.9372,,,,,,,,,,,,,,,,,,,,,,,,,,,,,,
,MBHONI,001,2022-04-29_04h02.15.957,classification_task,2021.2.3,Win32,60.16847172,60d093bed56de3034ee16624,626b377229c10585ec392f8a,626b3be7fef25c8db3b7257a,,,,,,,,,,,,,,,,,,,,,,,a,1,"[""0.214"",""0.130"",""0.937"",""0.972""]","[1,0,1,1]",0,42,42,42,1,0,1,,,1,FALSE,1.0675,,,,,,,,,,,,,,,,,,,,,,,,,,,,,,
,MBHONI,001,2022-04-29_04h02.15.957,classification_task,2021.2.3,Win32,60.16847172,60d093bed56de3034ee16624,626b377229c10585ec392f8a,626b3be7fef25c8db3b7257a,,,,,,,,,,,,,,,,,,,,,,,l,0,"[""0.214"",""0.466"",""0.523"",""0.972""]","[1,1,0,1]",0,43,43,43,1,0,1,,,1,FALSE,1.0505,,,,,,,,,,,,,,,,,,,,,,,,,,,,,,
,MBHONI,001,2022-04-29_04h02.15.957,classification_task,2021.2.3,Win32,60.16847172,60d093bed56de3034ee16624,626b377229c10585ec392f8a,626b3be7fef25c8db3b7257a,,,,,,,,,,,,,,,,,,,,,,,l,1,"[""0.338"",""0.164"",""0.666"",""0.757""]","[0,1,1,1]",0,44,44,44,1,1,0,,,1,FALSE,0.8223,,,,,,,,,,,,,,,,,,,,,,,,,,,,,,
,MBHONI,001,2022-04-29_04h02.15.957,classification_task,2021.2.3,Win32,60.16847172,60d093bed56de3034ee16624,626b377229c10585ec392f8a,626b3be7fef25c8db3b7257a,,,,,,,,,,,,,,,,,,,,,,,l,0,"[""0.214"",""0.466"",""0.937"",""0.520""]","[1,1,1,0]",0,45,45,45,1,0,1,,,1,FALSE,0.9046,,,,,,,,,,,,,,,,,,,,,,,,,,,,,,
,MBHONI,001,2022-04-29_04h02.15.957,classification_task,2021.2.3,Win32,60.16847172,60d093bed56de3034ee16624,626b377229c10585ec392f8a,626b3be7fef25c8db3b7257a,,,,,,,,,,,,,,,,,,,,,,,a,0,"[""0.082"",""0.527"",""0.666"",""0.757""]","[1,0,1,1]",0,46,46,46,1,1,0,,,1,FALSE,1.0035,,,,,,,,,,,,,,,,,,,,,,,,,,,,,,
,MBHONI,001,2022-04-29_04h02.15.957,classification_task,2021.2.3,Win32,60.16847172,60d093bed56de3034ee16624,626b377229c10585ec392f8a,626b3be7fef25c8db3b7257a,,,,,,,,,,,,,,,,,,,,,,,l,0,"[""0.270"",""0.305"",""0.613"",""0.886""]","[1,0,1,1]",0,47,47,47,1,0,0,,,1,FALSE,1.101,,,,,,,,,,,,,,,,,,,,,,,,,,,,,,
,MBHONI,001,2022-04-29_04h02.15.957,classification_task,2021.2.3,Win32,60.16847172,60d093bed56de3034ee16624,626b377229c10585ec392f8a,626b3be7fef25c8db3b7257a,,,,,,,,,,,,,,,,,,,,,,,a,1,"[""0.270"",""0.413"",""0.321"",""0.886""]","[1,1,0,1]",0,48,48,48,1,0,0,,,1,FALSE,1.1994,,,,,,,,,,,,,,,,,,,,,,,,,,,,,,
,MBHONI,001,2022-04-29_04h02.15.957,classification_task,2021.2.3,Win32,60.16847172,60d093bed56de3034ee16624,626b377229c10585ec392f8a,626b3be7fef25c8db3b7257a,,,,,,,,,,,,,,,,,,,,,,,l,0,"[""0.214"",""0.466"",""0.937"",""0.130""]","[1,1,1,0]",0,49,49,49,1,0,1,,,1,FALSE,0.9337,,,,,,,,,,,,,,,,,,,,,,,,,,,,,,
,MBHONI,001,2022-04-29_04h02.15.957,classification_task,2021.2.3,Win32,60.16847172,60d093bed56de3034ee16624,626b377229c10585ec392f8a,626b3be7fef25c8db3b7257a,,,,,,,,,,,,,,,,,,,,,,,a,1,"[""0.214"",""0.130"",""0.937"",""0.972""]","[1,0,1,1]",0,50,50,50,1,0,1,,,1,FALSE,0.9928,,,,,,,,,,,,,,,,,,,,,,,,,,,,,,
,MBHONI,001,2022-04-29_04h02.15.957,classification_task,2021.2.3,Win32,60.16847172,60d093bed56de3034ee16624,626b377229c10585ec392f8a,626b3be7fef25c8db3b7257a,,,,,,,,,,,,,,,,,,,,,,,a,0,"[""0.082"",""0.523"",""0.666"",""0.757""]","[1,0,1,1]",0,51,51,51,1,1,0,,,1,FALSE,1.3369,,,,,,,,,,,,,,,,,,,,,,,,,,,,,,
,MBHONI,001,2022-04-29_04h02.15.957,classification_task,2021.2.3,Win32,60.16847172,60d093bed56de3034ee16624,626b377229c10585ec392f8a,626b3be7fef25c8db3b7257a,,,,,,,,,,,,,,,,,,,,,,,a,1,"[""0.270"",""0.120"",""0.613"",""0.886""]","[1,0,1,1]",0,52,52,52,1,0,0,,,1,FALSE,1.3515,,,,,,,,,,,,,,,,,,,,,,,,,,,,,,
,MBHONI,001,2022-04-29_04h02.15.957,classification_task,2021.2.3,Win32,60.16847172,60d093bed56de3034ee16624,626b377229c10585ec392f8a,626b3be7fef25c8db3b7257a,,,,,,,,,,,,,,,,,,,,,,,a,0,"[""0.791"",""0.373"",""0.562"",""0.835""]","[0,1,1,1]",0,53,53,53,1,1,1,,,1,FALSE,1.4887,,,,,,,,,,,,,,,,,,,,,,,,,,,,,,
,MBHONI,001,2022-04-29_04h02.15.957,classification_task,2021.2.3,Win32,60.16847172,60d093bed56de3034ee16624,626b377229c10585ec392f8a,626b3be7fef25c8db3b7257a,,,,,,,,,,,,,,,,,,,,,,,l,1,"[""0.120"",""0.164"",""0.666"",""0.757""]","[0,1,1,1]",0,54,54,54,1,1,0,,,1,FALSE,1.1147,,,,,,,,,,,,,,,,,,,,,,,,,,,,,,
,MBHONI,001,2022-04-29_04h02.15.957,classification_task,2021.2.3,Win32,60.16847172,60d093bed56de3034ee16624,626b377229c10585ec392f8a,626b3be7fef25c8db3b7257a,,,,,,,,,,,,,,,,,,,,,,,l,1,"[""0.082"",""0.164"",""0.666"",""0.501""]","[1,1,1,0]",0,55,55,55,1,1,0,,,1,FALSE,1.2392,,,,,,,,,,,,,,,,,,,,,,,,,,,,,,
,MBHONI,001,2022-04-29_04h02.15.957,classification_task,2021.2.3,Win32,60.16847172,60d093bed56de3034ee16624,626b377229c10585ec392f8a,626b3be7fef25c8db3b7257a,,,,,,,,,,,,,,,,,,,,,,,a,1,"[""0.270"",""0.413"",""0.613"",""0.120""]","[1,1,1,0]",0,56,56,56,1,0,0,,,1,FALSE,0.8845,,,,,,,,,,,,,,,,,,,,,,,,,,,,,,
,MBHONI,001,2022-04-29_04h02.15.957,classification_task,2021.2.3,Win32,60.16847172,60d093bed56de3034ee16624,626b377229c10585ec392f8a,626b3be7fef25c8db3b7257a,,,,,,,,,,,,,,,,,,,,,,,l,1,"[""0.036"",""0.373"",""0.527"",""0.835""]","[1,1,0,1]",0,57,57,57,1,1,1,,,1,FALSE,1.3345,,,,,,,,,,,,,,,,,,,,,,,,,,,,,,
,MBHONI,001,2022-04-29_04h02.15.957,classification_task,2021.2.3,Win32,60.16847172,60d093bed56de3034ee16624,626b377229c10585ec392f8a,626b3be7fef25c8db3b7257a,,,,,,,,,,,,,,,,,,,,,,,l,1,"[""0.036"",""0.373"",""0.562"",""0.338""]","[1,1,1,0]",0,58,58,58,1,1,1,,,1,FALSE,1.2042,,,,,,,,,,,,,,,,,,,,,,,,,,,,,,
,MBHONI,001,2022-04-29_04h02.15.957,classification_task,2021.2.3,Win32,60.16847172,60d093bed56de3034ee16624,626b377229c10585ec392f8a,626b3be7fef25c8db3b7257a,,,,,,,,,,,,,,,,,,,,,,,a,0,"[""0.036"",""0.321"",""0.562"",""0.835""]","[1,0,1,1]",0,59,59,59,1,1,1,,,1,FALSE,0.9097,,,,,,,,,,,,,,,,,,,,,,,,,,,,,,
,MBHONI,001,2022-04-29_04h02.15.957,classification_task,2021.2.3,Win32,60.16847172,60d093bed56de3034ee16624,626b377229c10585ec392f8a,626b3be7fef25c8db3b7257a,,,,,,,,,,,,,,,,,,,,,,,l,0,"[""0.214"",""0.466"",""0.510"",""0.972""]","[1,1,0,1]",0,60,60,60,1,0,1,,,1,FALSE,0.8652,,,,,,,,,,,,,,,,,,,,,,,,,,,,,,
,MBHONI,001,2022-04-29_04h02.15.957,classification_task,2021.2.3,Win32,60.16847172,60d093bed56de3034ee16624,626b377229c10585ec392f8a,626b3be7fef25c8db3b7257a,,,,,,,,,,,,,,,,,,,,,,,l,0,"[""0.796"",""0.466"",""0.937"",""0.972""]","[0,1,1,1]",0,61,61,61,1,0,1,,,1,FALSE,1.2214,,,,,,,,,,,,,,,,,,,,,,,,,,,,,,
,MBHONI,001,2022-04-29_04h02.15.957,classification_task,2021.2.3,Win32,60.16847172,60d093bed56de3034ee16624,626b377229c10585ec392f8a,626b3be7fef25c8db3b7257a,,,,,,,,,,,,,,,,,,,,,,,a,1,"[""0.510"",""0.413"",""0.613"",""0.886""]","[0,1,1,1]",0,62,62,62,1,0,0,,,1,FALSE,0.7492,,,,,,,,,,,,,,,,,,,,,,,,,,,,,,
,MBHONI,001,2022-04-29_04h02.15.957,classification_task,2021.2.3,Win32,60.16847172,60d093bed56de3034ee16624,626b377229c10585ec392f8a,626b3be7fef25c8db3b7257a,,,,,,,,,,,,,,,,,,,,,,,l,1,"[""0.082"",""0.164"",""0.509"",""0.757""]","[1,1,0,1]",0,63,63,63,1,1,0,,,1,FALSE,0.8988,,,,,,,,,,,,,,,,,,,,,,,,,,,,,,
,MBHONI,001,2022-04-29_04h02.15.957,classification_task,2021.2.3,Win32,60.16847172,60d093bed56de3034ee16624,626b377229c10585ec392f8a,626b3be7fef25c8db3b7257a,,,,,,,,,,,,,,,,,,,,,,,,,,,,,,,,,,,,,,,0, ,,0,4.931106702,165.9724,0,2,2,2,1,2,3,,,,,,,,,,,,,,,,,
,MBHONI,001,2022-04-29_04h02.15.957,classification_task,2021.2.3,Win32,60.16847172,60d093bed56de3034ee16624,626b377229c10585ec392f8a,626b3be7fef25c8db3b7257a,,,,,,,,,,,,,,,,,,,,,,,,,,,,,,,,,,,,,,,1,  ,,0,9.236937831,163.3749,0,2,2,2,1,2,3,,,,,,,,,,,,,,,,,
,MBHONI,001,2022-04-29_04h02.15.957,classification_task,2021.2.3,Win32,60.16847172,60d093bed56de3034ee16624,626b377229c10585ec392f8a,626b3be7fef25c8db3b7257a,,,,,,,,,,,,,,,,,,,,,,,,,,,,,,,,,,,,,,,2,  ,,0,10,161.276,0,2,2,2,1,2,3,,,,,,,,,,,,,,,,,
,MBHONI,001,2022-04-29_04h02.15.957,classification_task,2021.2.3,Win32,60.16847172,60d093bed56de3034ee16624,626b377229c10585ec392f8a,626b3be7fef25c8db3b7257a,,,,,,,,,,,,,,,,,,,,,,,,,,,,,,,,,,,,,,,,,,,,,0,2,2,2,1,,3,,,,,,,,,,,,,,,,,
,MBHONI,001,2022-04-29_04h02.15.957,classification_task,2021.2.3,Win32,60.16847172,60d093bed56de3034ee16624,626b377229c10585ec392f8a,626b3be7fef25c8db3b7257a,,,,,,,,,,,,,,,,,,,,,,,,,,,,,,,,,,,,,,,,,,,,,,,,,,,,,I believe the aid is a competent performer,,0.7,0,3,785.8338,0,0,0,0,1,0,,,,
,MBHONI,001,2022-04-29_04h02.15.957,classification_task,2021.2.3,Win32,60.16847172,60d093bed56de3034ee16624,626b377229c10585ec392f8a,626b3be7fef25c8db3b7257a,,,,,,,,,,,,,,,,,,,,,,,,,,,,,,,,,,,,,,,,,,,,,,,,,,,,,I trust the aid,,0.7,0,2,784.5137,0,0,0,0,1,0,,,,
,MBHONI,001,2022-04-29_04h02.15.957,classification_task,2021.2.3,Win32,60.16847172,60d093bed56de3034ee16624,626b377229c10585ec392f8a,626b3be7fef25c8db3b7257a,,,,,,,,,,,,,,,,,,,,,,,,,,,,,,,,,,,,,,,,,,,,,,,,,,,,,I have confidence in the advice given by the aid,,0.7,0,3,791.8447,0,0,0,0,1,0,,,,
,MBHONI,001,2022-04-29_04h02.15.957,classification_task,2021.2.3,Win32,60.16847172,60d093bed56de3034ee16624,626b377229c10585ec392f8a,626b3be7fef25c8db3b7257a,,,,,,,,,,,,,,,,,,,,,,,,,,,,,,,,,,,,,,,,,,,,,,,,,,,,,I can depend on the aid,,0.7,0,3,794.5616,0,0,0,0,1,0,,,,
,MBHONI,001,2022-04-29_04h02.15.957,classification_task,2021.2.3,Win32,60.16847172,60d093bed56de3034ee16624,626b377229c10585ec392f8a,626b3be7fef25c8db3b7257a,,,,,,,,,,,,,,,,,,,,,,,,,,,,,,,,,,,,,,,,,,,,,,,,,,,,,I can rely on the aid to behave in consistent ways,,0.7,0,2,796.985,0,0,0,0,1,0,,,,
,MBHONI,001,2022-04-29_04h02.15.957,classification_task,2021.2.3,Win32,60.16847172,60d093bed56de3034ee16624,626b377229c10585ec392f8a,626b3be7fef25c8db3b7257a,,,,,,,,,,,,,,,,,,,,,,,,,,,,,,,,,,,,,,,,,,,,,,,,,,,,,I can rely on the aid to do its best every time I take its advice,,0.7,0,2,800.9237,0,0,0,0,1,0,,,,
,MBHONI,001,2022-04-29_04h02.15.957,classification_task,2021.2.3,Win32,60.16847172,60d093bed56de3034ee16624,626b377229c10585ec392f8a,626b3be7fef25c8db3b7257a,,,,,,,,,,,,,,,,,,,,,,,,,,,,,,,,,,,,,,,,,,,,,,,,,,,,,"On trials you completed with assistance from the aid, how frequently did you think the aid was correct?",,0.7,0,70,,0,0,0,0,1,0,,,,
,MBHONI,001,2022-04-29_04h02.15.957,classification_task,2021.2.3,Win32,60.16847172,60d093bed56de3034ee16624,626b377229c10585ec392f8a,626b3be7fef25c8db3b7257a,,,,,,,,,,,,,,,,,,,,,,,,,,,,,,,,,,,,,,,,,,,,,,,,,,,,,"On trials you completed without the aid, how frequently did you think you were correct?",,0.7,0,50,,0,0,0,0,1,0,,,,
,MBHONI,001,2022-04-29_04h02.15.957,classification_task,2021.2.3,Win32,60.16847172,60d093bed56de3034ee16624,626b377229c10585ec392f8a,626b3be7fef25c8db3b7257a,,,,,,,,,,,,,,,,,,,,,,,,,,,,,,,,,,,,,,,,,,,,,,,,,,,,,,,,,,,0,0,0,0,1,,,,,
,MBHONI,001,2022-04-29_04h02.15.957,classification_task,2021.2.3,Win32,60.16847172,60d093bed56de3034ee16624,626b377229c10585ec392f8a,626b3be7fef25c8db3b7257a,,,,,,,,,,,,,,,,,,,,,,,,,,,,,,,,,,,,,,,,,,,,,,,,,,,,,,,,,,,,,,,,,space,6.1051,831.5092,
,MBHONI,001,2022-04-29_04h02.15.957,classification_task,2021.2.3,Win32,60.16847172,60d093bed56de3034ee16624,626b377229c10585ec392f8a,626b3be7fef25c8db3b7257a,,,,,,,,,,,,,,,,,,,,,,,,,,,,,,,,,,,,,,,,,,,,,,,,,,,,,,,,,,,,,,,,,,,,"Mozilla/5.0 (Windows NT 10.0; Win64; x64) AppleWebKit/537.36 (KHTML, like Gecko) Chrome/100.0.4896.127 Safari/537.36 Edg/100.0.1185.50"
