usingWebGL,participant,session,date,expName,psychopyVersion,OS,frameRate,PROLIFIC_PID,STUDY_ID,SESSION_ID,signatures_friend,signatures_foe,band_ranges_top,band_ranges_bottom,formitemText,formtype,formundefined,formitemWidth,formindex,formresponse,formrt,key_resp_2.keys,key_resp_2.rt,tute_resp.keys,tute_resp.rt,tutorial.thisRepN,tutorial.thisTrialN,tutorial.thisN,tutorial.thisIndex,tutorial.ran,key_resp_4.keys,key_resp_4.rt,key_resp.keys,key_resp.corr,key_resp.rt,lines_presented,is_signal_presented,trials.thisRepN,trials.thisTrialN,trials.thisN,trials.thisIndex,trials.ran,vessel,active_band,lines,is_signal,supported_pos,catch_trial,debrief_formindex,debrief_formitemText,debrief_formtype,debrief_formitemWidth,debrief_formresponse,debrief_formrt,phases.thisRepN,phases.thisTrialN,phases.thisN,phases.thisIndex,phases.ran,phases.order,phase,key_resp_3.keys,trustitemText,trusttype,trustitemWidth,trustindex,trustresponse,trustrt,support_status.thisRepN,support_status.thisTrialN,support_status.thisN,support_status.thisIndex,support_status.ran,support_status.order,key_resp_5.keys,key_resp_5.rt,globalClockTime,userAgent
TRUE,Monica,001,2022-04-28_20h13.47.567,classification_task,2021.2.3,MacIntel,60.0024001,613a7218f9ec43822c2bd5fe,626b377229c10585ec392f8a,626b3b312b3d4c70d91c32f9,,,,,,,,,,,,,,,,,,,,,,,,,,,,,,,,,,,,,,,,,,,,,,,,,,,,,,,,,,,,,,,,,,,,
,Monica,001,2022-04-28_20h13.47.567,classification_task,2021.2.3,MacIntel,60.0024001,613a7218f9ec43822c2bd5fe,626b377229c10585ec392f8a,626b3b312b3d4c70d91c32f9,"[[""0.157"",""0.508"",""0.688"",""0.873""],[""0.244"",""0.544"",""0.918"",""0.955""]]","[[""0.068"",""0.297"",""0.588"",""0.797""],[""0.029"",""0.109"",""0.437"",""0.748""]]","[1,10]","[100,1000]",Video game experience,,,0.7,0,,,,,,,,,,,,,,,,,,,,,,,,,,,,,,,,,,,,,,,,,,,,,,,,,,,,,,,,,,,
,Monica,001,2022-04-28_20h13.47.567,classification_task,2021.2.3,MacIntel,60.0024001,613a7218f9ec43822c2bd5fe,626b377229c10585ec392f8a,626b3b312b3d4c70d91c32f9,,,,,Approximately how many hours did you spend playing video games in the last week?,,,0.7,0,1,,,,,,,,,,,,,,,,,,,,,,,,,,,,,,,,,,,,,,,,,,,,,,,,,,,,,,,,,,
,Monica,001,2022-04-28_20h13.47.567,classification_task,2021.2.3,MacIntel,60.0024001,613a7218f9ec43822c2bd5fe,626b377229c10585ec392f8a,626b3b312b3d4c70d91c32f9,,,,,"Which game did you play the most this year? (Enter ""None"" if you didn't play any)",,,0.7,0,None ,,,,,,,,,,,,,,,,,,,,,,,,,,,,,,,,,,,,,,,,,,,,,,,,,,,,,,,,,,
,Monica,001,2022-04-28_20h13.47.567,classification_task,2021.2.3,MacIntel,60.0024001,613a7218f9ec43822c2bd5fe,626b377229c10585ec392f8a,626b3b312b3d4c70d91c32f9,,,,,Visual perception,,,0.7,0,,,,,,,,,,,,,,,,,,,,,,,,,,,,,,,,,,,,,,,,,,,,,,,,,,,,,,,,,,,
,Monica,001,2022-04-28_20h13.47.567,classification_task,2021.2.3,MacIntel,60.0024001,613a7218f9ec43822c2bd5fe,626b377229c10585ec392f8a,626b3b312b3d4c70d91c32f9,,,,,Do you have any form of color blindness?,,,0.7,0,No,18.2862,,,,,,,,,,,,,,,,,,,,,,,,,,,,,,,,,,,,,,,,,,,,,,,,,,,,,,,,,
,Monica,001,2022-04-28_20h13.47.567,classification_task,2021.2.3,MacIntel,60.0024001,613a7218f9ec43822c2bd5fe,626b377229c10585ec392f8a,626b3b312b3d4c70d91c32f9,,,,,Do you use software to change the colour temperature of your screen (e.g. f.lux)?,,,0.7,0,Yes,20.6006,,,,,,,,,,,,,,,,,,,,,,,,,,,,,,,,,,,,,,,,,,,,,,,,,,,,,,,,,
,Monica,001,2022-04-28_20h13.47.567,classification_task,2021.2.3,MacIntel,60.0024001,613a7218f9ec43822c2bd5fe,626b377229c10585ec392f8a,626b3b312b3d4c70d91c32f9,,,,,,,,,,,,space,17.7463,space,4.6736,0,0,0,0,1,,,,,,,,,,,,,,,,,,,,,,,,,,,,,,,,,,,,,,,,,,,,,,,,
,Monica,001,2022-04-28_20h13.47.567,classification_task,2021.2.3,MacIntel,60.0024001,613a7218f9ec43822c2bd5fe,626b377229c10585ec392f8a,626b3b312b3d4c70d91c32f9,,,,,,,,,,,,,,space,3.7774,1,0,1,0,1,,,,,,,,,,,,,,,,,,,,,,,,,,,,,,,,,,,,,,,,,,,,,,,,
,Monica,001,2022-04-28_20h13.47.567,classification_task,2021.2.3,MacIntel,60.0024001,613a7218f9ec43822c2bd5fe,626b377229c10585ec392f8a,626b3b312b3d4c70d91c32f9,,,,,,,,,,,,,,space,4.9854,2,0,2,0,1,,,,,,,,,,,,,,,,,,,,,,,,,,,,,,,,,,,,,,,,,,,,,,,,
,Monica,001,2022-04-28_20h13.47.567,classification_task,2021.2.3,MacIntel,60.0024001,613a7218f9ec43822c2bd5fe,626b377229c10585ec392f8a,626b3b312b3d4c70d91c32f9,,,,,,,,,,,,,,space,6.5674,3,0,3,0,1,,,,,,,,,,,,,,,,,,,,,,,,,,,,,,,,,,,,,,,,,,,,,,,,
,Monica,001,2022-04-28_20h13.47.567,classification_task,2021.2.3,MacIntel,60.0024001,613a7218f9ec43822c2bd5fe,626b377229c10585ec392f8a,626b3b312b3d4c70d91c32f9,,,,,,,,,,,,,,space,9.8272,4,0,4,0,1,,,,,,,,,,,,,,,,,,,,,,,,,,,,,,,,,,,,,,,,,,,,,,,,
,Monica,001,2022-04-28_20h13.47.567,classification_task,2021.2.3,MacIntel,60.0024001,613a7218f9ec43822c2bd5fe,626b377229c10585ec392f8a,626b3b312b3d4c70d91c32f9,,,,,,,,,,,,,,,,,,,,,space,7.197,a,0,6.2086,"[""0.068"",""0.297"",""0.588"",""0.652""]","[1,1,1,0]",0,0,0,0,1,1,0,,,0,FALSE,,,,,,,,,,,,,,,,,,,,,,,,,,,,,,
,Monica,001,2022-04-28_20h13.47.567,classification_task,2021.2.3,MacIntel,60.0024001,613a7218f9ec43822c2bd5fe,626b377229c10585ec392f8a,626b3b312b3d4c70d91c32f9,,,,,,,,,,,,,,,,,,,,,,,a,1,5.4471,"[""0.244"",""0.340"",""0.918"",""0.955""]","[1,0,1,1]",0,1,1,1,1,0,1,,,0,FALSE,,,,,,,,,,,,,,,,,,,,,,,,,,,,,,
,Monica,001,2022-04-28_20h13.47.567,classification_task,2021.2.3,MacIntel,60.0024001,613a7218f9ec43822c2bd5fe,626b377229c10585ec392f8a,626b3b312b3d4c70d91c32f9,,,,,,,,,,,,,,,,,,,,,,,l,1,4.3572,"[""0.068"",""0.372"",""0.588"",""0.797""]","[1,0,1,1]",0,2,2,2,1,1,0,,,0,FALSE,,,,,,,,,,,,,,,,,,,,,,,,,,,,,,
,Monica,001,2022-04-28_20h13.47.567,classification_task,2021.2.3,MacIntel,60.0024001,613a7218f9ec43822c2bd5fe,626b377229c10585ec392f8a,626b3b312b3d4c70d91c32f9,,,,,,,,,,,,,,,,,,,,,,,a,0,2.5783,"[""0.029"",""0.109"",""0.437"",""0.650""]","[1,1,1,0]",0,3,3,3,1,1,1,,,0,FALSE,,,,,,,,,,,,,,,,,,,,,,,,,,,,,,
,Monica,001,2022-04-28_20h13.47.567,classification_task,2021.2.3,MacIntel,60.0024001,613a7218f9ec43822c2bd5fe,626b377229c10585ec392f8a,626b3b312b3d4c70d91c32f9,,,,,,,,,,,,,,,,,,,,,,,a,1,6.6312,"[""0.157"",""0.340"",""0.688"",""0.873""]","[1,0,1,1]",0,4,4,4,1,0,0,,,0,FALSE,,,,,,,,,,,,,,,,,,,,,,,,,,,,,,
,Monica,001,2022-04-28_20h13.47.567,classification_task,2021.2.3,MacIntel,60.0024001,613a7218f9ec43822c2bd5fe,626b377229c10585ec392f8a,626b3b312b3d4c70d91c32f9,,,,,,,,,,,,,,,,,,,,,,,l,1,4.3597,"[""0.631"",""0.297"",""0.588"",""0.797""]","[0,1,1,1]",0,5,5,5,1,1,0,,,0,FALSE,,,,,,,,,,,,,,,,,,,,,,,,,,,,,,
,Monica,001,2022-04-28_20h13.47.567,classification_task,2021.2.3,MacIntel,60.0024001,613a7218f9ec43822c2bd5fe,626b377229c10585ec392f8a,626b3b312b3d4c70d91c32f9,,,,,,,,,,,,,,,,,,,,,,,a,1,3.9335,"[""0.196"",""0.508"",""0.688"",""0.873""]","[0,1,1,1]",0,6,6,6,1,0,0,,,0,FALSE,,,,,,,,,,,,,,,,,,,,,,,,,,,,,,
,Monica,001,2022-04-28_20h13.47.567,classification_task,2021.2.3,MacIntel,60.0024001,613a7218f9ec43822c2bd5fe,626b377229c10585ec392f8a,626b3b312b3d4c70d91c32f9,,,,,,,,,,,,,,,,,,,,,,,a,1,3.7843,"[""0.244"",""0.544"",""0.918"",""0.338""]","[1,1,1,0]",0,7,7,7,1,0,1,,,0,FALSE,,,,,,,,,,,,,,,,,,,,,,,,,,,,,,
,Monica,001,2022-04-28_20h13.47.567,classification_task,2021.2.3,MacIntel,60.0024001,613a7218f9ec43822c2bd5fe,626b377229c10585ec392f8a,626b3b312b3d4c70d91c32f9,,,,,,,,,,,,,,,,,,,,,,,a,1,4.0199,"[""0.196"",""0.544"",""0.918"",""0.955""]","[0,1,1,1]",0,8,8,8,1,0,1,,,0,FALSE,,,,,,,,,,,,,,,,,,,,,,,,,,,,,,
,Monica,001,2022-04-28_20h13.47.567,classification_task,2021.2.3,MacIntel,60.0024001,613a7218f9ec43822c2bd5fe,626b377229c10585ec392f8a,626b3b312b3d4c70d91c32f9,,,,,,,,,,,,,,,,,,,,,,,l,1,3.2694,"[""0.196"",""0.109"",""0.437"",""0.748""]","[0,1,1,1]",0,9,9,9,1,1,1,,,0,FALSE,,,,,,,,,,,,,,,,,,,,,,,,,,,,,,
,Monica,001,2022-04-28_20h13.47.567,classification_task,2021.2.3,MacIntel,60.0024001,613a7218f9ec43822c2bd5fe,626b377229c10585ec392f8a,626b3b312b3d4c70d91c32f9,,,,,,,,,,,,,,,,,,,,,,,l,1,3.0514,"[""0.029"",""0.196"",""0.437"",""0.748""]","[1,0,1,1]",0,10,10,10,1,1,1,,,0,FALSE,,,,,,,,,,,,,,,,,,,,,,,,,,,,,,
,Monica,001,2022-04-28_20h13.47.567,classification_task,2021.2.3,MacIntel,60.0024001,613a7218f9ec43822c2bd5fe,626b377229c10585ec392f8a,626b3b312b3d4c70d91c32f9,,,,,,,,,,,,,,,,,,,,,,,a,1,2.4967,"[""0.157"",""0.508"",""0.196"",""0.873""]","[1,1,0,1]",0,11,11,11,1,0,0,,,0,FALSE,,,,,,,,,,,,,,,,,,,,,,,,,,,,,,
,Monica,001,2022-04-28_20h13.47.567,classification_task,2021.2.3,MacIntel,60.0024001,613a7218f9ec43822c2bd5fe,626b377229c10585ec392f8a,626b3b312b3d4c70d91c32f9,,,,,,,,,,,,,,,,,,,,,,,l,1,3.3302,"[""0.068"",""0.297"",""0.340"",""0.797""]","[1,1,0,1]",0,12,12,12,1,1,0,,,0,FALSE,,,,,,,,,,,,,,,,,,,,,,,,,,,,,,
,Monica,001,2022-04-28_20h13.47.567,classification_task,2021.2.3,MacIntel,60.0024001,613a7218f9ec43822c2bd5fe,626b377229c10585ec392f8a,626b3b312b3d4c70d91c32f9,,,,,,,,,,,,,,,,,,,,,,,a,1,2.2797,"[""0.244"",""0.544"",""0.652"",""0.955""]","[1,1,0,1]",0,13,13,13,1,0,1,,,0,FALSE,,,,,,,,,,,,,,,,,,,,,,,,,,,,,,
,Monica,001,2022-04-28_20h13.47.567,classification_task,2021.2.3,MacIntel,60.0024001,613a7218f9ec43822c2bd5fe,626b377229c10585ec392f8a,626b3b312b3d4c70d91c32f9,,,,,,,,,,,,,,,,,,,,,,,a,1,2.0789,"[""0.157"",""0.508"",""0.688"",""0.383""]","[1,1,1,0]",0,14,14,14,1,0,0,,,0,FALSE,,,,,,,,,,,,,,,,,,,,,,,,,,,,,,
,Monica,001,2022-04-28_20h13.47.567,classification_task,2021.2.3,MacIntel,60.0024001,613a7218f9ec43822c2bd5fe,626b377229c10585ec392f8a,626b3b312b3d4c70d91c32f9,,,,,,,,,,,,,,,,,,,,,,,l,1,3.1217,"[""0.029"",""0.109"",""0.383"",""0.748""]","[1,1,0,1]",0,15,15,15,1,1,1,,,0,FALSE,,,,,,,,,,,,,,,,,,,,,,,,,,,,,,
,Monica,001,2022-04-28_20h13.47.567,classification_task,2021.2.3,MacIntel,60.0024001,613a7218f9ec43822c2bd5fe,626b377229c10585ec392f8a,626b3b312b3d4c70d91c32f9,,,,,,,,,,,,,,,,,,,,,,,l,0,3.8877,"[""0.376"",""0.544"",""0.918"",""0.955""]","[0,1,1,1]",0,16,16,16,1,0,1,,,0,FALSE,,,,,,,,,,,,,,,,,,,,,,,,,,,,,,
,Monica,001,2022-04-28_20h13.47.567,classification_task,2021.2.3,MacIntel,60.0024001,613a7218f9ec43822c2bd5fe,626b377229c10585ec392f8a,626b3b312b3d4c70d91c32f9,,,,,,,,,,,,,,,,,,,,,,,l,1,1.8864,"[""0.029"",""0.109"",""0.650"",""0.748""]","[1,1,0,1]",0,17,17,17,1,1,1,,,0,FALSE,,,,,,,,,,,,,,,,,,,,,,,,,,,,,,
,Monica,001,2022-04-28_20h13.47.567,classification_task,2021.2.3,MacIntel,60.0024001,613a7218f9ec43822c2bd5fe,626b377229c10585ec392f8a,626b3b312b3d4c70d91c32f9,,,,,,,,,,,,,,,,,,,,,,,a,1,4.7031,"[""0.645"",""0.508"",""0.688"",""0.873""]","[0,1,1,1]",0,18,18,18,1,0,0,,,0,FALSE,,,,,,,,,,,,,,,,,,,,,,,,,,,,,,
,Monica,001,2022-04-28_20h13.47.567,classification_task,2021.2.3,MacIntel,60.0024001,613a7218f9ec43822c2bd5fe,626b377229c10585ec392f8a,626b3b312b3d4c70d91c32f9,,,,,,,,,,,,,,,,,,,,,,,a,1,1.9362,"[""0.157"",""0.508"",""0.196"",""0.873""]","[1,1,0,1]",0,19,19,19,1,0,0,,,0,FALSE,,,,,,,,,,,,,,,,,,,,,,,,,,,,,,
,Monica,001,2022-04-28_20h13.47.567,classification_task,2021.2.3,MacIntel,60.0024001,613a7218f9ec43822c2bd5fe,626b377229c10585ec392f8a,626b3b312b3d4c70d91c32f9,,,,,,,,,,,,,,,,,,,,,,,l,1,1.6061,"[""0.029"",""0.109"",""0.437"",""0.196""]","[1,1,1,0]",0,20,20,20,1,1,1,,,0,FALSE,,,,,,,,,,,,,,,,,,,,,,,,,,,,,,
,Monica,001,2022-04-28_20h13.47.567,classification_task,2021.2.3,MacIntel,60.0024001,613a7218f9ec43822c2bd5fe,626b377229c10585ec392f8a,626b3b312b3d4c70d91c32f9,,,,,,,,,,,,,,,,,,,,,,,l,1,1.6762,"[""0.029"",""0.399"",""0.437"",""0.748""]","[1,0,1,1]",0,21,21,21,1,1,1,,,0,FALSE,,,,,,,,,,,,,,,,,,,,,,,,,,,,,,
,Monica,001,2022-04-28_20h13.47.567,classification_task,2021.2.3,MacIntel,60.0024001,613a7218f9ec43822c2bd5fe,626b377229c10585ec392f8a,626b3b312b3d4c70d91c32f9,,,,,,,,,,,,,,,,,,,,,,,a,1,1.9969,"[""0.157"",""0.645"",""0.688"",""0.873""]","[1,0,1,1]",0,22,22,22,1,0,0,,,0,FALSE,,,,,,,,,,,,,,,,,,,,,,,,,,,,,,
,Monica,001,2022-04-28_20h13.47.567,classification_task,2021.2.3,MacIntel,60.0024001,613a7218f9ec43822c2bd5fe,626b377229c10585ec392f8a,626b3b312b3d4c70d91c32f9,,,,,,,,,,,,,,,,,,,,,,,l,1,5.1885,"[""0.650"",""0.109"",""0.437"",""0.748""]","[0,1,1,1]",0,23,23,23,1,1,1,,,0,FALSE,,,,,,,,,,,,,,,,,,,,,,,,,,,,,,
,Monica,001,2022-04-28_20h13.47.567,classification_task,2021.2.3,MacIntel,60.0024001,613a7218f9ec43822c2bd5fe,626b377229c10585ec392f8a,626b3b312b3d4c70d91c32f9,,,,,,,,,,,,,,,,,,,,,,,a,1,4.4355,"[""0.244"",""0.544"",""0.918"",""0.372""]","[1,1,1,0]",0,24,24,24,1,0,1,,,0,FALSE,,,,,,,,,,,,,,,,,,,,,,,,,,,,,,
,Monica,001,2022-04-28_20h13.47.567,classification_task,2021.2.3,MacIntel,60.0024001,613a7218f9ec43822c2bd5fe,626b377229c10585ec392f8a,626b3b312b3d4c70d91c32f9,,,,,,,,,,,,,,,,,,,,,,,a,1,5.1755,"[""0.157"",""0.508"",""0.688"",""0.359""]","[1,1,1,0]",0,25,25,25,1,0,0,,,0,FALSE,,,,,,,,,,,,,,,,,,,,,,,,,,,,,,
,Monica,001,2022-04-28_20h13.47.567,classification_task,2021.2.3,MacIntel,60.0024001,613a7218f9ec43822c2bd5fe,626b377229c10585ec392f8a,626b3b312b3d4c70d91c32f9,,,,,,,,,,,,,,,,,,,,,,,a,0,2.088,"[""0.068"",""0.297"",""0.588"",""0.399""]","[1,1,1,0]",0,26,26,26,1,1,0,,,0,FALSE,,,,,,,,,,,,,,,,,,,,,,,,,,,,,,
,Monica,001,2022-04-28_20h13.47.567,classification_task,2021.2.3,MacIntel,60.0024001,613a7218f9ec43822c2bd5fe,626b377229c10585ec392f8a,626b3b312b3d4c70d91c32f9,,,,,,,,,,,,,,,,,,,,,,,l,1,2.3998,"[""0.068"",""0.652"",""0.588"",""0.797""]","[1,0,1,1]",0,27,27,27,1,1,0,,,0,FALSE,,,,,,,,,,,,,,,,,,,,,,,,,,,,,,
,Monica,001,2022-04-28_20h13.47.567,classification_task,2021.2.3,MacIntel,60.0024001,613a7218f9ec43822c2bd5fe,626b377229c10585ec392f8a,626b3b312b3d4c70d91c32f9,,,,,,,,,,,,,,,,,,,,,,,l,0,2.6532,"[""0.244"",""0.631"",""0.918"",""0.955""]","[1,0,1,1]",0,28,28,28,1,0,1,,,0,FALSE,,,,,,,,,,,,,,,,,,,,,,,,,,,,,,
,Monica,001,2022-04-28_20h13.47.567,classification_task,2021.2.3,MacIntel,60.0024001,613a7218f9ec43822c2bd5fe,626b377229c10585ec392f8a,626b3b312b3d4c70d91c32f9,,,,,,,,,,,,,,,,,,,,,,,a,1,1.6354,"[""0.244"",""0.544"",""0.359"",""0.955""]","[1,1,0,1]",0,29,29,29,1,0,1,,,0,FALSE,,,,,,,,,,,,,,,,,,,,,,,,,,,,,,
,Monica,001,2022-04-28_20h13.47.567,classification_task,2021.2.3,MacIntel,60.0024001,613a7218f9ec43822c2bd5fe,626b377229c10585ec392f8a,626b3b312b3d4c70d91c32f9,,,,,,,,,,,,,,,,,,,,,,,a,0,2.3512,"[""0.068"",""0.297"",""0.194"",""0.797""]","[1,1,0,1]",0,30,30,30,1,1,0,,,0,FALSE,,,,,,,,,,,,,,,,,,,,,,,,,,,,,,
,Monica,001,2022-04-28_20h13.47.567,classification_task,2021.2.3,MacIntel,60.0024001,613a7218f9ec43822c2bd5fe,626b377229c10585ec392f8a,626b3b312b3d4c70d91c32f9,,,,,,,,,,,,,,,,,,,,,,,l,1,1.7466,"[""0.196"",""0.297"",""0.588"",""0.797""]","[0,1,1,1]",0,31,31,31,1,1,0,,,0,FALSE,,,,,,,,,,,,,,,,,,,,,,,,,,,,,,
,Monica,001,2022-04-28_20h13.47.567,classification_task,2021.2.3,MacIntel,60.0024001,613a7218f9ec43822c2bd5fe,626b377229c10585ec392f8a,626b3b312b3d4c70d91c32f9,,,,,,,,,,,,,,,,,,,,,,,l,0,4.2012,"[""0.157"",""0.508"",""0.194"",""0.873""]","[1,1,0,1]",0,32,32,32,1,0,0,,,0,FALSE,,,,,,,,,,,,,,,,,,,,,,,,,,,,,,
,Monica,001,2022-04-28_20h13.47.567,classification_task,2021.2.3,MacIntel,60.0024001,613a7218f9ec43822c2bd5fe,626b377229c10585ec392f8a,626b3b312b3d4c70d91c32f9,,,,,,,,,,,,,,,,,,,,,,,a,0,2.3038,"[""0.194"",""0.109"",""0.437"",""0.748""]","[0,1,1,1]",0,33,33,33,1,1,1,,,0,FALSE,,,,,,,,,,,,,,,,,,,,,,,,,,,,,,
,Monica,001,2022-04-28_20h13.47.567,classification_task,2021.2.3,MacIntel,60.0024001,613a7218f9ec43822c2bd5fe,626b377229c10585ec392f8a,626b3b312b3d4c70d91c32f9,,,,,,,,,,,,,,,,,,,,,,,l,0,3.355,"[""0.244"",""0.194"",""0.918"",""0.955""]","[1,0,1,1]",0,34,34,34,1,0,1,,,0,FALSE,,,,,,,,,,,,,,,,,,,,,,,,,,,,,,
,Monica,001,2022-04-28_20h13.47.567,classification_task,2021.2.3,MacIntel,60.0024001,613a7218f9ec43822c2bd5fe,626b377229c10585ec392f8a,626b3b312b3d4c70d91c32f9,,,,,,,,,,,,,,,,,,,,,,,a,0,1.419,"[""0.068"",""0.399"",""0.588"",""0.797""]","[1,0,1,1]",0,35,35,35,1,1,0,,,0,FALSE,,,,,,,,,,,,,,,,,,,,,,,,,,,,,,
,Monica,001,2022-04-28_20h13.47.567,classification_task,2021.2.3,MacIntel,60.0024001,613a7218f9ec43822c2bd5fe,626b377229c10585ec392f8a,626b3b312b3d4c70d91c32f9,,,,,,,,,,,,,,,,,,,,,,,a,1,0.7923,"[""0.244"",""0.544"",""0.372"",""0.955""]","[1,1,0,1]",0,36,36,36,1,0,1,,,0,FALSE,,,,,,,,,,,,,,,,,,,,,,,,,,,,,,
,Monica,001,2022-04-28_20h13.47.567,classification_task,2021.2.3,MacIntel,60.0024001,613a7218f9ec43822c2bd5fe,626b377229c10585ec392f8a,626b3b312b3d4c70d91c32f9,,,,,,,,,,,,,,,,,,,,,,,l,0,1.3618,"[""0.340"",""0.544"",""0.918"",""0.955""]","[0,1,1,1]",0,37,37,37,1,0,1,,,0,FALSE,,,,,,,,,,,,,,,,,,,,,,,,,,,,,,
,Monica,001,2022-04-28_20h13.47.567,classification_task,2021.2.3,MacIntel,60.0024001,613a7218f9ec43822c2bd5fe,626b377229c10585ec392f8a,626b3b312b3d4c70d91c32f9,,,,,,,,,,,,,,,,,,,,,,,l,0,0.6596,"[""0.157"",""0.508"",""0.688"",""0.338""]","[1,1,1,0]",0,38,38,38,1,0,0,,,0,FALSE,,,,,,,,,,,,,,,,,,,,,,,,,,,,,,
,Monica,001,2022-04-28_20h13.47.567,classification_task,2021.2.3,MacIntel,60.0024001,613a7218f9ec43822c2bd5fe,626b377229c10585ec392f8a,626b3b312b3d4c70d91c32f9,,,,,,,,,,,,,,,,,,,,,,,l,1,1.5915,"[""0.029"",""0.652"",""0.437"",""0.748""]","[1,0,1,1]",0,39,39,39,1,1,1,,,0,FALSE,,,,,,,,,,,,,,,,,,,,,,,,,,,,,,
,Monica,001,2022-04-28_20h13.47.567,classification_task,2021.2.3,MacIntel,60.0024001,613a7218f9ec43822c2bd5fe,626b377229c10585ec392f8a,626b3b312b3d4c70d91c32f9,,,,,,,,,,,,,,,,,,,,,,,a,0,0.6522,"[""0.068"",""0.297"",""0.588"",""0.194""]","[1,1,1,0]",0,40,40,40,1,1,0,,,0,FALSE,,,,,,,,,,,,,,,,,,,,,,,,,,,,,,
,Monica,001,2022-04-28_20h13.47.567,classification_task,2021.2.3,MacIntel,60.0024001,613a7218f9ec43822c2bd5fe,626b377229c10585ec392f8a,626b3b312b3d4c70d91c32f9,,,,,,,,,,,,,,,,,,,,,,,l,1,0.9565,"[""0.029"",""0.109"",""0.372"",""0.748""]","[1,1,0,1]",0,41,41,41,1,1,1,,,0,FALSE,,,,,,,,,,,,,,,,,,,,,,,,,,,,,,
,Monica,001,2022-04-28_20h13.47.567,classification_task,2021.2.3,MacIntel,60.0024001,613a7218f9ec43822c2bd5fe,626b377229c10585ec392f8a,626b3b312b3d4c70d91c32f9,,,,,,,,,,,,,,,,,,,,,,,a,1,0.5325,"[""0.244"",""0.544"",""0.918"",""0.635""]","[1,1,1,0]",0,42,42,42,1,0,1,,,0,FALSE,,,,,,,,,,,,,,,,,,,,,,,,,,,,,,
,Monica,001,2022-04-28_20h13.47.567,classification_task,2021.2.3,MacIntel,60.0024001,613a7218f9ec43822c2bd5fe,626b377229c10585ec392f8a,626b3b312b3d4c70d91c32f9,,,,,,,,,,,,,,,,,,,,,,,l,0,0.8963,"[""0.376"",""0.508"",""0.688"",""0.873""]","[0,1,1,1]",0,43,43,43,1,0,0,,,0,FALSE,,,,,,,,,,,,,,,,,,,,,,,,,,,,,,
,Monica,001,2022-04-28_20h13.47.567,classification_task,2021.2.3,MacIntel,60.0024001,613a7218f9ec43822c2bd5fe,626b377229c10585ec392f8a,626b3b312b3d4c70d91c32f9,,,,,,,,,,,,,,,,,,,,,,,a,0,0.2743,"[""0.194"",""0.297"",""0.588"",""0.797""]","[0,1,1,1]",0,44,44,44,1,1,0,,,0,FALSE,,,,,,,,,,,,,,,,,,,,,,,,,,,,,,
,Monica,001,2022-04-28_20h13.47.567,classification_task,2021.2.3,MacIntel,60.0024001,613a7218f9ec43822c2bd5fe,626b377229c10585ec392f8a,626b3b312b3d4c70d91c32f9,,,,,,,,,,,,,,,,,,,,,,,l,1,0.3347,"[""0.068"",""0.297"",""0.359"",""0.797""]","[1,1,0,1]",0,45,45,45,1,1,0,,,0,FALSE,,,,,,,,,,,,,,,,,,,,,,,,,,,,,,
,Monica,001,2022-04-28_20h13.47.567,classification_task,2021.2.3,MacIntel,60.0024001,613a7218f9ec43822c2bd5fe,626b377229c10585ec392f8a,626b3b312b3d4c70d91c32f9,,,,,,,,,,,,,,,,,,,,,,,a,0,1.243,"[""0.029"",""0.109"",""0.437"",""0.645""]","[1,1,1,0]",0,46,46,46,1,1,1,,,0,FALSE,,,,,,,,,,,,,,,,,,,,,,,,,,,,,,
,Monica,001,2022-04-28_20h13.47.567,classification_task,2021.2.3,MacIntel,60.0024001,613a7218f9ec43822c2bd5fe,626b377229c10585ec392f8a,626b3b312b3d4c70d91c32f9,,,,,,,,,,,,,,,,,,,,,,,l,0,0.6875,"[""0.157"",""0.650"",""0.688"",""0.873""]","[1,0,1,1]",0,47,47,47,1,0,0,,,0,FALSE,,,,,,,,,,,,,,,,,,,,,,,,,,,,,,
,Monica,001,2022-04-28_20h13.47.567,classification_task,2021.2.3,MacIntel,60.0024001,613a7218f9ec43822c2bd5fe,626b377229c10585ec392f8a,626b3b312b3d4c70d91c32f9,,,,,,,,,,,,,,,,,,,,,,,a,0,0.268,"[""0.068"",""0.297"",""0.588"",""0.383""]","[1,1,1,0]",0,48,48,48,1,1,0,,,0,FALSE,,,,,,,,,,,,,,,,,,,,,,,,,,,,,,
,Monica,001,2022-04-28_20h13.47.567,classification_task,2021.2.3,MacIntel,60.0024001,613a7218f9ec43822c2bd5fe,626b377229c10585ec392f8a,626b3b312b3d4c70d91c32f9,,,,,,,,,,,,,,,,,,,,,,,l,0,0.2841,"[""0.244"",""0.544"",""0.918"",""0.196""]","[1,1,1,0]",0,49,49,49,1,0,1,,,0,FALSE,,,,,,,,,,,,,,,,,,,,,,,,,,,,,,
,Monica,001,2022-04-28_20h13.47.567,classification_task,2021.2.3,MacIntel,60.0024001,613a7218f9ec43822c2bd5fe,626b377229c10585ec392f8a,626b3b312b3d4c70d91c32f9,,,,,,,,,,,,,,,,,,,,,,,l,1,0.7786,"[""0.029"",""0.645"",""0.437"",""0.748""]","[1,0,1,1]",0,50,50,50,1,1,1,,,0,FALSE,,,,,,,,,,,,,,,,,,,,,,,,,,,,,,
,Monica,001,2022-04-28_20h13.47.567,classification_task,2021.2.3,MacIntel,60.0024001,613a7218f9ec43822c2bd5fe,626b377229c10585ec392f8a,626b3b312b3d4c70d91c32f9,,,,,,,,,,,,,,,,,,,,,,,l,0,0.5569,"[""0.157"",""0.372"",""0.688"",""0.873""]","[1,0,1,1]",0,51,51,51,1,0,0,,,0,FALSE,,,,,,,,,,,,,,,,,,,,,,,,,,,,,,
,Monica,001,2022-04-28_20h13.47.567,classification_task,2021.2.3,MacIntel,60.0024001,613a7218f9ec43822c2bd5fe,626b377229c10585ec392f8a,626b3b312b3d4c70d91c32f9,,,,,,,,,,,,,,,,,,,,,,,l,0,0.3911,"[""0.157"",""0.508"",""0.399"",""0.873""]","[1,1,0,1]",0,52,52,52,1,0,0,,,0,FALSE,,,,,,,,,,,,,,,,,,,,,,,,,,,,,,
,Monica,001,2022-04-28_20h13.47.567,classification_task,2021.2.3,MacIntel,60.0024001,613a7218f9ec43822c2bd5fe,626b377229c10585ec392f8a,626b3b312b3d4c70d91c32f9,,,,,,,,,,,,,,,,,,,,,,,l,0,0.2907,"[""0.157"",""0.508"",""0.688"",""0.399""]","[1,1,1,0]",0,53,53,53,1,0,0,,,0,FALSE,,,,,,,,,,,,,,,,,,,,,,,,,,,,,,
,Monica,001,2022-04-28_20h13.47.567,classification_task,2021.2.3,MacIntel,60.0024001,613a7218f9ec43822c2bd5fe,626b377229c10585ec392f8a,626b3b312b3d4c70d91c32f9,,,,,,,,,,,,,,,,,,,,,,,a,0,0.484,"[""0.068"",""0.297"",""0.383"",""0.797""]","[1,1,0,1]",0,54,54,54,1,1,0,,,0,FALSE,,,,,,,,,,,,,,,,,,,,,,,,,,,,,,
,Monica,001,2022-04-28_20h13.47.567,classification_task,2021.2.3,MacIntel,60.0024001,613a7218f9ec43822c2bd5fe,626b377229c10585ec392f8a,626b3b312b3d4c70d91c32f9,,,,,,,,,,,,,,,,,,,,,,,l,0,0.294,"[""0.244"",""0.359"",""0.918"",""0.955""]","[1,0,1,1]",0,55,55,55,1,0,1,,,0,FALSE,,,,,,,,,,,,,,,,,,,,,,,,,,,,,,
,Monica,001,2022-04-28_20h13.47.567,classification_task,2021.2.3,MacIntel,60.0024001,613a7218f9ec43822c2bd5fe,626b377229c10585ec392f8a,626b3b312b3d4c70d91c32f9,,,,,,,,,,,,,,,,,,,,,,,a,0,0.2929,"[""0.029"",""0.109"",""0.437"",""0.376""]","[1,1,1,0]",0,56,56,56,1,1,1,,,0,FALSE,,,,,,,,,,,,,,,,,,,,,,,,,,,,,,
,Monica,001,2022-04-28_20h13.47.567,classification_task,2021.2.3,MacIntel,60.0024001,613a7218f9ec43822c2bd5fe,626b377229c10585ec392f8a,626b3b312b3d4c70d91c32f9,,,,,,,,,,,,,,,,,,,,,,,l,1,1.0438,"[""0.029"",""0.109"",""0.356"",""0.748""]","[1,1,0,1]",0,57,57,57,1,1,1,,,0,FALSE,,,,,,,,,,,,,,,,,,,,,,,,,,,,,,
,Monica,001,2022-04-28_20h13.47.567,classification_task,2021.2.3,MacIntel,60.0024001,613a7218f9ec43822c2bd5fe,626b377229c10585ec392f8a,626b3b312b3d4c70d91c32f9,,,,,,,,,,,,,,,,,,,,,,,l,1,0.6512,"[""0.068"",""0.399"",""0.588"",""0.797""]","[1,0,1,1]",0,58,58,58,1,1,0,,,0,FALSE,,,,,,,,,,,,,,,,,,,,,,,,,,,,,,
,Monica,001,2022-04-28_20h13.47.567,classification_task,2021.2.3,MacIntel,60.0024001,613a7218f9ec43822c2bd5fe,626b377229c10585ec392f8a,626b3b312b3d4c70d91c32f9,,,,,,,,,,,,,,,,,,,,,,,l,0,0.5698,"[""0.645"",""0.508"",""0.688"",""0.873""]","[0,1,1,1]",0,59,59,59,1,0,0,,,0,FALSE,,,,,,,,,,,,,,,,,,,,,,,,,,,,,,
,Monica,001,2022-04-28_20h13.47.567,classification_task,2021.2.3,MacIntel,60.0024001,613a7218f9ec43822c2bd5fe,626b377229c10585ec392f8a,626b3b312b3d4c70d91c32f9,,,,,,,,,,,,,,,,,,,,,,,a,1,0.2948,"[""0.244"",""0.544"",""0.631"",""0.955""]","[1,1,0,1]",0,60,60,60,1,0,1,,,0,FALSE,,,,,,,,,,,,,,,,,,,,,,,,,,,,,,
,Monica,001,2022-04-28_20h13.47.567,classification_task,2021.2.3,MacIntel,60.0024001,613a7218f9ec43822c2bd5fe,626b377229c10585ec392f8a,626b3b312b3d4c70d91c32f9,,,,,,,,,,,,,,,,,,,,,,,a,0,0.4625,"[""0.631"",""0.109"",""0.437"",""0.748""]","[0,1,1,1]",0,61,61,61,1,1,1,,,0,FALSE,,,,,,,,,,,,,,,,,,,,,,,,,,,,,,
,Monica,001,2022-04-28_20h13.47.567,classification_task,2021.2.3,MacIntel,60.0024001,613a7218f9ec43822c2bd5fe,626b377229c10585ec392f8a,626b3b312b3d4c70d91c32f9,,,,,,,,,,,,,,,,,,,,,,,a,0,0.3092,"[""0.194"",""0.297"",""0.588"",""0.797""]","[0,1,1,1]",0,62,62,62,1,1,0,,,0,FALSE,,,,,,,,,,,,,,,,,,,,,,,,,,,,,,
,Monica,001,2022-04-28_20h13.47.567,classification_task,2021.2.3,MacIntel,60.0024001,613a7218f9ec43822c2bd5fe,626b377229c10585ec392f8a,626b3b312b3d4c70d91c32f9,,,,,,,,,,,,,,,,,,,,,,,l,0,0.6612,"[""0.650"",""0.544"",""0.918"",""0.955""]","[0,1,1,1]",0,63,63,63,1,0,1,,,0,FALSE,,,,,,,,,,,,,,,,,,,,,,,,,,,,,,
,Monica,001,2022-04-28_20h13.47.567,classification_task,2021.2.3,MacIntel,60.0024001,613a7218f9ec43822c2bd5fe,626b377229c10585ec392f8a,626b3b312b3d4c70d91c32f9,,,,,,,,,,,,,,,,,,,,,,,,,,,,,,,,,,,,,,,0, ,,0,4.726497195,318.2855,0,0,0,0,1,2,1,,,,,,,,,,,,,,,,,
,Monica,001,2022-04-28_20h13.47.567,classification_task,2021.2.3,MacIntel,60.0024001,613a7218f9ec43822c2bd5fe,626b377229c10585ec392f8a,626b3b312b3d4c70d91c32f9,,,,,,,,,,,,,,,,,,,,,,,,,,,,,,,,,,,,,,,1,  ,,0,7.394325575,321.5642,0,0,0,0,1,2,1,,,,,,,,,,,,,,,,,
,Monica,001,2022-04-28_20h13.47.567,classification_task,2021.2.3,MacIntel,60.0024001,613a7218f9ec43822c2bd5fe,626b377229c10585ec392f8a,626b3b312b3d4c70d91c32f9,,,,,,,,,,,,,,,,,,,,,,,,,,,,,,,,,,,,,,,2,  ,,0,2.617440109,324.5626,0,0,0,0,1,2,1,,,,,,,,,,,,,,,,,
,Monica,001,2022-04-28_20h13.47.567,classification_task,2021.2.3,MacIntel,60.0024001,613a7218f9ec43822c2bd5fe,626b377229c10585ec392f8a,626b3b312b3d4c70d91c32f9,,,,,,,,,,,,,,,,,,,,,,,,,,,,,,,,,,,,,,,,,,,,,0,0,0,0,1,,1,,,,,,,,,,,,,,,,,
,Monica,001,2022-04-28_20h13.47.567,classification_task,2021.2.3,MacIntel,60.0024001,613a7218f9ec43822c2bd5fe,626b377229c10585ec392f8a,626b3b312b3d4c70d91c32f9,,,,,,,,,,,,,,,,,,,,,space,6.4358,a,1,2.4951,"[""0.157"",""0.508"",""0.196"",""0.873""]","[1,1,0,1]",0,0,0,0,1,0,0,,,0,FALSE,,,,,,,,,,,,,,,,,,,,,,,,,,,,,,
,Monica,001,2022-04-28_20h13.47.567,classification_task,2021.2.3,MacIntel,60.0024001,613a7218f9ec43822c2bd5fe,626b377229c10585ec392f8a,626b3b312b3d4c70d91c32f9,,,,,,,,,,,,,,,,,,,,,,,l,0,3.4242,"[""0.244"",""0.631"",""0.918"",""0.955""]","[1,0,1,1]",0,1,1,1,1,0,1,,,0,FALSE,,,,,,,,,,,,,,,,,,,,,,,,,,,,,,
,Monica,001,2022-04-28_20h13.47.567,classification_task,2021.2.3,MacIntel,60.0024001,613a7218f9ec43822c2bd5fe,626b377229c10585ec392f8a,626b3b312b3d4c70d91c32f9,,,,,,,,,,,,,,,,,,,,,,,a,0,0.8542,"[""0.029"",""0.109"",""0.437"",""0.399""]","[1,1,1,0]",0,2,2,2,1,1,1,,,0,FALSE,,,,,,,,,,,,,,,,,,,,,,,,,,,,,,
,Monica,001,2022-04-28_20h13.47.567,classification_task,2021.2.3,MacIntel,60.0024001,613a7218f9ec43822c2bd5fe,626b377229c10585ec392f8a,626b3b312b3d4c70d91c32f9,,,,,,,,,,,,,,,,,,,,,,,a,1,1.4174,"[""0.157"",""0.508"",""0.688"",""0.399""]","[1,1,1,0]",0,3,3,3,1,0,0,,,0,FALSE,,,,,,,,,,,,,,,,,,,,,,,,,,,,,,
,Monica,001,2022-04-28_20h13.47.567,classification_task,2021.2.3,MacIntel,60.0024001,613a7218f9ec43822c2bd5fe,626b377229c10585ec392f8a,626b3b312b3d4c70d91c32f9,,,,,,,,,,,,,,,,,,,,,,,a,0,1.2748,"[""0.068"",""0.297"",""0.645"",""0.797""]","[1,1,0,1]",0,4,4,4,1,1,0,,,0,FALSE,,,,,,,,,,,,,,,,,,,,,,,,,,,,,,
,Monica,001,2022-04-28_20h13.47.567,classification_task,2021.2.3,MacIntel,60.0024001,613a7218f9ec43822c2bd5fe,626b377229c10585ec392f8a,626b3b312b3d4c70d91c32f9,,,,,,,,,,,,,,,,,,,,,,,l,0,0.7721,"[""0.157"",""0.372"",""0.688"",""0.873""]","[1,0,1,1]",0,5,5,5,1,0,0,,,0,FALSE,,,,,,,,,,,,,,,,,,,,,,,,,,,,,,
,Monica,001,2022-04-28_20h13.47.567,classification_task,2021.2.3,MacIntel,60.0024001,613a7218f9ec43822c2bd5fe,626b377229c10585ec392f8a,626b3b312b3d4c70d91c32f9,,,,,,,,,,,,,,,,,,,,,,,l,0,0.7457,"[""0.340"",""0.508"",""0.688"",""0.873""]","[0,1,1,1]",0,6,6,6,1,0,0,,,0,FALSE,,,,,,,,,,,,,,,,,,,,,,,,,,,,,,
,Monica,001,2022-04-28_20h13.47.567,classification_task,2021.2.3,MacIntel,60.0024001,613a7218f9ec43822c2bd5fe,626b377229c10585ec392f8a,626b3b312b3d4c70d91c32f9,,,,,,,,,,,,,,,,,,,,,,,l,1,1.7715,"[""0.029"",""0.109"",""0.194"",""0.748""]","[1,1,0,1]",0,7,7,7,1,1,1,,,0,FALSE,,,,,,,,,,,,,,,,,,,,,,,,,,,,,,
,Monica,001,2022-04-28_20h13.47.567,classification_task,2021.2.3,MacIntel,60.0024001,613a7218f9ec43822c2bd5fe,626b377229c10585ec392f8a,626b3b312b3d4c70d91c32f9,,,,,,,,,,,,,,,,,,,,,,,a,1,1.144,"[""0.244"",""0.544"",""0.635"",""0.955""]","[1,1,0,1]",0,8,8,8,1,0,1,,,0,FALSE,,,,,,,,,,,,,,,,,,,,,,,,,,,,,,
,Monica,001,2022-04-28_20h13.47.567,classification_task,2021.2.3,MacIntel,60.0024001,613a7218f9ec43822c2bd5fe,626b377229c10585ec392f8a,626b3b312b3d4c70d91c32f9,,,,,,,,,,,,,,,,,,,,,,,a,0,1.0394,"[""0.029"",""0.372"",""0.437"",""0.748""]","[1,0,1,1]",0,9,9,9,1,1,1,,,0,FALSE,,,,,,,,,,,,,,,,,,,,,,,,,,,,,,
,Monica,001,2022-04-28_20h13.47.567,classification_task,2021.2.3,MacIntel,60.0024001,613a7218f9ec43822c2bd5fe,626b377229c10585ec392f8a,626b3b312b3d4c70d91c32f9,,,,,,,,,,,,,,,,,,,,,,,l,0,0.4935,"[""0.338"",""0.544"",""0.918"",""0.955""]","[0,1,1,1]",0,10,10,10,1,0,1,,,0,FALSE,,,,,,,,,,,,,,,,,,,,,,,,,,,,,,
,Monica,001,2022-04-28_20h13.47.567,classification_task,2021.2.3,MacIntel,60.0024001,613a7218f9ec43822c2bd5fe,626b377229c10585ec392f8a,626b3b312b3d4c70d91c32f9,,,,,,,,,,,,,,,,,,,,,,,l,0,0.6774,"[""0.244"",""0.544"",""0.918"",""0.635""]","[1,1,1,0]",0,11,11,11,1,0,1,,,0,FALSE,,,,,,,,,,,,,,,,,,,,,,,,,,,,,,
,Monica,001,2022-04-28_20h13.47.567,classification_task,2021.2.3,MacIntel,60.0024001,613a7218f9ec43822c2bd5fe,626b377229c10585ec392f8a,626b3b312b3d4c70d91c32f9,,,,,,,,,,,,,,,,,,,,,,,l,1,1.1178,"[""0.356"",""0.297"",""0.588"",""0.797""]","[0,1,1,1]",0,12,12,12,1,1,0,,,0,FALSE,,,,,,,,,,,,,,,,,,,,,,,,,,,,,,
,Monica,001,2022-04-28_20h13.47.567,classification_task,2021.2.3,MacIntel,60.0024001,613a7218f9ec43822c2bd5fe,626b377229c10585ec392f8a,626b3b312b3d4c70d91c32f9,,,,,,,,,,,,,,,,,,,,,,,a,0,0.776,"[""0.068"",""0.297"",""0.588"",""0.372""]","[1,1,1,0]",0,13,13,13,1,1,0,,,0,FALSE,,,,,,,,,,,,,,,,,,,,,,,,,,,,,,
,Monica,001,2022-04-28_20h13.47.567,classification_task,2021.2.3,MacIntel,60.0024001,613a7218f9ec43822c2bd5fe,626b377229c10585ec392f8a,626b3b312b3d4c70d91c32f9,,,,,,,,,,,,,,,,,,,,,,,l,1,1.7619,"[""0.068"",""0.399"",""0.588"",""0.797""]","[1,0,1,1]",0,14,14,14,1,1,0,,,0,FALSE,,,,,,,,,,,,,,,,,,,,,,,,,,,,,,
,Monica,001,2022-04-28_20h13.47.567,classification_task,2021.2.3,MacIntel,60.0024001,613a7218f9ec43822c2bd5fe,626b377229c10585ec392f8a,626b3b312b3d4c70d91c32f9,,,,,,,,,,,,,,,,,,,,,,,l,1,2.086,"[""0.356"",""0.109"",""0.437"",""0.748""]","[0,1,1,1]",0,15,15,15,1,1,1,,,0,FALSE,,,,,,,,,,,,,,,,,,,,,,,,,,,,,,
,Monica,001,2022-04-28_20h13.47.567,classification_task,2021.2.3,MacIntel,60.0024001,613a7218f9ec43822c2bd5fe,626b377229c10585ec392f8a,626b3b312b3d4c70d91c32f9,,,,,,,,,,,,,,,,,,,,,,,l,0,0.7053,"[""0.359"",""0.544"",""0.918"",""0.955""]","[0,1,1,1]",0,16,16,16,1,0,1,,,0,FALSE,,,,,,,,,,,,,,,,,,,,,,,,,,,,,,
,Monica,001,2022-04-28_20h13.47.567,classification_task,2021.2.3,MacIntel,60.0024001,613a7218f9ec43822c2bd5fe,626b377229c10585ec392f8a,626b3b312b3d4c70d91c32f9,,,,,,,,,,,,,,,,,,,,,,,a,0,0.3227,"[""0.399"",""0.297"",""0.588"",""0.797""]","[0,1,1,1]",0,17,17,17,1,1,0,,,0,FALSE,,,,,,,,,,,,,,,,,,,,,,,,,,,,,,
,Monica,001,2022-04-28_20h13.47.567,classification_task,2021.2.3,MacIntel,60.0024001,613a7218f9ec43822c2bd5fe,626b377229c10585ec392f8a,626b3b312b3d4c70d91c32f9,,,,,,,,,,,,,,,,,,,,,,,a,1,0.8598,"[""0.157"",""0.508"",""0.688"",""0.631""]","[1,1,1,0]",0,18,18,18,1,0,0,,,0,FALSE,,,,,,,,,,,,,,,,,,,,,,,,,,,,,,
,Monica,001,2022-04-28_20h13.47.567,classification_task,2021.2.3,MacIntel,60.0024001,613a7218f9ec43822c2bd5fe,626b377229c10585ec392f8a,626b3b312b3d4c70d91c32f9,,,,,,,,,,,,,,,,,,,,,,,a,1,0.5367,"[""0.244"",""0.544"",""0.650"",""0.955""]","[1,1,0,1]",0,19,19,19,1,0,1,,,0,FALSE,,,,,,,,,,,,,,,,,,,,,,,,,,,,,,
,Monica,001,2022-04-28_20h13.47.567,classification_task,2021.2.3,MacIntel,60.0024001,613a7218f9ec43822c2bd5fe,626b377229c10585ec392f8a,626b3b312b3d4c70d91c32f9,,,,,,,,,,,,,,,,,,,,,,,a,0,0.4391,"[""0.029"",""0.109"",""0.437"",""0.359""]","[1,1,1,0]",0,20,20,20,1,1,1,,,0,FALSE,,,,,,,,,,,,,,,,,,,,,,,,,,,,,,
,Monica,001,2022-04-28_20h13.47.567,classification_task,2021.2.3,MacIntel,60.0024001,613a7218f9ec43822c2bd5fe,626b377229c10585ec392f8a,626b3b312b3d4c70d91c32f9,,,,,,,,,,,,,,,,,,,,,,,a,1,0.5186,"[""0.157"",""0.508"",""0.650"",""0.873""]","[1,1,0,1]",0,21,21,21,1,0,0,,,0,FALSE,,,,,,,,,,,,,,,,,,,,,,,,,,,,,,
,Monica,001,2022-04-28_20h13.47.567,classification_task,2021.2.3,MacIntel,60.0024001,613a7218f9ec43822c2bd5fe,626b377229c10585ec392f8a,626b3b312b3d4c70d91c32f9,,,,,,,,,,,,,,,,,,,,,,,a,1,0.3909,"[""0.157"",""0.631"",""0.688"",""0.873""]","[1,0,1,1]",0,22,22,22,1,0,0,,,0,FALSE,,,,,,,,,,,,,,,,,,,,,,,,,,,,,,
,Monica,001,2022-04-28_20h13.47.567,classification_task,2021.2.3,MacIntel,60.0024001,613a7218f9ec43822c2bd5fe,626b377229c10585ec392f8a,626b3b312b3d4c70d91c32f9,,,,,,,,,,,,,,,,,,,,,,,l,1,1.0396,"[""0.068"",""0.297"",""0.588"",""0.650""]","[1,1,1,0]",0,23,23,23,1,1,0,,,0,FALSE,,,,,,,,,,,,,,,,,,,,,,,,,,,,,,
,Monica,001,2022-04-28_20h13.47.567,classification_task,2021.2.3,MacIntel,60.0024001,613a7218f9ec43822c2bd5fe,626b377229c10585ec392f8a,626b3b312b3d4c70d91c32f9,,,,,,,,,,,,,,,,,,,,,,,a,1,0.8385,"[""0.244"",""0.544"",""0.918"",""0.635""]","[1,1,1,0]",0,24,24,24,1,0,1,,,0,FALSE,,,,,,,,,,,,,,,,,,,,,,,,,,,,,,
,Monica,001,2022-04-28_20h13.47.567,classification_task,2021.2.3,MacIntel,60.0024001,613a7218f9ec43822c2bd5fe,626b377229c10585ec392f8a,626b3b312b3d4c70d91c32f9,,,,,,,,,,,,,,,,,,,,,,,l,1,0.459,"[""0.029"",""0.109"",""0.376"",""0.748""]","[1,1,0,1]",0,25,25,25,1,1,1,,,0,FALSE,,,,,,,,,,,,,,,,,,,,,,,,,,,,,,
,Monica,001,2022-04-28_20h13.47.567,classification_task,2021.2.3,MacIntel,60.0024001,613a7218f9ec43822c2bd5fe,626b377229c10585ec392f8a,626b3b312b3d4c70d91c32f9,,,,,,,,,,,,,,,,,,,,,,,a,0,0.8696,"[""0.068"",""0.297"",""0.631"",""0.797""]","[1,1,0,1]",0,26,26,26,1,1,0,,,0,FALSE,,,,,,,,,,,,,,,,,,,,,,,,,,,,,,
,Monica,001,2022-04-28_20h13.47.567,classification_task,2021.2.3,MacIntel,60.0024001,613a7218f9ec43822c2bd5fe,626b377229c10585ec392f8a,626b3b312b3d4c70d91c32f9,,,,,,,,,,,,,,,,,,,,,,,l,0,0.4077,"[""0.372"",""0.508"",""0.688"",""0.873""]","[0,1,1,1]",0,27,27,27,1,0,0,,,0,FALSE,,,,,,,,,,,,,,,,,,,,,,,,,,,,,,
,Monica,001,2022-04-28_20h13.47.567,classification_task,2021.2.3,MacIntel,60.0024001,613a7218f9ec43822c2bd5fe,626b377229c10585ec392f8a,626b3b312b3d4c70d91c32f9,,,,,,,,,,,,,,,,,,,,,,,l,0,0.6041,"[""0.244"",""0.650"",""0.918"",""0.955""]","[1,0,1,1]",0,28,28,28,1,0,1,,,0,FALSE,,,,,,,,,,,,,,,,,,,,,,,,,,,,,,
,Monica,001,2022-04-28_20h13.47.567,classification_task,2021.2.3,MacIntel,60.0024001,613a7218f9ec43822c2bd5fe,626b377229c10585ec392f8a,626b3b312b3d4c70d91c32f9,,,,,,,,,,,,,,,,,,,,,,,l,1,0.4749,"[""0.652"",""0.109"",""0.437"",""0.748""]","[0,1,1,1]",0,29,29,29,1,1,1,,,0,FALSE,,,,,,,,,,,,,,,,,,,,,,,,,,,,,,
,Monica,001,2022-04-28_20h13.47.567,classification_task,2021.2.3,MacIntel,60.0024001,613a7218f9ec43822c2bd5fe,626b377229c10585ec392f8a,626b3b312b3d4c70d91c32f9,,,,,,,,,,,,,,,,,,,,,,,l,1,0.6749,"[""0.068"",""0.356"",""0.588"",""0.797""]","[1,0,1,1]",0,30,30,30,1,1,0,,,0,FALSE,,,,,,,,,,,,,,,,,,,,,,,,,,,,,,
,Monica,001,2022-04-28_20h13.47.567,classification_task,2021.2.3,MacIntel,60.0024001,613a7218f9ec43822c2bd5fe,626b377229c10585ec392f8a,626b3b312b3d4c70d91c32f9,,,,,,,,,,,,,,,,,,,,,,,a,0,0.4363,"[""0.029"",""0.645"",""0.437"",""0.748""]","[1,0,1,1]",0,31,31,31,1,1,1,,,0,FALSE,,,,,,,,,,,,,,,,,,,,,,,,,,,,,,
,Monica,001,2022-04-28_20h13.47.567,classification_task,2021.2.3,MacIntel,60.0024001,613a7218f9ec43822c2bd5fe,626b377229c10585ec392f8a,626b3b312b3d4c70d91c32f9,,,,,,,,,,,,,,,,,,,,,,,l,0,0.3586,"[""0.244"",""0.544"",""0.918"",""0.356""]","[1,1,1,0]",0,32,32,32,1,0,1,,,0,FALSE,,,,,,,,,,,,,,,,,,,,,,,,,,,,,,
,Monica,001,2022-04-28_20h13.47.567,classification_task,2021.2.3,MacIntel,60.0024001,613a7218f9ec43822c2bd5fe,626b377229c10585ec392f8a,626b3b312b3d4c70d91c32f9,,,,,,,,,,,,,,,,,,,,,,,a,1,0.3199,"[""0.157"",""0.508"",""0.688"",""0.372""]","[1,1,1,0]",0,33,33,33,1,0,0,,,0,FALSE,,,,,,,,,,,,,,,,,,,,,,,,,,,,,,
,Monica,001,2022-04-28_20h13.47.567,classification_task,2021.2.3,MacIntel,60.0024001,613a7218f9ec43822c2bd5fe,626b377229c10585ec392f8a,626b3b312b3d4c70d91c32f9,,,,,,,,,,,,,,,,,,,,,,,l,0,0.6545,"[""0.244"",""0.399"",""0.918"",""0.955""]","[1,0,1,1]",0,34,34,34,1,0,1,,,0,FALSE,,,,,,,,,,,,,,,,,,,,,,,,,,,,,,
,Monica,001,2022-04-28_20h13.47.567,classification_task,2021.2.3,MacIntel,60.0024001,613a7218f9ec43822c2bd5fe,626b377229c10585ec392f8a,626b3b312b3d4c70d91c32f9,,,,,,,,,,,,,,,,,,,,,,,a,0,0.2733,"[""0.645"",""0.297"",""0.588"",""0.797""]","[0,1,1,1]",0,35,35,35,1,1,0,,,0,FALSE,,,,,,,,,,,,,,,,,,,,,,,,,,,,,,
,Monica,001,2022-04-28_20h13.47.567,classification_task,2021.2.3,MacIntel,60.0024001,613a7218f9ec43822c2bd5fe,626b377229c10585ec392f8a,626b3b312b3d4c70d91c32f9,,,,,,,,,,,,,,,,,,,,,,,l,0,0.2595,"[""0.157"",""0.650"",""0.688"",""0.873""]","[1,0,1,1]",0,36,36,36,1,0,0,,,0,FALSE,,,,,,,,,,,,,,,,,,,,,,,,,,,,,,
,Monica,001,2022-04-28_20h13.47.567,classification_task,2021.2.3,MacIntel,60.0024001,613a7218f9ec43822c2bd5fe,626b377229c10585ec392f8a,626b3b312b3d4c70d91c32f9,,,,,,,,,,,,,,,,,,,,,,,a,0,0.806,"[""0.029"",""0.109"",""0.437"",""0.635""]","[1,1,1,0]",0,37,37,37,1,1,1,,,0,FALSE,,,,,,,,,,,,,,,,,,,,,,,,,,,,,,
,Monica,001,2022-04-28_20h13.47.567,classification_task,2021.2.3,MacIntel,60.0024001,613a7218f9ec43822c2bd5fe,626b377229c10585ec392f8a,626b3b312b3d4c70d91c32f9,,,,,,,,,,,,,,,,,,,,,,,a,1,0.2912,"[""0.196"",""0.508"",""0.688"",""0.873""]","[0,1,1,1]",0,38,38,38,1,0,0,,,0,FALSE,,,,,,,,,,,,,,,,,,,,,,,,,,,,,,
,Monica,001,2022-04-28_20h13.47.567,classification_task,2021.2.3,MacIntel,60.0024001,613a7218f9ec43822c2bd5fe,626b377229c10585ec392f8a,626b3b312b3d4c70d91c32f9,,,,,,,,,,,,,,,,,,,,,,,a,0,0.3036,"[""0.029"",""0.109"",""0.359"",""0.748""]","[1,1,0,1]",0,39,39,39,1,1,1,,,0,FALSE,,,,,,,,,,,,,,,,,,,,,,,,,,,,,,
,Monica,001,2022-04-28_20h13.47.567,classification_task,2021.2.3,MacIntel,60.0024001,613a7218f9ec43822c2bd5fe,626b377229c10585ec392f8a,626b3b312b3d4c70d91c32f9,,,,,,,,,,,,,,,,,,,,,,,l,0,0.3139,"[""0.244"",""0.544"",""0.635"",""0.955""]","[1,1,0,1]",0,40,40,40,1,0,1,,,0,FALSE,,,,,,,,,,,,,,,,,,,,,,,,,,,,,,
,Monica,001,2022-04-28_20h13.47.567,classification_task,2021.2.3,MacIntel,60.0024001,613a7218f9ec43822c2bd5fe,626b377229c10585ec392f8a,626b3b312b3d4c70d91c32f9,,,,,,,,,,,,,,,,,,,,,,,a,0,0.8248,"[""0.068"",""0.297"",""0.399"",""0.797""]","[1,1,0,1]",0,41,41,41,1,1,0,,,0,FALSE,,,,,,,,,,,,,,,,,,,,,,,,,,,,,,
,Monica,001,2022-04-28_20h13.47.567,classification_task,2021.2.3,MacIntel,60.0024001,613a7218f9ec43822c2bd5fe,626b377229c10585ec392f8a,626b3b312b3d4c70d91c32f9,,,,,,,,,,,,,,,,,,,,,,,l,1,1.2591,"[""0.068"",""0.297"",""0.588"",""0.372""]","[1,1,1,0]",0,42,42,42,1,1,0,,,0,FALSE,,,,,,,,,,,,,,,,,,,,,,,,,,,,,,
,Monica,001,2022-04-28_20h13.47.567,classification_task,2021.2.3,MacIntel,60.0024001,613a7218f9ec43822c2bd5fe,626b377229c10585ec392f8a,626b3b312b3d4c70d91c32f9,,,,,,,,,,,,,,,,,,,,,,,a,1,0.5043,"[""0.157"",""0.508"",""0.194"",""0.873""]","[1,1,0,1]",0,43,43,43,1,0,0,,,0,FALSE,,,,,,,,,,,,,,,,,,,,,,,,,,,,,,
,Monica,001,2022-04-28_20h13.47.567,classification_task,2021.2.3,MacIntel,60.0024001,613a7218f9ec43822c2bd5fe,626b377229c10585ec392f8a,626b3b312b3d4c70d91c32f9,,,,,,,,,,,,,,,,,,,,,,,l,1,1.0473,"[""0.068"",""0.650"",""0.588"",""0.797""]","[1,0,1,1]",0,44,44,44,1,1,0,,,0,FALSE,,,,,,,,,,,,,,,,,,,,,,,,,,,,,,
,Monica,001,2022-04-28_20h13.47.567,classification_task,2021.2.3,MacIntel,60.0024001,613a7218f9ec43822c2bd5fe,626b377229c10585ec392f8a,626b3b312b3d4c70d91c32f9,,,,,,,,,,,,,,,,,,,,,,,a,0,0.6587,"[""0.029"",""0.359"",""0.437"",""0.748""]","[1,0,1,1]",0,45,45,45,1,1,1,,,0,FALSE,,,,,,,,,,,,,,,,,,,,,,,,,,,,,,
,Monica,001,2022-04-28_20h13.47.567,classification_task,2021.2.3,MacIntel,60.0024001,613a7218f9ec43822c2bd5fe,626b377229c10585ec392f8a,626b3b312b3d4c70d91c32f9,,,,,,,,,,,,,,,,,,,,,,,l,1,0.2848,"[""0.196"",""0.109"",""0.437"",""0.748""]","[0,1,1,1]",0,46,46,46,1,1,1,,,0,FALSE,,,,,,,,,,,,,,,,,,,,,,,,,,,,,,
,Monica,001,2022-04-28_20h13.47.567,classification_task,2021.2.3,MacIntel,60.0024001,613a7218f9ec43822c2bd5fe,626b377229c10585ec392f8a,626b3b312b3d4c70d91c32f9,,,,,,,,,,,,,,,,,,,,,,,l,0,0.3074,"[""0.372"",""0.544"",""0.918"",""0.955""]","[0,1,1,1]",0,47,47,47,1,0,1,,,0,FALSE,,,,,,,,,,,,,,,,,,,,,,,,,,,,,,
,Monica,001,2022-04-28_20h13.47.567,classification_task,2021.2.3,MacIntel,60.0024001,613a7218f9ec43822c2bd5fe,626b377229c10585ec392f8a,626b3b312b3d4c70d91c32f9,,,,,,,,,,,,,,,,,,,,,,,a,0,0.2769,"[""0.068"",""0.372"",""0.588"",""0.797""]","[1,0,1,1]",0,48,48,48,1,1,0,,,0,FALSE,,,,,,,,,,,,,,,,,,,,,,,,,,,,,,
,Monica,001,2022-04-28_20h13.47.567,classification_task,2021.2.3,MacIntel,60.0024001,613a7218f9ec43822c2bd5fe,626b377229c10585ec392f8a,626b3b312b3d4c70d91c32f9,,,,,,,,,,,,,,,,,,,,,,,l,1,0.24,"[""0.338"",""0.109"",""0.437"",""0.748""]","[0,1,1,1]",0,49,49,49,1,1,1,,,0,FALSE,,,,,,,,,,,,,,,,,,,,,,,,,,,,,,
,Monica,001,2022-04-28_20h13.47.567,classification_task,2021.2.3,MacIntel,60.0024001,613a7218f9ec43822c2bd5fe,626b377229c10585ec392f8a,626b3b312b3d4c70d91c32f9,,,,,,,,,,,,,,,,,,,,,,,l,0,0.2644,"[""0.244"",""0.652"",""0.918"",""0.955""]","[1,0,1,1]",0,50,50,50,1,0,1,,,0,FALSE,,,,,,,,,,,,,,,,,,,,,,,,,,,,,,
,Monica,001,2022-04-28_20h13.47.567,classification_task,2021.2.3,MacIntel,60.0024001,613a7218f9ec43822c2bd5fe,626b377229c10585ec392f8a,626b3b312b3d4c70d91c32f9,,,,,,,,,,,,,,,,,,,,,,,l,1,0.2659,"[""0.068"",""0.297"",""0.399"",""0.797""]","[1,1,0,1]",0,51,51,51,1,1,0,,,0,FALSE,,,,,,,,,,,,,,,,,,,,,,,,,,,,,,
,Monica,001,2022-04-28_20h13.47.567,classification_task,2021.2.3,MacIntel,60.0024001,613a7218f9ec43822c2bd5fe,626b377229c10585ec392f8a,626b3b312b3d4c70d91c32f9,,,,,,,,,,,,,,,,,,,,,,,l,0,0.2636,"[""0.157"",""0.635"",""0.688"",""0.873""]","[1,0,1,1]",0,52,52,52,1,0,0,,,0,FALSE,,,,,,,,,,,,,,,,,,,,,,,,,,,,,,
,Monica,001,2022-04-28_20h13.47.567,classification_task,2021.2.3,MacIntel,60.0024001,613a7218f9ec43822c2bd5fe,626b377229c10585ec392f8a,626b3b312b3d4c70d91c32f9,,,,,,,,,,,,,,,,,,,,,,,a,1,1.0895,"[""0.157"",""0.508"",""0.688"",""0.631""]","[1,1,1,0]",0,53,53,53,1,0,0,,,0,FALSE,,,,,,,,,,,,,,,,,,,,,,,,,,,,,,
,Monica,001,2022-04-28_20h13.47.567,classification_task,2021.2.3,MacIntel,60.0024001,613a7218f9ec43822c2bd5fe,626b377229c10585ec392f8a,626b3b312b3d4c70d91c32f9,,,,,,,,,,,,,,,,,,,,,,,l,0,0.4753,"[""0.631"",""0.544"",""0.918"",""0.955""]","[0,1,1,1]",0,54,54,54,1,0,1,,,0,FALSE,,,,,,,,,,,,,,,,,,,,,,,,,,,,,,
,Monica,001,2022-04-28_20h13.47.567,classification_task,2021.2.3,MacIntel,60.0024001,613a7218f9ec43822c2bd5fe,626b377229c10585ec392f8a,626b3b312b3d4c70d91c32f9,,,,,,,,,,,,,,,,,,,,,,,a,1,0.2422,"[""0.244"",""0.544"",""0.645"",""0.955""]","[1,1,0,1]",0,55,55,55,1,0,1,,,0,FALSE,,,,,,,,,,,,,,,,,,,,,,,,,,,,,,
,Monica,001,2022-04-28_20h13.47.567,classification_task,2021.2.3,MacIntel,60.0024001,613a7218f9ec43822c2bd5fe,626b377229c10585ec392f8a,626b3b312b3d4c70d91c32f9,,,,,,,,,,,,,,,,,,,,,,,l,0,0.2621,"[""0.157"",""0.508"",""0.399"",""0.873""]","[1,1,0,1]",0,56,56,56,1,0,0,,,0,FALSE,,,,,,,,,,,,,,,,,,,,,,,,,,,,,,
,Monica,001,2022-04-28_20h13.47.567,classification_task,2021.2.3,MacIntel,60.0024001,613a7218f9ec43822c2bd5fe,626b377229c10585ec392f8a,626b3b312b3d4c70d91c32f9,,,,,,,,,,,,,,,,,,,,,,,a,1,0.2481,"[""0.244"",""0.544"",""0.918"",""0.196""]","[1,1,1,0]",0,57,57,57,1,0,1,,,0,FALSE,,,,,,,,,,,,,,,,,,,,,,,,,,,,,,
,Monica,001,2022-04-28_20h13.47.567,classification_task,2021.2.3,MacIntel,60.0024001,613a7218f9ec43822c2bd5fe,626b377229c10585ec392f8a,626b3b312b3d4c70d91c32f9,,,,,,,,,,,,,,,,,,,,,,,l,1,0.2895,"[""0.068"",""0.297"",""0.588"",""0.356""]","[1,1,1,0]",0,58,58,58,1,1,0,,,0,FALSE,,,,,,,,,,,,,,,,,,,,,,,,,,,,,,
,Monica,001,2022-04-28_20h13.47.567,classification_task,2021.2.3,MacIntel,60.0024001,613a7218f9ec43822c2bd5fe,626b377229c10585ec392f8a,626b3b312b3d4c70d91c32f9,,,,,,,,,,,,,,,,,,,,,,,l,0,0.4749,"[""0.383"",""0.508"",""0.688"",""0.873""]","[0,1,1,1]",0,59,59,59,1,0,0,,,0,FALSE,,,,,,,,,,,,,,,,,,,,,,,,,,,,,,
,Monica,001,2022-04-28_20h13.47.567,classification_task,2021.2.3,MacIntel,60.0024001,613a7218f9ec43822c2bd5fe,626b377229c10585ec392f8a,626b3b312b3d4c70d91c32f9,,,,,,,,,,,,,,,,,,,,,,,l,1,0.3182,"[""0.029"",""0.196"",""0.437"",""0.748""]","[1,0,1,1]",0,60,60,60,1,1,1,,,0,FALSE,,,,,,,,,,,,,,,,,,,,,,,,,,,,,,
,Monica,001,2022-04-28_20h13.47.567,classification_task,2021.2.3,MacIntel,60.0024001,613a7218f9ec43822c2bd5fe,626b377229c10585ec392f8a,626b3b312b3d4c70d91c32f9,,,,,,,,,,,,,,,,,,,,,,,l,1,0.3097,"[""0.029"",""0.109"",""0.399"",""0.748""]","[1,1,0,1]",0,61,61,61,1,1,1,,,0,FALSE,,,,,,,,,,,,,,,,,,,,,,,,,,,,,,
,Monica,001,2022-04-28_20h13.47.567,classification_task,2021.2.3,MacIntel,60.0024001,613a7218f9ec43822c2bd5fe,626b377229c10585ec392f8a,626b3b312b3d4c70d91c32f9,,,,,,,,,,,,,,,,,,,,,,,l,1,0.3243,"[""0.029"",""0.109"",""0.437"",""0.645""]","[1,1,1,0]",0,62,62,62,1,1,1,,,0,FALSE,,,,,,,,,,,,,,,,,,,,,,,,,,,,,,
,Monica,001,2022-04-28_20h13.47.567,classification_task,2021.2.3,MacIntel,60.0024001,613a7218f9ec43822c2bd5fe,626b377229c10585ec392f8a,626b3b312b3d4c70d91c32f9,,,,,,,,,,,,,,,,,,,,,,,a,0,0.3039,"[""0.196"",""0.297"",""0.588"",""0.797""]","[0,1,1,1]",0,63,63,63,1,1,0,,,0,FALSE,,,,,,,,,,,,,,,,,,,,,,,,,,,,,,
,Monica,001,2022-04-28_20h13.47.567,classification_task,2021.2.3,MacIntel,60.0024001,613a7218f9ec43822c2bd5fe,626b377229c10585ec392f8a,626b3b312b3d4c70d91c32f9,,,,,,,,,,,,,,,,,,,,,,,,,,,,,,,,,,,,,,,0, ,,0,4.113872512,123.1344,0,1,1,1,1,2,2,,,,,,,,,,,,,,,,,
,Monica,001,2022-04-28_20h13.47.567,classification_task,2021.2.3,MacIntel,60.0024001,613a7218f9ec43822c2bd5fe,626b377229c10585ec392f8a,626b3b312b3d4c70d91c32f9,,,,,,,,,,,,,,,,,,,,,,,,,,,,,,,,,,,,,,,1,  ,,0,7.502414495,126.5347,0,1,1,1,1,2,2,,,,,,,,,,,,,,,,,
,Monica,001,2022-04-28_20h13.47.567,classification_task,2021.2.3,MacIntel,60.0024001,613a7218f9ec43822c2bd5fe,626b377229c10585ec392f8a,626b3b312b3d4c70d91c32f9,,,,,,,,,,,,,,,,,,,,,,,,,,,,,,,,,,,,,,,2,  ,,0,2.327614615,132.3211,0,1,1,1,1,2,2,,,,,,,,,,,,,,,,,
,Monica,001,2022-04-28_20h13.47.567,classification_task,2021.2.3,MacIntel,60.0024001,613a7218f9ec43822c2bd5fe,626b377229c10585ec392f8a,626b3b312b3d4c70d91c32f9,,,,,,,,,,,,,,,,,,,,,,,,,,,,,,,,,,,,,,,,,,,,,0,1,1,1,1,,2,,,,,,,,,,,,,,,,,
,Monica,001,2022-04-28_20h13.47.567,classification_task,2021.2.3,MacIntel,60.0024001,613a7218f9ec43822c2bd5fe,626b377229c10585ec392f8a,626b3b312b3d4c70d91c32f9,,,,,,,,,,,,,,,,,,,,,space,5.3511,l,1,1.1645,"[""0.196"",""0.109"",""0.437"",""0.748""]","[0,1,1,1]",0,0,0,0,1,1,1,,,0,FALSE,,,,,,,,,,,,,,,,,,,,,,,,,,,,,,
,Monica,001,2022-04-28_20h13.47.567,classification_task,2021.2.3,MacIntel,60.0024001,613a7218f9ec43822c2bd5fe,626b377229c10585ec392f8a,626b3b312b3d4c70d91c32f9,,,,,,,,,,,,,,,,,,,,,,,a,0,0.7461,"[""0.068"",""0.631"",""0.588"",""0.797""]","[1,0,1,1]",0,1,1,1,1,1,0,,,0,FALSE,,,,,,,,,,,,,,,,,,,,,,,,,,,,,,
,Monica,001,2022-04-28_20h13.47.567,classification_task,2021.2.3,MacIntel,60.0024001,613a7218f9ec43822c2bd5fe,626b377229c10585ec392f8a,626b3b312b3d4c70d91c32f9,,,,,,,,,,,,,,,,,,,,,,,a,1,0.2811,"[""0.157"",""0.508"",""0.688"",""0.340""]","[1,1,1,0]",0,2,2,2,1,0,0,,,0,FALSE,,,,,,,,,,,,,,,,,,,,,,,,,,,,,,
,Monica,001,2022-04-28_20h13.47.567,classification_task,2021.2.3,MacIntel,60.0024001,613a7218f9ec43822c2bd5fe,626b377229c10585ec392f8a,626b3b312b3d4c70d91c32f9,,,,,,,,,,,,,,,,,,,,,,,l,1,1.2965,"[""0.068"",""0.297"",""0.588"",""0.631""]","[1,1,1,0]",0,3,3,3,1,1,0,,,0,FALSE,,,,,,,,,,,,,,,,,,,,,,,,,,,,,,
,Monica,001,2022-04-28_20h13.47.567,classification_task,2021.2.3,MacIntel,60.0024001,613a7218f9ec43822c2bd5fe,626b377229c10585ec392f8a,626b3b312b3d4c70d91c32f9,,,,,,,,,,,,,,,,,,,,,,,l,0,0.6227,"[""0.244"",""0.544"",""0.918"",""0.383""]","[1,1,1,0]",0,4,4,4,1,0,1,,,0,FALSE,,,,,,,,,,,,,,,,,,,,,,,,,,,,,,
,Monica,001,2022-04-28_20h13.47.567,classification_task,2021.2.3,MacIntel,60.0024001,613a7218f9ec43822c2bd5fe,626b377229c10585ec392f8a,626b3b312b3d4c70d91c32f9,,,,,,,,,,,,,,,,,,,,,,,a,0,0.2802,"[""0.029"",""0.631"",""0.437"",""0.748""]","[1,0,1,1]",0,5,5,5,1,1,1,,,0,FALSE,,,,,,,,,,,,,,,,,,,,,,,,,,,,,,
,Monica,001,2022-04-28_20h13.47.567,classification_task,2021.2.3,MacIntel,60.0024001,613a7218f9ec43822c2bd5fe,626b377229c10585ec392f8a,626b3b312b3d4c70d91c32f9,,,,,,,,,,,,,,,,,,,,,,,l,0,0.2776,"[""0.244"",""0.652"",""0.918"",""0.955""]","[1,0,1,1]",0,6,6,6,1,0,1,,,0,FALSE,,,,,,,,,,,,,,,,,,,,,,,,,,,,,,
,Monica,001,2022-04-28_20h13.47.567,classification_task,2021.2.3,MacIntel,60.0024001,613a7218f9ec43822c2bd5fe,626b377229c10585ec392f8a,626b3b312b3d4c70d91c32f9,,,,,,,,,,,,,,,,,,,,,,,l,0,0.2744,"[""0.157"",""0.508"",""0.194"",""0.873""]","[1,1,0,1]",0,7,7,7,1,0,0,,,0,FALSE,,,,,,,,,,,,,,,,,,,,,,,,,,,,,,
,Monica,001,2022-04-28_20h13.47.567,classification_task,2021.2.3,MacIntel,60.0024001,613a7218f9ec43822c2bd5fe,626b377229c10585ec392f8a,626b3b312b3d4c70d91c32f9,,,,,,,,,,,,,,,,,,,,,,,a,1,0.3608,"[""0.244"",""0.544"",""0.194"",""0.955""]","[1,1,0,1]",0,8,8,8,1,0,1,,,0,FALSE,,,,,,,,,,,,,,,,,,,,,,,,,,,,,,
,Monica,001,2022-04-28_20h13.47.567,classification_task,2021.2.3,MacIntel,60.0024001,613a7218f9ec43822c2bd5fe,626b377229c10585ec392f8a,626b3b312b3d4c70d91c32f9,,,,,,,,,,,,,,,,,,,,,,,l,0,0.7907,"[""0.157"",""0.359"",""0.688"",""0.873""]","[1,0,1,1]",0,9,9,9,1,0,0,,,0,FALSE,,,,,,,,,,,,,,,,,,,,,,,,,,,,,,
,Monica,001,2022-04-28_20h13.47.567,classification_task,2021.2.3,MacIntel,60.0024001,613a7218f9ec43822c2bd5fe,626b377229c10585ec392f8a,626b3b312b3d4c70d91c32f9,,,,,,,,,,,,,,,,,,,,,,,a,0,0.294,"[""0.029"",""0.109"",""0.645"",""0.748""]","[1,1,0,1]",0,10,10,10,1,1,1,,,0,FALSE,,,,,,,,,,,,,,,,,,,,,,,,,,,,,,
,Monica,001,2022-04-28_20h13.47.567,classification_task,2021.2.3,MacIntel,60.0024001,613a7218f9ec43822c2bd5fe,626b377229c10585ec392f8a,626b3b312b3d4c70d91c32f9,,,,,,,,,,,,,,,,,,,,,,,l,0,0.2598,"[""0.635"",""0.544"",""0.918"",""0.955""]","[0,1,1,1]",0,11,11,11,1,0,1,,,0,FALSE,,,,,,,,,,,,,,,,,,,,,,,,,,,,,,
,Monica,001,2022-04-28_20h13.47.567,classification_task,2021.2.3,MacIntel,60.0024001,613a7218f9ec43822c2bd5fe,626b377229c10585ec392f8a,626b3b312b3d4c70d91c32f9,,,,,,,,,,,,,,,,,,,,,,,l,1,0.2515,"[""0.029"",""0.109"",""0.437"",""0.399""]","[1,1,1,0]",0,12,12,12,1,1,1,,,0,FALSE,,,,,,,,,,,,,,,,,,,,,,,,,,,,,,
,Monica,001,2022-04-28_20h13.47.567,classification_task,2021.2.3,MacIntel,60.0024001,613a7218f9ec43822c2bd5fe,626b377229c10585ec392f8a,626b3b312b3d4c70d91c32f9,,,,,,,,,,,,,,,,,,,,,,,l,1,0.4109,"[""0.068"",""0.297"",""0.356"",""0.797""]","[1,1,0,1]",0,13,13,13,1,1,0,,,0,FALSE,,,,,,,,,,,,,,,,,,,,,,,,,,,,,,
,Monica,001,2022-04-28_20h13.47.567,classification_task,2021.2.3,MacIntel,60.0024001,613a7218f9ec43822c2bd5fe,626b377229c10585ec392f8a,626b3b312b3d4c70d91c32f9,,,,,,,,,,,,,,,,,,,,,,,a,0,0.2919,"[""0.652"",""0.297"",""0.588"",""0.797""]","[0,1,1,1]",0,14,14,14,1,1,0,,,0,FALSE,,,,,,,,,,,,,,,,,,,,,,,,,,,,,,
,Monica,001,2022-04-28_20h13.47.567,classification_task,2021.2.3,MacIntel,60.0024001,613a7218f9ec43822c2bd5fe,626b377229c10585ec392f8a,626b3b312b3d4c70d91c32f9,,,,,,,,,,,,,,,,,,,,,,,l,0,0.249,"[""0.383"",""0.508"",""0.688"",""0.873""]","[0,1,1,1]",0,15,15,15,1,0,0,,,0,FALSE,,,,,,,,,,,,,,,,,,,,,,,,,,,,,,
,Monica,001,2022-04-28_20h13.47.567,classification_task,2021.2.3,MacIntel,60.0024001,613a7218f9ec43822c2bd5fe,626b377229c10585ec392f8a,626b3b312b3d4c70d91c32f9,,,,,,,,,,,,,,,,,,,,,,,a,1,0.5092,"[""0.244"",""0.399"",""0.918"",""0.955""]","[1,0,1,1]",0,16,16,16,1,0,1,,,0,FALSE,,,,,,,,,,,,,,,,,,,,,,,,,,,,,,
,Monica,001,2022-04-28_20h13.47.567,classification_task,2021.2.3,MacIntel,60.0024001,613a7218f9ec43822c2bd5fe,626b377229c10585ec392f8a,626b3b312b3d4c70d91c32f9,,,,,,,,,,,,,,,,,,,,,,,l,0,0.2786,"[""0.196"",""0.508"",""0.688"",""0.873""]","[0,1,1,1]",0,17,17,17,1,0,0,,,0,FALSE,,,,,,,,,,,,,,,,,,,,,,,,,,,,,,
,Monica,001,2022-04-28_20h13.47.567,classification_task,2021.2.3,MacIntel,60.0024001,613a7218f9ec43822c2bd5fe,626b377229c10585ec392f8a,626b3b312b3d4c70d91c32f9,,,,,,,,,,,,,,,,,,,,,,,a,1,0.2427,"[""0.244"",""0.544"",""0.918"",""0.635""]","[1,1,1,0]",0,18,18,18,1,0,1,,,0,FALSE,,,,,,,,,,,,,,,,,,,,,,,,,,,,,,
,Monica,001,2022-04-28_20h13.47.567,classification_task,2021.2.3,MacIntel,60.0024001,613a7218f9ec43822c2bd5fe,626b377229c10585ec392f8a,626b3b312b3d4c70d91c32f9,,,,,,,,,,,,,,,,,,,,,,,l,1,0.2749,"[""0.068"",""0.650"",""0.588"",""0.797""]","[1,0,1,1]",0,19,19,19,1,1,0,,,0,FALSE,,,,,,,,,,,,,,,,,,,,,,,,,,,,,,
,Monica,001,2022-04-28_20h13.47.567,classification_task,2021.2.3,MacIntel,60.0024001,613a7218f9ec43822c2bd5fe,626b377229c10585ec392f8a,626b3b312b3d4c70d91c32f9,,,,,,,,,,,,,,,,,,,,,,,a,1,0.3142,"[""0.244"",""0.544"",""0.376"",""0.955""]","[1,1,0,1]",0,20,20,20,1,0,1,,,0,FALSE,,,,,,,,,,,,,,,,,,,,,,,,,,,,,,
,Monica,001,2022-04-28_20h13.47.567,classification_task,2021.2.3,MacIntel,60.0024001,613a7218f9ec43822c2bd5fe,626b377229c10585ec392f8a,626b3b312b3d4c70d91c32f9,,,,,,,,,,,,,,,,,,,,,,,a,1,0.2442,"[""0.650"",""0.544"",""0.918"",""0.955""]","[0,1,1,1]",0,21,21,21,1,0,1,,,0,FALSE,,,,,,,,,,,,,,,,,,,,,,,,,,,,,,
,Monica,001,2022-04-28_20h13.47.567,classification_task,2021.2.3,MacIntel,60.0024001,613a7218f9ec43822c2bd5fe,626b377229c10585ec392f8a,626b3b312b3d4c70d91c32f9,,,,,,,,,,,,,,,,,,,,,,,a,0,0.2502,"[""0.029"",""0.399"",""0.437"",""0.748""]","[1,0,1,1]",0,22,22,22,1,1,1,,,0,FALSE,,,,,,,,,,,,,,,,,,,,,,,,,,,,,,
,Monica,001,2022-04-28_20h13.47.567,classification_task,2021.2.3,MacIntel,60.0024001,613a7218f9ec43822c2bd5fe,626b377229c10585ec392f8a,626b3b312b3d4c70d91c32f9,,,,,,,,,,,,,,,,,,,,,,,a,1,0.2692,"[""0.157"",""0.508"",""0.356"",""0.873""]","[1,1,0,1]",0,23,23,23,1,0,0,,,0,FALSE,,,,,,,,,,,,,,,,,,,,,,,,,,,,,,
,Monica,001,2022-04-28_20h13.47.567,classification_task,2021.2.3,MacIntel,60.0024001,613a7218f9ec43822c2bd5fe,626b377229c10585ec392f8a,626b3b312b3d4c70d91c32f9,,,,,,,,,,,,,,,,,,,,,,,l,1,0.2968,"[""0.068"",""0.297"",""0.588"",""0.399""]","[1,1,1,0]",0,24,24,24,1,1,0,,,0,FALSE,,,,,,,,,,,,,,,,,,,,,,,,,,,,,,
,Monica,001,2022-04-28_20h13.47.567,classification_task,2021.2.3,MacIntel,60.0024001,613a7218f9ec43822c2bd5fe,626b377229c10585ec392f8a,626b3b312b3d4c70d91c32f9,,,,,,,,,,,,,,,,,,,,,,,a,1,0.2674,"[""0.157"",""0.359"",""0.688"",""0.873""]","[1,0,1,1]",0,25,25,25,1,0,0,,,0,FALSE,,,,,,,,,,,,,,,,,,,,,,,,,,,,,,
,Monica,001,2022-04-28_20h13.47.567,classification_task,2021.2.3,MacIntel,60.0024001,613a7218f9ec43822c2bd5fe,626b377229c10585ec392f8a,626b3b312b3d4c70d91c32f9,,,,,,,,,,,,,,,,,,,,,,,l,0,0.2668,"[""0.157"",""0.508"",""0.688"",""0.340""]","[1,1,1,0]",0,26,26,26,1,0,0,,,0,FALSE,,,,,,,,,,,,,,,,,,,,,,,,,,,,,,
,Monica,001,2022-04-28_20h13.47.567,classification_task,2021.2.3,MacIntel,60.0024001,613a7218f9ec43822c2bd5fe,626b377229c10585ec392f8a,626b3b312b3d4c70d91c32f9,,,,,,,,,,,,,,,,,,,,,,,a,0,0.2156,"[""0.631"",""0.297"",""0.588"",""0.797""]","[0,1,1,1]",0,27,27,27,1,1,0,,,0,FALSE,,,,,,,,,,,,,,,,,,,,,,,,,,,,,,
,Monica,001,2022-04-28_20h13.47.567,classification_task,2021.2.3,MacIntel,60.0024001,613a7218f9ec43822c2bd5fe,626b377229c10585ec392f8a,626b3b312b3d4c70d91c32f9,,,,,,,,,,,,,,,,,,,,,,,l,1,0.2324,"[""0.631"",""0.109"",""0.437"",""0.748""]","[0,1,1,1]",0,28,28,28,1,1,1,,,0,FALSE,,,,,,,,,,,,,,,,,,,,,,,,,,,,,,
,Monica,001,2022-04-28_20h13.47.567,classification_task,2021.2.3,MacIntel,60.0024001,613a7218f9ec43822c2bd5fe,626b377229c10585ec392f8a,626b3b312b3d4c70d91c32f9,,,,,,,,,,,,,,,,,,,,,,,a,0,0.2433,"[""0.068"",""0.297"",""0.196"",""0.797""]","[1,1,0,1]",0,29,29,29,1,1,0,,,0,FALSE,,,,,,,,,,,,,,,,,,,,,,,,,,,,,,
,Monica,001,2022-04-28_20h13.47.567,classification_task,2021.2.3,MacIntel,60.0024001,613a7218f9ec43822c2bd5fe,626b377229c10585ec392f8a,626b3b312b3d4c70d91c32f9,,,,,,,,,,,,,,,,,,,,,,,l,1,0.2945,"[""0.029"",""0.109"",""0.376"",""0.748""]","[1,1,0,1]",0,30,30,30,1,1,1,,,0,FALSE,,,,,,,,,,,,,,,,,,,,,,,,,,,,,,
,Monica,001,2022-04-28_20h13.47.567,classification_task,2021.2.3,MacIntel,60.0024001,613a7218f9ec43822c2bd5fe,626b377229c10585ec392f8a,626b3b312b3d4c70d91c32f9,,,,,,,,,,,,,,,,,,,,,,,l,1,0.2624,"[""0.029"",""0.109"",""0.437"",""0.635""]","[1,1,1,0]",0,31,31,31,1,1,1,,,0,FALSE,,,,,,,,,,,,,,,,,,,,,,,,,,,,,,
,Monica,001,2022-04-28_20h13.47.567,classification_task,2021.2.3,MacIntel,60.0024001,613a7218f9ec43822c2bd5fe,626b377229c10585ec392f8a,626b3b312b3d4c70d91c32f9,,,,,,,,,,,,,,,,,,,,,,,l,1,0.2643,"[""0.635"",""0.297"",""0.588"",""0.797""]","[0,1,1,1]",0,32,32,32,1,1,0,,,0,FALSE,,,,,,,,,,,,,,,,,,,,,,,,,,,,,,
,Monica,001,2022-04-28_20h13.47.567,classification_task,2021.2.3,MacIntel,60.0024001,613a7218f9ec43822c2bd5fe,626b377229c10585ec392f8a,626b3b312b3d4c70d91c32f9,,,,,,,,,,,,,,,,,,,,,,,l,0,0.2432,"[""0.244"",""0.544"",""0.635"",""0.955""]","[1,1,0,1]",0,33,33,33,1,0,1,,,0,FALSE,,,,,,,,,,,,,,,,,,,,,,,,,,,,,,
,Monica,001,2022-04-28_20h13.47.567,classification_task,2021.2.3,MacIntel,60.0024001,613a7218f9ec43822c2bd5fe,626b377229c10585ec392f8a,626b3b312b3d4c70d91c32f9,,,,,,,,,,,,,,,,,,,,,,,a,0,0.1826,"[""0.068"",""0.297"",""0.383"",""0.797""]","[1,1,0,1]",0,34,34,34,1,1,0,,,0,FALSE,,,,,,,,,,,,,,,,,,,,,,,,,,,,,,
,Monica,001,2022-04-28_20h13.47.567,classification_task,2021.2.3,MacIntel,60.0024001,613a7218f9ec43822c2bd5fe,626b377229c10585ec392f8a,626b3b312b3d4c70d91c32f9,,,,,,,,,,,,,,,,,,,,,,,l,0,0.228,"[""0.244"",""0.544"",""0.918"",""0.650""]","[1,1,1,0]",0,35,35,35,1,0,1,,,0,FALSE,,,,,,,,,,,,,,,,,,,,,,,,,,,,,,
,Monica,001,2022-04-28_20h13.47.567,classification_task,2021.2.3,MacIntel,60.0024001,613a7218f9ec43822c2bd5fe,626b377229c10585ec392f8a,626b3b312b3d4c70d91c32f9,,,,,,,,,,,,,,,,,,,,,,,a,1,0.212,"[""0.157"",""0.359"",""0.688"",""0.873""]","[1,0,1,1]",0,36,36,36,1,0,0,,,0,FALSE,,,,,,,,,,,,,,,,,,,,,,,,,,,,,,
,Monica,001,2022-04-28_20h13.47.567,classification_task,2021.2.3,MacIntel,60.0024001,613a7218f9ec43822c2bd5fe,626b377229c10585ec392f8a,626b3b312b3d4c70d91c32f9,,,,,,,,,,,,,,,,,,,,,,,a,0,0.2121,"[""0.383"",""0.109"",""0.437"",""0.748""]","[0,1,1,1]",0,37,37,37,1,1,1,,,0,FALSE,,,,,,,,,,,,,,,,,,,,,,,,,,,,,,
,Monica,001,2022-04-28_20h13.47.567,classification_task,2021.2.3,MacIntel,60.0024001,613a7218f9ec43822c2bd5fe,626b377229c10585ec392f8a,626b3b312b3d4c70d91c32f9,,,,,,,,,,,,,,,,,,,,,,,a,0,0.2649,"[""0.029"",""0.109"",""0.437"",""0.631""]","[1,1,1,0]",0,38,38,38,1,1,1,,,0,FALSE,,,,,,,,,,,,,,,,,,,,,,,,,,,,,,
,Monica,001,2022-04-28_20h13.47.567,classification_task,2021.2.3,MacIntel,60.0024001,613a7218f9ec43822c2bd5fe,626b377229c10585ec392f8a,626b3b312b3d4c70d91c32f9,,,,,,,,,,,,,,,,,,,,,,,l,0,0.2801,"[""0.652"",""0.508"",""0.688"",""0.873""]","[0,1,1,1]",0,39,39,39,1,0,0,,,0,FALSE,,,,,,,,,,,,,,,,,,,,,,,,,,,,,,
,Monica,001,2022-04-28_20h13.47.567,classification_task,2021.2.3,MacIntel,60.0024001,613a7218f9ec43822c2bd5fe,626b377229c10585ec392f8a,626b3b312b3d4c70d91c32f9,,,,,,,,,,,,,,,,,,,,,,,a,0,0.2755,"[""0.029"",""0.109"",""0.356"",""0.748""]","[1,1,0,1]",0,40,40,40,1,1,1,,,0,FALSE,,,,,,,,,,,,,,,,,,,,,,,,,,,,,,
,Monica,001,2022-04-28_20h13.47.567,classification_task,2021.2.3,MacIntel,60.0024001,613a7218f9ec43822c2bd5fe,626b377229c10585ec392f8a,626b3b312b3d4c70d91c32f9,,,,,,,,,,,,,,,,,,,,,,,a,0,0.2279,"[""0.068"",""0.645"",""0.588"",""0.797""]","[1,0,1,1]",0,41,41,41,1,1,0,,,0,FALSE,,,,,,,,,,,,,,,,,,,,,,,,,,,,,,
,Monica,001,2022-04-28_20h13.47.567,classification_task,2021.2.3,MacIntel,60.0024001,613a7218f9ec43822c2bd5fe,626b377229c10585ec392f8a,626b3b312b3d4c70d91c32f9,,,,,,,,,,,,,,,,,,,,,,,a,0,0.1331,"[""0.068"",""0.297"",""0.588"",""0.340""]","[1,1,1,0]",0,42,42,42,1,1,0,,,0,FALSE,,,,,,,,,,,,,,,,,,,,,,,,,,,,,,
,Monica,001,2022-04-28_20h13.47.567,classification_task,2021.2.3,MacIntel,60.0024001,613a7218f9ec43822c2bd5fe,626b377229c10585ec392f8a,626b3b312b3d4c70d91c32f9,,,,,,,,,,,,,,,,,,,,,,,l,0,0.179,"[""0.157"",""0.508"",""0.645"",""0.873""]","[1,1,0,1]",0,43,43,43,1,0,0,,,0,FALSE,,,,,,,,,,,,,,,,,,,,,,,,,,,,,,
,Monica,001,2022-04-28_20h13.47.567,classification_task,2021.2.3,MacIntel,60.0024001,613a7218f9ec43822c2bd5fe,626b377229c10585ec392f8a,626b3b312b3d4c70d91c32f9,,,,,,,,,,,,,,,,,,,,,,,a,1,0.1171,"[""0.244"",""0.196"",""0.918"",""0.955""]","[1,0,1,1]",0,44,44,44,1,0,1,,,0,FALSE,,,,,,,,,,,,,,,,,,,,,,,,,,,,,,
,Monica,001,2022-04-28_20h13.47.567,classification_task,2021.2.3,MacIntel,60.0024001,613a7218f9ec43822c2bd5fe,626b377229c10585ec392f8a,626b3b312b3d4c70d91c32f9,,,,,,,,,,,,,,,,,,,,,,,a,0,0.1763,"[""0.029"",""0.635"",""0.437"",""0.748""]","[1,0,1,1]",0,45,45,45,1,1,1,,,0,FALSE,,,,,,,,,,,,,,,,,,,,,,,,,,,,,,
,Monica,001,2022-04-28_20h13.47.567,classification_task,2021.2.3,MacIntel,60.0024001,613a7218f9ec43822c2bd5fe,626b377229c10585ec392f8a,626b3b312b3d4c70d91c32f9,,,,,,,,,,,,,,,,,,,,,,,a,1,0.1512,"[""0.157"",""0.508"",""0.688"",""0.383""]","[1,1,1,0]",0,46,46,46,1,0,0,,,0,FALSE,,,,,,,,,,,,,,,,,,,,,,,,,,,,,,
,Monica,001,2022-04-28_20h13.47.567,classification_task,2021.2.3,MacIntel,60.0024001,613a7218f9ec43822c2bd5fe,626b377229c10585ec392f8a,626b3b312b3d4c70d91c32f9,,,,,,,,,,,,,,,,,,,,,,,l,0,0.2104,"[""0.650"",""0.544"",""0.918"",""0.955""]","[0,1,1,1]",0,47,47,47,1,0,1,,,0,FALSE,,,,,,,,,,,,,,,,,,,,,,,,,,,,,,
,Monica,001,2022-04-28_20h13.47.567,classification_task,2021.2.3,MacIntel,60.0024001,613a7218f9ec43822c2bd5fe,626b377229c10585ec392f8a,626b3b312b3d4c70d91c32f9,,,,,,,,,,,,,,,,,,,,,,,l,1,0.1828,"[""0.068"",""0.297"",""0.588"",""0.356""]","[1,1,1,0]",0,48,48,48,1,1,0,,,0,FALSE,,,,,,,,,,,,,,,,,,,,,,,,,,,,,,
,Monica,001,2022-04-28_20h13.47.567,classification_task,2021.2.3,MacIntel,60.0024001,613a7218f9ec43822c2bd5fe,626b377229c10585ec392f8a,626b3b312b3d4c70d91c32f9,,,,,,,,,,,,,,,,,,,,,,,a,1,0.0374,"[""0.340"",""0.544"",""0.918"",""0.955""]","[0,1,1,1]",0,49,49,49,1,0,1,,,0,FALSE,,,,,,,,,,,,,,,,,,,,,,,,,,,,,,
,Monica,001,2022-04-28_20h13.47.567,classification_task,2021.2.3,MacIntel,60.0024001,613a7218f9ec43822c2bd5fe,626b377229c10585ec392f8a,626b3b312b3d4c70d91c32f9,,,,,,,,,,,,,,,,,,,,,,,l,0,0.2444,"[""0.650"",""0.508"",""0.688"",""0.873""]","[0,1,1,1]",0,50,50,50,1,0,0,,,0,FALSE,,,,,,,,,,,,,,,,,,,,,,,,,,,,,,
,Monica,001,2022-04-28_20h13.47.567,classification_task,2021.2.3,MacIntel,60.0024001,613a7218f9ec43822c2bd5fe,626b377229c10585ec392f8a,626b3b312b3d4c70d91c32f9,,,,,,,,,,,,,,,,,,,,,,,a,0,0.2968,"[""0.029"",""0.631"",""0.437"",""0.748""]","[1,0,1,1]",0,51,51,51,1,1,1,,,0,FALSE,,,,,,,,,,,,,,,,,,,,,,,,,,,,,,
,Monica,001,2022-04-28_20h13.47.567,classification_task,2021.2.3,MacIntel,60.0024001,613a7218f9ec43822c2bd5fe,626b377229c10585ec392f8a,626b3b312b3d4c70d91c32f9,,,,,,,,,,,,,,,,,,,,,,,l,1,0.5583,"[""0.029"",""0.109"",""0.631"",""0.748""]","[1,1,0,1]",0,52,52,52,1,1,1,,,0,FALSE,,,,,,,,,,,,,,,,,,,,,,,,,,,,,,
,Monica,001,2022-04-28_20h13.47.567,classification_task,2021.2.3,MacIntel,60.0024001,613a7218f9ec43822c2bd5fe,626b377229c10585ec392f8a,626b3b312b3d4c70d91c32f9,,,,,,,,,,,,,,,,,,,,,,,l,0,0.3245,"[""0.244"",""0.359"",""0.918"",""0.955""]","[1,0,1,1]",0,53,53,53,1,0,1,,,0,FALSE,,,,,,,,,,,,,,,,,,,,,,,,,,,,,,
,Monica,001,2022-04-28_20h13.47.567,classification_task,2021.2.3,MacIntel,60.0024001,613a7218f9ec43822c2bd5fe,626b377229c10585ec392f8a,626b3b312b3d4c70d91c32f9,,,,,,,,,,,,,,,,,,,,,,,a,0,0.2439,"[""0.356"",""0.109"",""0.437"",""0.748""]","[0,1,1,1]",0,54,54,54,1,1,1,,,0,FALSE,,,,,,,,,,,,,,,,,,,,,,,,,,,,,,
,Monica,001,2022-04-28_20h13.47.567,classification_task,2021.2.3,MacIntel,60.0024001,613a7218f9ec43822c2bd5fe,626b377229c10585ec392f8a,626b3b312b3d4c70d91c32f9,,,,,,,,,,,,,,,,,,,,,,,l,0,0.2596,"[""0.157"",""0.340"",""0.688"",""0.873""]","[1,0,1,1]",0,55,55,55,1,0,0,,,0,FALSE,,,,,,,,,,,,,,,,,,,,,,,,,,,,,,
,Monica,001,2022-04-28_20h13.47.567,classification_task,2021.2.3,MacIntel,60.0024001,613a7218f9ec43822c2bd5fe,626b377229c10585ec392f8a,626b3b312b3d4c70d91c32f9,,,,,,,,,,,,,,,,,,,,,,,l,1,0.2602,"[""0.029"",""0.109"",""0.437"",""0.372""]","[1,1,1,0]",0,56,56,56,1,1,1,,,0,FALSE,,,,,,,,,,,,,,,,,,,,,,,,,,,,,,
,Monica,001,2022-04-28_20h13.47.567,classification_task,2021.2.3,MacIntel,60.0024001,613a7218f9ec43822c2bd5fe,626b377229c10585ec392f8a,626b3b312b3d4c70d91c32f9,,,,,,,,,,,,,,,,,,,,,,,l,0,0.3115,"[""0.157"",""0.508"",""0.645"",""0.873""]","[1,1,0,1]",0,57,57,57,1,0,0,,,0,FALSE,,,,,,,,,,,,,,,,,,,,,,,,,,,,,,
,Monica,001,2022-04-28_20h13.47.567,classification_task,2021.2.3,MacIntel,60.0024001,613a7218f9ec43822c2bd5fe,626b377229c10585ec392f8a,626b3b312b3d4c70d91c32f9,,,,,,,,,,,,,,,,,,,,,,,l,1,0.2961,"[""0.068"",""0.297"",""0.631"",""0.797""]","[1,1,0,1]",0,58,58,58,1,1,0,,,0,FALSE,,,,,,,,,,,,,,,,,,,,,,,,,,,,,,
,Monica,001,2022-04-28_20h13.47.567,classification_task,2021.2.3,MacIntel,60.0024001,613a7218f9ec43822c2bd5fe,626b377229c10585ec392f8a,626b3b312b3d4c70d91c32f9,,,,,,,,,,,,,,,,,,,,,,,l,0,0.0704,"[""0.244"",""0.544"",""0.918"",""0.196""]","[1,1,1,0]",0,59,59,59,1,0,1,,,0,FALSE,,,,,,,,,,,,,,,,,,,,,,,,,,,,,,
,Monica,001,2022-04-28_20h13.47.567,classification_task,2021.2.3,MacIntel,60.0024001,613a7218f9ec43822c2bd5fe,626b377229c10585ec392f8a,626b3b312b3d4c70d91c32f9,,,,,,,,,,,,,,,,,,,,,,,a,1,0.0725,"[""0.157"",""0.508"",""0.688"",""0.359""]","[1,1,1,0]",0,60,60,60,1,0,0,,,0,FALSE,,,,,,,,,,,,,,,,,,,,,,,,,,,,,,
,Monica,001,2022-04-28_20h13.47.567,classification_task,2021.2.3,MacIntel,60.0024001,613a7218f9ec43822c2bd5fe,626b377229c10585ec392f8a,626b3b312b3d4c70d91c32f9,,,,,,,,,,,,,,,,,,,,,,,l,1,0.2508,"[""0.399"",""0.297"",""0.588"",""0.797""]","[0,1,1,1]",0,61,61,61,1,1,0,,,0,FALSE,,,,,,,,,,,,,,,,,,,,,,,,,,,,,,
,Monica,001,2022-04-28_20h13.47.567,classification_task,2021.2.3,MacIntel,60.0024001,613a7218f9ec43822c2bd5fe,626b377229c10585ec392f8a,626b3b312b3d4c70d91c32f9,,,,,,,,,,,,,,,,,,,,,,,a,0,0.0562,"[""0.068"",""0.383"",""0.588"",""0.797""]","[1,0,1,1]",0,62,62,62,1,1,0,,,0,FALSE,,,,,,,,,,,,,,,,,,,,,,,,,,,,,,
,Monica,001,2022-04-28_20h13.47.567,classification_task,2021.2.3,MacIntel,60.0024001,613a7218f9ec43822c2bd5fe,626b377229c10585ec392f8a,626b3b312b3d4c70d91c32f9,,,,,,,,,,,,,,,,,,,,,,,l,0,0.3113,"[""0.244"",""0.544"",""0.194"",""0.955""]","[1,1,0,1]",0,63,63,63,1,0,1,,,0,FALSE,,,,,,,,,,,,,,,,,,,,,,,,,,,,,,
,Monica,001,2022-04-28_20h13.47.567,classification_task,2021.2.3,MacIntel,60.0024001,613a7218f9ec43822c2bd5fe,626b377229c10585ec392f8a,626b3b312b3d4c70d91c32f9,,,,,,,,,,,,,,,,,,,,,,,,,,,,,,,,,,,,,,,0, ,,0,1.974355259,94.1019,0,2,2,2,1,2,3,,,,,,,,,,,,,,,,,
,Monica,001,2022-04-28_20h13.47.567,classification_task,2021.2.3,MacIntel,60.0024001,613a7218f9ec43822c2bd5fe,626b377229c10585ec392f8a,626b3b312b3d4c70d91c32f9,,,,,,,,,,,,,,,,,,,,,,,,,,,,,,,,,,,,,,,1,  ,,0,5.633477464,95.6157,0,2,2,2,1,2,3,,,,,,,,,,,,,,,,,
,Monica,001,2022-04-28_20h13.47.567,classification_task,2021.2.3,MacIntel,60.0024001,613a7218f9ec43822c2bd5fe,626b377229c10585ec392f8a,626b3b312b3d4c70d91c32f9,,,,,,,,,,,,,,,,,,,,,,,,,,,,,,,,,,,,,,,2,  ,,0,2.952842825,97.2489,0,2,2,2,1,2,3,,,,,,,,,,,,,,,,,
,Monica,001,2022-04-28_20h13.47.567,classification_task,2021.2.3,MacIntel,60.0024001,613a7218f9ec43822c2bd5fe,626b377229c10585ec392f8a,626b3b312b3d4c70d91c32f9,,,,,,,,,,,,,,,,,,,,,,,,,,,,,,,,,,,,,,,,,,,,,0,2,2,2,1,,3,,,,,,,,,,,,,,,,,
,Monica,001,2022-04-28_20h13.47.567,classification_task,2021.2.3,MacIntel,60.0024001,613a7218f9ec43822c2bd5fe,626b377229c10585ec392f8a,626b3b312b3d4c70d91c32f9,,,,,,,,,,,,,,,,,,,,,,,,,,,,,,,,,,,,,,,,,,,,,,,,,,,,,I believe the aid is a competent performer,,0.7,0,1,570.6783,0,0,0,0,1,0,,,,
,Monica,001,2022-04-28_20h13.47.567,classification_task,2021.2.3,MacIntel,60.0024001,613a7218f9ec43822c2bd5fe,626b377229c10585ec392f8a,626b3b312b3d4c70d91c32f9,,,,,,,,,,,,,,,,,,,,,,,,,,,,,,,,,,,,,,,,,,,,,,,,,,,,,I trust the aid,,0.7,0,3,571.6588,0,0,0,0,1,0,,,,
,Monica,001,2022-04-28_20h13.47.567,classification_task,2021.2.3,MacIntel,60.0024001,613a7218f9ec43822c2bd5fe,626b377229c10585ec392f8a,626b3b312b3d4c70d91c32f9,,,,,,,,,,,,,,,,,,,,,,,,,,,,,,,,,,,,,,,,,,,,,,,,,,,,,I have confidence in the advice given by the aid,,0.7,0,3,574.4071,0,0,0,0,1,0,,,,
,Monica,001,2022-04-28_20h13.47.567,classification_task,2021.2.3,MacIntel,60.0024001,613a7218f9ec43822c2bd5fe,626b377229c10585ec392f8a,626b3b312b3d4c70d91c32f9,,,,,,,,,,,,,,,,,,,,,,,,,,,,,,,,,,,,,,,,,,,,,,,,,,,,,I can depend on the aid,,0.7,0,3,576.6055,0,0,0,0,1,0,,,,
,Monica,001,2022-04-28_20h13.47.567,classification_task,2021.2.3,MacIntel,60.0024001,613a7218f9ec43822c2bd5fe,626b377229c10585ec392f8a,626b3b312b3d4c70d91c32f9,,,,,,,,,,,,,,,,,,,,,,,,,,,,,,,,,,,,,,,,,,,,,,,,,,,,,I can rely on the aid to behave in consistent ways,,0.7,0,3,578.2185,0,0,0,0,1,0,,,,
,Monica,001,2022-04-28_20h13.47.567,classification_task,2021.2.3,MacIntel,60.0024001,613a7218f9ec43822c2bd5fe,626b377229c10585ec392f8a,626b3b312b3d4c70d91c32f9,,,,,,,,,,,,,,,,,,,,,,,,,,,,,,,,,,,,,,,,,,,,,,,,,,,,,I can rely on the aid to do its best every time I take its advice,,0.7,0,3,580.4813,0,0,0,0,1,0,,,,
,Monica,001,2022-04-28_20h13.47.567,classification_task,2021.2.3,MacIntel,60.0024001,613a7218f9ec43822c2bd5fe,626b377229c10585ec392f8a,626b3b312b3d4c70d91c32f9,,,,,,,,,,,,,,,,,,,,,,,,,,,,,,,,,,,,,,,,,,,,,,,,,,,,,"On trials you completed with assistance from the aid, how frequently did you think the aid was correct?",,0.7,0,70,,0,0,0,0,1,0,,,,
,Monica,001,2022-04-28_20h13.47.567,classification_task,2021.2.3,MacIntel,60.0024001,613a7218f9ec43822c2bd5fe,626b377229c10585ec392f8a,626b3b312b3d4c70d91c32f9,,,,,,,,,,,,,,,,,,,,,,,,,,,,,,,,,,,,,,,,,,,,,,,,,,,,,"On trials you completed without the aid, how frequently did you think you were correct?",,0.7,0,80,,0,0,0,0,1,0,,,,
,Monica,001,2022-04-28_20h13.47.567,classification_task,2021.2.3,MacIntel,60.0024001,613a7218f9ec43822c2bd5fe,626b377229c10585ec392f8a,626b3b312b3d4c70d91c32f9,,,,,,,,,,,,,,,,,,,,,,,,,,,,,,,,,,,,,,,,,,,,,,,,,,,,,,,,,,,0,0,0,0,1,,,,,
,Monica,001,2022-04-28_20h13.47.567,classification_task,2021.2.3,MacIntel,60.0024001,613a7218f9ec43822c2bd5fe,626b377229c10585ec392f8a,626b3b312b3d4c70d91c32f9,,,,,,,,,,,,,,,,,,,,,,,,,,,,,,,,,,,,,,,,,,,,,,,,,,,,,,,,,,,,,,,,,space,5.3887,600.2895,
,Monica,001,2022-04-28_20h13.47.567,classification_task,2021.2.3,MacIntel,60.0024001,613a7218f9ec43822c2bd5fe,626b377229c10585ec392f8a,626b3b312b3d4c70d91c32f9,,,,,,,,,,,,,,,,,,,,,,,,,,,,,,,,,,,,,,,,,,,,,,,,,,,,,,,,,,,,,,,,,,,,"Mozilla/5.0 (Macintosh; Intel Mac OS X 10_15_7) AppleWebKit/537.36 (KHTML, like Gecko) Chrome/100.0.4896.127 Safari/537.36"
