usingWebGL,participant,session,date,expName,psychopyVersion,OS,frameRate,PROLIFIC_PID,STUDY_ID,SESSION_ID,signatures_friend,signatures_foe,band_ranges_top,band_ranges_bottom,formitemText,formtype,formundefined,formitemWidth,formindex,formresponse,formrt,key_resp_2.keys,key_resp_2.rt,tute_resp.keys,tute_resp.rt,tutorial.thisRepN,tutorial.thisTrialN,tutorial.thisN,tutorial.thisIndex,tutorial.ran,key_resp_4.keys,key_resp_4.rt,key_resp.keys,key_resp.corr,lines_presented,is_signal_presented,trials.thisRepN,trials.thisTrialN,trials.thisN,trials.thisIndex,trials.ran,vessel,active_band,lines,is_signal,supported_pos,catch_trial,key_resp.rt,debrief_formindex,debrief_formitemText,debrief_formtype,debrief_formitemWidth,debrief_formresponse,debrief_formrt,phases.thisRepN,phases.thisTrialN,phases.thisN,phases.thisIndex,phases.ran,phases.order,phase,key_resp_3.keys,trustitemText,trusttype,trustitemWidth,trustindex,trustresponse,trustrt,support_status.thisRepN,support_status.thisTrialN,support_status.thisN,support_status.thisIndex,support_status.ran,support_status.order,key_resp_5.keys,key_resp_5.rt,globalClockTime,userAgent
TRUE,Nuno,001,2022-04-29_02h11.22.523,classification_task,2021.2.3,Win32,60.12867537,60dca369b9600da1094e4dd9,626b377229c10585ec392f89,626b3ae5070cd1565718f012,,,,,,,,,,,,,,,,,,,,,,,,,,,,,,,,,,,,,,,,,,,,,,,,,,,,,,,,,,,,,,,,,,,,
,Nuno,001,2022-04-29_02h11.22.523,classification_task,2021.2.3,Win32,60.12867537,60dca369b9600da1094e4dd9,626b377229c10585ec392f89,626b3ae5070cd1565718f012,"[[""0.309"",""0.489"",""0.882"",""0.937""],[""0.167"",""0.444"",""0.624"",""0.973""]]","[[""0.119"",""0.251"",""0.667"",""0.742""],[""0.035"",""0.401"",""0.538"",""0.836""]]","[1,10]","[100,1000]",Video game experience,,,0.7,0,,,,,,,,,,,,,,,,,,,,,,,,,,,,,,,,,,,,,,,,,,,,,,,,,,,,,,,,,,,
,Nuno,001,2022-04-29_02h11.22.523,classification_task,2021.2.3,Win32,60.12867537,60dca369b9600da1094e4dd9,626b377229c10585ec392f89,626b3ae5070cd1565718f012,,,,,Approximately how many hours did you spend playing video games in the last week?,,,0.7,0,10,,,,,,,,,,,,,,,,,,,,,,,,,,,,,,,,,,,,,,,,,,,,,,,,,,,,,,,,,,
,Nuno,001,2022-04-29_02h11.22.523,classification_task,2021.2.3,Win32,60.12867537,60dca369b9600da1094e4dd9,626b377229c10585ec392f89,626b3ae5070cd1565718f012,,,,,"Which game did you play the most this year? (Enter ""None"" if you didn't play any)",,,0.7,0,Assassins Creed,,,,,,,,,,,,,,,,,,,,,,,,,,,,,,,,,,,,,,,,,,,,,,,,,,,,,,,,,,
,Nuno,001,2022-04-29_02h11.22.523,classification_task,2021.2.3,Win32,60.12867537,60dca369b9600da1094e4dd9,626b377229c10585ec392f89,626b3ae5070cd1565718f012,,,,,Visual perception,,,0.7,0,,,,,,,,,,,,,,,,,,,,,,,,,,,,,,,,,,,,,,,,,,,,,,,,,,,,,,,,,,,
,Nuno,001,2022-04-29_02h11.22.523,classification_task,2021.2.3,Win32,60.12867537,60dca369b9600da1094e4dd9,626b377229c10585ec392f89,626b3ae5070cd1565718f012,,,,,Do you have any form of color blindness?,,,0.7,0,No,25.4611,,,,,,,,,,,,,,,,,,,,,,,,,,,,,,,,,,,,,,,,,,,,,,,,,,,,,,,,,
,Nuno,001,2022-04-29_02h11.22.523,classification_task,2021.2.3,Win32,60.12867537,60dca369b9600da1094e4dd9,626b377229c10585ec392f89,626b3ae5070cd1565718f012,,,,,Do you use software to change the colour temperature of your screen (e.g. f.lux)?,,,0.7,0,No,34.3093,,,,,,,,,,,,,,,,,,,,,,,,,,,,,,,,,,,,,,,,,,,,,,,,,,,,,,,,,
,Nuno,001,2022-04-29_02h11.22.523,classification_task,2021.2.3,Win32,60.12867537,60dca369b9600da1094e4dd9,626b377229c10585ec392f89,626b3ae5070cd1565718f012,,,,,,,,,,,,space,30.1018,space,13.7433,0,0,0,0,1,,,,,,,,,,,,,,,,,,,,,,,,,,,,,,,,,,,,,,,,,,,,,,,,
,Nuno,001,2022-04-29_02h11.22.523,classification_task,2021.2.3,Win32,60.12867537,60dca369b9600da1094e4dd9,626b377229c10585ec392f89,626b3ae5070cd1565718f012,,,,,,,,,,,,,,space,17.7377,1,0,1,0,1,,,,,,,,,,,,,,,,,,,,,,,,,,,,,,,,,,,,,,,,,,,,,,,,
,Nuno,001,2022-04-29_02h11.22.523,classification_task,2021.2.3,Win32,60.12867537,60dca369b9600da1094e4dd9,626b377229c10585ec392f89,626b3ae5070cd1565718f012,,,,,,,,,,,,,,space,33.761,2,0,2,0,1,,,,,,,,,,,,,,,,,,,,,,,,,,,,,,,,,,,,,,,,,,,,,,,,
,Nuno,001,2022-04-29_02h11.22.523,classification_task,2021.2.3,Win32,60.12867537,60dca369b9600da1094e4dd9,626b377229c10585ec392f89,626b3ae5070cd1565718f012,,,,,,,,,,,,,,space,12.1434,3,0,3,0,1,,,,,,,,,,,,,,,,,,,,,,,,,,,,,,,,,,,,,,,,,,,,,,,,
,Nuno,001,2022-04-29_02h11.22.523,classification_task,2021.2.3,Win32,60.12867537,60dca369b9600da1094e4dd9,626b377229c10585ec392f89,626b3ae5070cd1565718f012,,,,,,,,,,,,,,space,15.456,4,0,4,0,1,,,,,,,,,,,,,,,,,,,,,,,,,,,,,,,,,,,,,,,,,,,,,,,,
,Nuno,001,2022-04-29_02h11.22.523,classification_task,2021.2.3,Win32,60.12867537,60dca369b9600da1094e4dd9,626b377229c10585ec392f89,626b3ae5070cd1565718f012,,,,,,,,,,,,,,,,,,,,,space,7.5052,,0,"[""0.035"",""0.401"",""0.585"",""0.836""]","[1,1,0,1]",0,0,0,0,1,1,1,,,0,FALSE,,,,,,,,,,,,,,,,,,,,,,,,,,,,,,,
,Nuno,001,2022-04-29_02h11.22.523,classification_task,2021.2.3,Win32,60.12867537,60dca369b9600da1094e4dd9,626b377229c10585ec392f89,626b3ae5070cd1565718f012,,,,,,,,,,,,,,,,,,,,,,,a,0,"[""0.350"",""0.251"",""0.667"",""0.742""]","[0,1,1,1]",0,1,1,1,1,1,0,,,0,FALSE,9.327,,,,,,,,,,,,,,,,,,,,,,,,,,,,,,
,Nuno,001,2022-04-29_02h11.22.523,classification_task,2021.2.3,Win32,60.12867537,60dca369b9600da1094e4dd9,626b377229c10585ec392f89,626b3ae5070cd1565718f012,,,,,,,,,,,,,,,,,,,,,,,a,1,"[""0.309"",""0.489"",""0.882"",""0.367""]","[1,1,1,0]",0,2,2,2,1,0,0,,,0,FALSE,8.0094,,,,,,,,,,,,,,,,,,,,,,,,,,,,,,
,Nuno,001,2022-04-29_02h11.22.523,classification_task,2021.2.3,Win32,60.12867537,60dca369b9600da1094e4dd9,626b377229c10585ec392f89,626b3ae5070cd1565718f012,,,,,,,,,,,,,,,,,,,,,,,l,1,"[""0.119"",""0.251"",""0.350"",""0.742""]","[1,1,0,1]",0,3,3,3,1,1,0,,,0,FALSE,3.5477,,,,,,,,,,,,,,,,,,,,,,,,,,,,,,
,Nuno,001,2022-04-29_02h11.22.523,classification_task,2021.2.3,Win32,60.12867537,60dca369b9600da1094e4dd9,626b377229c10585ec392f89,626b3ae5070cd1565718f012,,,,,,,,,,,,,,,,,,,,,,,a,1,"[""0.777"",""0.444"",""0.624"",""0.973""]","[0,1,1,1]",0,4,4,4,1,0,1,,,0,FALSE,5.8772,,,,,,,,,,,,,,,,,,,,,,,,,,,,,,
,Nuno,001,2022-04-29_02h11.22.523,classification_task,2021.2.3,Win32,60.12867537,60dca369b9600da1094e4dd9,626b377229c10585ec392f89,626b3ae5070cd1565718f012,,,,,,,,,,,,,,,,,,,,,,,l,1,"[""0.035"",""0.367"",""0.538"",""0.836""]","[1,0,1,1]",0,5,5,5,1,1,1,,,0,FALSE,3.9811,,,,,,,,,,,,,,,,,,,,,,,,,,,,,,
,Nuno,001,2022-04-29_02h11.22.523,classification_task,2021.2.3,Win32,60.12867537,60dca369b9600da1094e4dd9,626b377229c10585ec392f89,626b3ae5070cd1565718f012,,,,,,,,,,,,,,,,,,,,,,,l,1,"[""0.350"",""0.401"",""0.538"",""0.836""]","[0,1,1,1]",0,6,6,6,1,1,1,,,0,FALSE,7.4105,,,,,,,,,,,,,,,,,,,,,,,,,,,,,,
,Nuno,001,2022-04-29_02h11.22.523,classification_task,2021.2.3,Win32,60.12867537,60dca369b9600da1094e4dd9,626b377229c10585ec392f89,626b3ae5070cd1565718f012,,,,,,,,,,,,,,,,,,,,,,,a,1,"[""0.367"",""0.489"",""0.882"",""0.937""]","[0,1,1,1]",0,7,7,7,1,0,0,,,0,FALSE,6.7449,,,,,,,,,,,,,,,,,,,,,,,,,,,,,,
,Nuno,001,2022-04-29_02h11.22.523,classification_task,2021.2.3,Win32,60.12867537,60dca369b9600da1094e4dd9,626b377229c10585ec392f89,626b3ae5070cd1565718f012,,,,,,,,,,,,,,,,,,,,,,,a,1,"[""0.167"",""0.444"",""0.217"",""0.973""]","[1,1,0,1]",0,8,8,8,1,0,1,,,0,FALSE,6.0607,,,,,,,,,,,,,,,,,,,,,,,,,,,,,,
,Nuno,001,2022-04-29_02h11.22.523,classification_task,2021.2.3,Win32,60.12867537,60dca369b9600da1094e4dd9,626b377229c10585ec392f89,626b3ae5070cd1565718f012,,,,,,,,,,,,,,,,,,,,,,,l,1,"[""0.119"",""0.251"",""0.667"",""0.589""]","[1,1,1,0]",0,9,9,9,1,1,0,,,0,FALSE,5.1282,,,,,,,,,,,,,,,,,,,,,,,,,,,,,,
,Nuno,001,2022-04-29_02h11.22.523,classification_task,2021.2.3,Win32,60.12867537,60dca369b9600da1094e4dd9,626b377229c10585ec392f89,626b3ae5070cd1565718f012,,,,,,,,,,,,,,,,,,,,,,,a,1,"[""0.309"",""0.489"",""0.799"",""0.937""]","[1,1,0,1]",0,10,10,10,1,0,0,,,0,FALSE,4.9476,,,,,,,,,,,,,,,,,,,,,,,,,,,,,,
,Nuno,001,2022-04-29_02h11.22.523,classification_task,2021.2.3,Win32,60.12867537,60dca369b9600da1094e4dd9,626b377229c10585ec392f89,626b3ae5070cd1565718f012,,,,,,,,,,,,,,,,,,,,,,,l,1,"[""0.119"",""0.577"",""0.667"",""0.742""]","[1,0,1,1]",0,11,11,11,1,1,0,,,0,FALSE,7.0441,,,,,,,,,,,,,,,,,,,,,,,,,,,,,,
,Nuno,001,2022-04-29_02h11.22.523,classification_task,2021.2.3,Win32,60.12867537,60dca369b9600da1094e4dd9,626b377229c10585ec392f89,626b3ae5070cd1565718f012,,,,,,,,,,,,,,,,,,,,,,,l,1,"[""0.035"",""0.401"",""0.538"",""0.788""]","[1,1,1,0]",0,12,12,12,1,1,1,,,0,FALSE,3.8128,,,,,,,,,,,,,,,,,,,,,,,,,,,,,,
,Nuno,001,2022-04-29_02h11.22.523,classification_task,2021.2.3,Win32,60.12867537,60dca369b9600da1094e4dd9,626b377229c10585ec392f89,626b3ae5070cd1565718f012,,,,,,,,,,,,,,,,,,,,,,,a,1,"[""0.167"",""0.444"",""0.624"",""0.082""]","[1,1,1,0]",0,13,13,13,1,0,1,,,0,FALSE,4.5958,,,,,,,,,,,,,,,,,,,,,,,,,,,,,,
,Nuno,001,2022-04-29_02h11.22.523,classification_task,2021.2.3,Win32,60.12867537,60dca369b9600da1094e4dd9,626b377229c10585ec392f89,626b3ae5070cd1565718f012,,,,,,,,,,,,,,,,,,,,,,,a,1,"[""0.167"",""0.788"",""0.624"",""0.973""]","[1,0,1,1]",0,14,14,14,1,0,1,,,0,FALSE,5.2623,,,,,,,,,,,,,,,,,,,,,,,,,,,,,,
,Nuno,001,2022-04-29_02h11.22.523,classification_task,2021.2.3,Win32,60.12867537,60dca369b9600da1094e4dd9,626b377229c10585ec392f89,626b3ae5070cd1565718f012,,,,,,,,,,,,,,,,,,,,,,,a,1,"[""0.309"",""0.217"",""0.882"",""0.937""]","[1,0,1,1]",0,15,15,15,1,0,0,,,0,FALSE,6.8939,,,,,,,,,,,,,,,,,,,,,,,,,,,,,,
,Nuno,001,2022-04-29_02h11.22.523,classification_task,2021.2.3,Win32,60.12867537,60dca369b9600da1094e4dd9,626b377229c10585ec392f89,626b3ae5070cd1565718f012,,,,,,,,,,,,,,,,,,,,,,,l,1,"[""0.035"",""0.401"",""0.538"",""0.777""]","[1,1,1,0]",0,16,16,16,1,1,1,,,0,FALSE,5.5797,,,,,,,,,,,,,,,,,,,,,,,,,,,,,,
,Nuno,001,2022-04-29_02h11.22.523,classification_task,2021.2.3,Win32,60.12867537,60dca369b9600da1094e4dd9,626b377229c10585ec392f89,626b3ae5070cd1565718f012,,,,,,,,,,,,,,,,,,,,,,,a,0,"[""0.119"",""0.251"",""0.667"",""0.788""]","[1,1,1,0]",0,17,17,17,1,1,0,,,0,FALSE,2.8141,,,,,,,,,,,,,,,,,,,,,,,,,,,,,,
,Nuno,001,2022-04-29_02h11.22.523,classification_task,2021.2.3,Win32,60.12867537,60dca369b9600da1094e4dd9,626b377229c10585ec392f89,626b3ae5070cd1565718f012,,,,,,,,,,,,,,,,,,,,,,,a,1,"[""0.167"",""0.799"",""0.624"",""0.973""]","[1,0,1,1]",0,18,18,18,1,0,1,,,0,FALSE,5.2614,,,,,,,,,,,,,,,,,,,,,,,,,,,,,,
,Nuno,001,2022-04-29_02h11.22.523,classification_task,2021.2.3,Win32,60.12867537,60dca369b9600da1094e4dd9,626b377229c10585ec392f89,626b3ae5070cd1565718f012,,,,,,,,,,,,,,,,,,,,,,,l,1,"[""0.035"",""0.218"",""0.538"",""0.836""]","[1,0,1,1]",0,19,19,19,1,1,1,,,0,FALSE,3.1129,,,,,,,,,,,,,,,,,,,,,,,,,,,,,,
,Nuno,001,2022-04-29_02h11.22.523,classification_task,2021.2.3,Win32,60.12867537,60dca369b9600da1094e4dd9,626b377229c10585ec392f89,626b3ae5070cd1565718f012,,,,,,,,,,,,,,,,,,,,,,,a,1,"[""0.309"",""0.489"",""0.583"",""0.937""]","[1,1,0,1]",0,20,20,20,1,0,0,,,0,FALSE,3.7292,,,,,,,,,,,,,,,,,,,,,,,,,,,,,,
,Nuno,001,2022-04-29_02h11.22.523,classification_task,2021.2.3,Win32,60.12867537,60dca369b9600da1094e4dd9,626b377229c10585ec392f89,626b3ae5070cd1565718f012,,,,,,,,,,,,,,,,,,,,,,,a,1,"[""0.788"",""0.444"",""0.624"",""0.973""]","[0,1,1,1]",0,21,21,21,1,0,1,,,0,FALSE,6.3439,,,,,,,,,,,,,,,,,,,,,,,,,,,,,,
,Nuno,001,2022-04-29_02h11.22.523,classification_task,2021.2.3,Win32,60.12867537,60dca369b9600da1094e4dd9,626b377229c10585ec392f89,626b3ae5070cd1565718f012,,,,,,,,,,,,,,,,,,,,,,,a,1,"[""0.309"",""0.367"",""0.882"",""0.937""]","[1,0,1,1]",0,22,22,22,1,0,0,,,0,FALSE,6.4099,,,,,,,,,,,,,,,,,,,,,,,,,,,,,,
,Nuno,001,2022-04-29_02h11.22.523,classification_task,2021.2.3,Win32,60.12867537,60dca369b9600da1094e4dd9,626b377229c10585ec392f89,626b3ae5070cd1565718f012,,,,,,,,,,,,,,,,,,,,,,,a,1,"[""0.167"",""0.444"",""0.624"",""0.799""]","[1,1,1,0]",0,23,23,23,1,0,1,,,0,FALSE,3.7141,,,,,,,,,,,,,,,,,,,,,,,,,,,,,,
,Nuno,001,2022-04-29_02h11.22.523,classification_task,2021.2.3,Win32,60.12867537,60dca369b9600da1094e4dd9,626b377229c10585ec392f89,626b3ae5070cd1565718f012,,,,,,,,,,,,,,,,,,,,,,,l,1,"[""0.577"",""0.251"",""0.667"",""0.742""]","[0,1,1,1]",0,24,24,24,1,1,0,,,0,FALSE,3.4626,,,,,,,,,,,,,,,,,,,,,,,,,,,,,,
,Nuno,001,2022-04-29_02h11.22.523,classification_task,2021.2.3,Win32,60.12867537,60dca369b9600da1094e4dd9,626b377229c10585ec392f89,626b3ae5070cd1565718f012,,,,,,,,,,,,,,,,,,,,,,,l,1,"[""0.035"",""0.401"",""0.350"",""0.836""]","[1,1,0,1]",0,25,25,25,1,1,1,,,0,FALSE,4.2795,,,,,,,,,,,,,,,,,,,,,,,,,,,,,,
,Nuno,001,2022-04-29_02h11.22.523,classification_task,2021.2.3,Win32,60.12867537,60dca369b9600da1094e4dd9,626b377229c10585ec392f89,626b3ae5070cd1565718f012,,,,,,,,,,,,,,,,,,,,,,,a,1,"[""0.309"",""0.489"",""0.882"",""0.218""]","[1,1,1,0]",0,26,26,26,1,0,0,,,0,FALSE,6.3275,,,,,,,,,,,,,,,,,,,,,,,,,,,,,,
,Nuno,001,2022-04-29_02h11.22.523,classification_task,2021.2.3,Win32,60.12867537,60dca369b9600da1094e4dd9,626b377229c10585ec392f89,626b3ae5070cd1565718f012,,,,,,,,,,,,,,,,,,,,,,,l,1,"[""0.119"",""0.251"",""0.577"",""0.742""]","[1,1,0,1]",0,27,27,27,1,1,0,,,0,FALSE,2.6303,,,,,,,,,,,,,,,,,,,,,,,,,,,,,,
,Nuno,001,2022-04-29_02h11.22.523,classification_task,2021.2.3,Win32,60.12867537,60dca369b9600da1094e4dd9,626b377229c10585ec392f89,626b3ae5070cd1565718f012,,,,,,,,,,,,,,,,,,,,,,,l,1,"[""0.589"",""0.401"",""0.538"",""0.836""]","[0,1,1,1]",0,28,28,28,1,1,1,,,0,FALSE,4.8782,,,,,,,,,,,,,,,,,,,,,,,,,,,,,,
,Nuno,001,2022-04-29_02h11.22.523,classification_task,2021.2.3,Win32,60.12867537,60dca369b9600da1094e4dd9,626b377229c10585ec392f89,626b3ae5070cd1565718f012,,,,,,,,,,,,,,,,,,,,,,,l,1,"[""0.119"",""0.367"",""0.667"",""0.742""]","[1,0,1,1]",0,29,29,29,1,1,0,,,0,FALSE,6.4287,,,,,,,,,,,,,,,,,,,,,,,,,,,,,,
,Nuno,001,2022-04-29_02h11.22.523,classification_task,2021.2.3,Win32,60.12867537,60dca369b9600da1094e4dd9,626b377229c10585ec392f89,626b3ae5070cd1565718f012,,,,,,,,,,,,,,,,,,,,,,,a,1,"[""0.167"",""0.444"",""0.217"",""0.973""]","[1,1,0,1]",0,30,30,30,1,0,1,,,0,FALSE,4.6286,,,,,,,,,,,,,,,,,,,,,,,,,,,,,,
,Nuno,001,2022-04-29_02h11.22.523,classification_task,2021.2.3,Win32,60.12867537,60dca369b9600da1094e4dd9,626b377229c10585ec392f89,626b3ae5070cd1565718f012,,,,,,,,,,,,,,,,,,,,,,,a,1,"[""0.577"",""0.489"",""0.882"",""0.937""]","[0,1,1,1]",0,31,31,31,1,0,0,,,0,FALSE,5.5945,,,,,,,,,,,,,,,,,,,,,,,,,,,,,,
,Nuno,001,2022-04-29_02h11.22.523,classification_task,2021.2.3,Win32,60.12867537,60dca369b9600da1094e4dd9,626b377229c10585ec392f89,626b3ae5070cd1565718f012,,,,,,,,,,,,,,,,,,,,,,,a,0,"[""0.589"",""0.251"",""0.667"",""0.742""]","[0,1,1,1]",0,32,32,32,1,1,0,,,0,FALSE,6.7769,,,,,,,,,,,,,,,,,,,,,,,,,,,,,,
,Nuno,001,2022-04-29_02h11.22.523,classification_task,2021.2.3,Win32,60.12867537,60dca369b9600da1094e4dd9,626b377229c10585ec392f89,626b3ae5070cd1565718f012,,,,,,,,,,,,,,,,,,,,,,,a,0,"[""0.119"",""0.251"",""0.667"",""0.778""]","[1,1,1,0]",0,33,33,33,1,1,0,,,0,FALSE,1.2806,,,,,,,,,,,,,,,,,,,,,,,,,,,,,,
,Nuno,001,2022-04-29_02h11.22.523,classification_task,2021.2.3,Win32,60.12867537,60dca369b9600da1094e4dd9,626b377229c10585ec392f89,626b3ae5070cd1565718f012,,,,,,,,,,,,,,,,,,,,,,,a,0,"[""0.035"",""0.367"",""0.538"",""0.836""]","[1,0,1,1]",0,34,34,34,1,1,1,,,0,FALSE,3.9795,,,,,,,,,,,,,,,,,,,,,,,,,,,,,,
,Nuno,001,2022-04-29_02h11.22.523,classification_task,2021.2.3,Win32,60.12867537,60dca369b9600da1094e4dd9,626b377229c10585ec392f89,626b3ae5070cd1565718f012,,,,,,,,,,,,,,,,,,,,,,,l,1,"[""0.035"",""0.401"",""0.350"",""0.836""]","[1,1,0,1]",0,35,35,35,1,1,1,,,0,FALSE,2.43,,,,,,,,,,,,,,,,,,,,,,,,,,,,,,
,Nuno,001,2022-04-29_02h11.22.523,classification_task,2021.2.3,Win32,60.12867537,60dca369b9600da1094e4dd9,626b377229c10585ec392f89,626b3ae5070cd1565718f012,,,,,,,,,,,,,,,,,,,,,,,a,1,"[""0.167"",""0.583"",""0.624"",""0.973""]","[1,0,1,1]",0,36,36,36,1,0,1,,,0,FALSE,1.1479,,,,,,,,,,,,,,,,,,,,,,,,,,,,,,
,Nuno,001,2022-04-29_02h11.22.523,classification_task,2021.2.3,Win32,60.12867537,60dca369b9600da1094e4dd9,626b377229c10585ec392f89,626b3ae5070cd1565718f012,,,,,,,,,,,,,,,,,,,,,,,l,1,"[""0.119"",""0.777"",""0.667"",""0.742""]","[1,0,1,1]",0,37,37,37,1,1,0,,,0,FALSE,2.0981,,,,,,,,,,,,,,,,,,,,,,,,,,,,,,
,Nuno,001,2022-04-29_02h11.22.523,classification_task,2021.2.3,Win32,60.12867537,60dca369b9600da1094e4dd9,626b377229c10585ec392f89,626b3ae5070cd1565718f012,,,,,,,,,,,,,,,,,,,,,,,a,1,"[""0.217"",""0.444"",""0.624"",""0.973""]","[0,1,1,1]",0,38,38,38,1,0,1,,,0,FALSE,1.8976,,,,,,,,,,,,,,,,,,,,,,,,,,,,,,
,Nuno,001,2022-04-29_02h11.22.523,classification_task,2021.2.3,Win32,60.12867537,60dca369b9600da1094e4dd9,626b377229c10585ec392f89,626b3ae5070cd1565718f012,,,,,,,,,,,,,,,,,,,,,,,l,0,"[""0.778"",""0.489"",""0.882"",""0.937""]","[0,1,1,1]",0,39,39,39,1,0,0,,,0,FALSE,2.9141,,,,,,,,,,,,,,,,,,,,,,,,,,,,,,
,Nuno,001,2022-04-29_02h11.22.523,classification_task,2021.2.3,Win32,60.12867537,60dca369b9600da1094e4dd9,626b377229c10585ec392f89,626b3ae5070cd1565718f012,,,,,,,,,,,,,,,,,,,,,,,l,0,"[""0.309"",""0.489"",""0.882"",""0.585""]","[1,1,1,0]",0,40,40,40,1,0,0,,,0,FALSE,2.9816,,,,,,,,,,,,,,,,,,,,,,,,,,,,,,
,Nuno,001,2022-04-29_02h11.22.523,classification_task,2021.2.3,Win32,60.12867537,60dca369b9600da1094e4dd9,626b377229c10585ec392f89,626b3ae5070cd1565718f012,,,,,,,,,,,,,,,,,,,,,,,l,0,"[""0.309"",""0.489"",""0.777"",""0.937""]","[1,1,0,1]",0,41,41,41,1,0,0,,,0,FALSE,2.6807,,,,,,,,,,,,,,,,,,,,,,,,,,,,,,
,Nuno,001,2022-04-29_02h11.22.523,classification_task,2021.2.3,Win32,60.12867537,60dca369b9600da1094e4dd9,626b377229c10585ec392f89,626b3ae5070cd1565718f012,,,,,,,,,,,,,,,,,,,,,,,a,0,"[""0.035"",""0.401"",""0.538"",""0.348""]","[1,1,1,0]",0,42,42,42,1,1,1,,,0,FALSE,1.0478,,,,,,,,,,,,,,,,,,,,,,,,,,,,,,
,Nuno,001,2022-04-29_02h11.22.523,classification_task,2021.2.3,Win32,60.12867537,60dca369b9600da1094e4dd9,626b377229c10585ec392f89,626b3ae5070cd1565718f012,,,,,,,,,,,,,,,,,,,,,,,a,0,"[""0.119"",""0.251"",""0.583"",""0.742""]","[1,1,0,1]",0,43,43,43,1,1,0,,,0,FALSE,3.8644,,,,,,,,,,,,,,,,,,,,,,,,,,,,,,
,Nuno,001,2022-04-29_02h11.22.523,classification_task,2021.2.3,Win32,60.12867537,60dca369b9600da1094e4dd9,626b377229c10585ec392f89,626b3ae5070cd1565718f012,,,,,,,,,,,,,,,,,,,,,,,l,0,"[""0.309"",""0.082"",""0.882"",""0.937""]","[1,0,1,1]",0,44,44,44,1,0,0,,,0,FALSE,2.597,,,,,,,,,,,,,,,,,,,,,,,,,,,,,,
,Nuno,001,2022-04-29_02h11.22.523,classification_task,2021.2.3,Win32,60.12867537,60dca369b9600da1094e4dd9,626b377229c10585ec392f89,626b3ae5070cd1565718f012,,,,,,,,,,,,,,,,,,,,,,,l,0,"[""0.167"",""0.444"",""0.624"",""0.577""]","[1,1,1,0]",0,45,45,45,1,0,1,,,0,FALSE,2.1638,,,,,,,,,,,,,,,,,,,,,,,,,,,,,,
,Nuno,001,2022-04-29_02h11.22.523,classification_task,2021.2.3,Win32,60.12867537,60dca369b9600da1094e4dd9,626b377229c10585ec392f89,626b3ae5070cd1565718f012,,,,,,,,,,,,,,,,,,,,,,,a,0,"[""0.589"",""0.401"",""0.538"",""0.836""]","[0,1,1,1]",0,46,46,46,1,1,1,,,0,FALSE,2.6655,,,,,,,,,,,,,,,,,,,,,,,,,,,,,,
,Nuno,001,2022-04-29_02h11.22.523,classification_task,2021.2.3,Win32,60.12867537,60dca369b9600da1094e4dd9,626b377229c10585ec392f89,626b3ae5070cd1565718f012,,,,,,,,,,,,,,,,,,,,,,,a,1,"[""0.167"",""0.444"",""0.218"",""0.973""]","[1,1,0,1]",0,47,47,47,1,0,1,,,0,FALSE,1.1144,,,,,,,,,,,,,,,,,,,,,,,,,,,,,,
,Nuno,001,2022-04-29_02h11.22.523,classification_task,2021.2.3,Win32,60.12867537,60dca369b9600da1094e4dd9,626b377229c10585ec392f89,626b3ae5070cd1565718f012,,,,,,,,,,,,,,,,,,,,,,,l,0,"[""0.788"",""0.444"",""0.624"",""0.973""]","[0,1,1,1]",0,48,48,48,1,0,1,,,0,FALSE,1.5306,,,,,,,,,,,,,,,,,,,,,,,,,,,,,,
,Nuno,001,2022-04-29_02h11.22.523,classification_task,2021.2.3,Win32,60.12867537,60dca369b9600da1094e4dd9,626b377229c10585ec392f89,626b3ae5070cd1565718f012,,,,,,,,,,,,,,,,,,,,,,,a,0,"[""0.035"",""0.218"",""0.538"",""0.836""]","[1,0,1,1]",0,49,49,49,1,1,1,,,0,FALSE,1.5303,,,,,,,,,,,,,,,,,,,,,,,,,,,,,,
,Nuno,001,2022-04-29_02h11.22.523,classification_task,2021.2.3,Win32,60.12867537,60dca369b9600da1094e4dd9,626b377229c10585ec392f89,626b3ae5070cd1565718f012,,,,,,,,,,,,,,,,,,,,,,,l,0,"[""0.309"",""0.489"",""0.882"",""0.082""]","[1,1,1,0]",0,50,50,50,1,0,0,,,0,FALSE,3.1481,,,,,,,,,,,,,,,,,,,,,,,,,,,,,,
,Nuno,001,2022-04-29_02h11.22.523,classification_task,2021.2.3,Win32,60.12867537,60dca369b9600da1094e4dd9,626b377229c10585ec392f89,626b3ae5070cd1565718f012,,,,,,,,,,,,,,,,,,,,,,,a,1,"[""0.708"",""0.489"",""0.882"",""0.937""]","[0,1,1,1]",0,51,51,51,1,0,0,,,0,FALSE,2.3481,,,,,,,,,,,,,,,,,,,,,,,,,,,,,,
,Nuno,001,2022-04-29_02h11.22.523,classification_task,2021.2.3,Win32,60.12867537,60dca369b9600da1094e4dd9,626b377229c10585ec392f89,626b3ae5070cd1565718f012,,,,,,,,,,,,,,,,,,,,,,,a,1,"[""0.167"",""0.444"",""0.624"",""0.788""]","[1,1,1,0]",0,52,52,52,1,0,1,,,0,FALSE,0.915,,,,,,,,,,,,,,,,,,,,,,,,,,,,,,
,Nuno,001,2022-04-29_02h11.22.523,classification_task,2021.2.3,Win32,60.12867537,60dca369b9600da1094e4dd9,626b377229c10585ec392f89,626b3ae5070cd1565718f012,,,,,,,,,,,,,,,,,,,,,,,a,0,"[""0.577"",""0.251"",""0.667"",""0.742""]","[0,1,1,1]",0,53,53,53,1,1,0,,,0,FALSE,0.7979,,,,,,,,,,,,,,,,,,,,,,,,,,,,,,
,Nuno,001,2022-04-29_02h11.22.523,classification_task,2021.2.3,Win32,60.12867537,60dca369b9600da1094e4dd9,626b377229c10585ec392f89,626b3ae5070cd1565718f012,,,,,,,,,,,,,,,,,,,,,,,l,0,"[""0.309"",""0.218"",""0.882"",""0.937""]","[1,0,1,1]",0,54,54,54,1,0,0,,,0,FALSE,1.6325,,,,,,,,,,,,,,,,,,,,,,,,,,,,,,
,Nuno,001,2022-04-29_02h11.22.523,classification_task,2021.2.3,Win32,60.12867537,60dca369b9600da1094e4dd9,626b377229c10585ec392f89,626b3ae5070cd1565718f012,,,,,,,,,,,,,,,,,,,,,,,a,0,"[""0.119"",""0.251"",""0.667"",""0.708""]","[1,1,1,0]",0,55,55,55,1,1,0,,,0,FALSE,2.4652,,,,,,,,,,,,,,,,,,,,,,,,,,,,,,
,Nuno,001,2022-04-29_02h11.22.523,classification_task,2021.2.3,Win32,60.12867537,60dca369b9600da1094e4dd9,626b377229c10585ec392f89,626b3ae5070cd1565718f012,,,,,,,,,,,,,,,,,,,,,,,a,0,"[""0.218"",""0.401"",""0.538"",""0.836""]","[0,1,1,1]",0,56,56,56,1,1,1,,,0,FALSE,1.299,,,,,,,,,,,,,,,,,,,,,,,,,,,,,,
,Nuno,001,2022-04-29_02h11.22.523,classification_task,2021.2.3,Win32,60.12867537,60dca369b9600da1094e4dd9,626b377229c10585ec392f89,626b3ae5070cd1565718f012,,,,,,,,,,,,,,,,,,,,,,,a,0,"[""0.119"",""0.251"",""0.346"",""0.742""]","[1,1,0,1]",0,57,57,57,1,1,0,,,0,FALSE,0.9652,,,,,,,,,,,,,,,,,,,,,,,,,,,,,,
,Nuno,001,2022-04-29_02h11.22.523,classification_task,2021.2.3,Win32,60.12867537,60dca369b9600da1094e4dd9,626b377229c10585ec392f89,626b3ae5070cd1565718f012,,,,,,,,,,,,,,,,,,,,,,,a,0,"[""0.119"",""0.778"",""0.667"",""0.742""]","[1,0,1,1]",0,58,58,58,1,1,0,,,0,FALSE,3.7965,,,,,,,,,,,,,,,,,,,,,,,,,,,,,,
,Nuno,001,2022-04-29_02h11.22.523,classification_task,2021.2.3,Win32,60.12867537,60dca369b9600da1094e4dd9,626b377229c10585ec392f89,626b3ae5070cd1565718f012,,,,,,,,,,,,,,,,,,,,,,,a,0,"[""0.035"",""0.401"",""0.538"",""0.799""]","[1,1,1,0]",0,59,59,59,1,1,1,,,0,FALSE,1.982,,,,,,,,,,,,,,,,,,,,,,,,,,,,,,
,Nuno,001,2022-04-29_02h11.22.523,classification_task,2021.2.3,Win32,60.12867537,60dca369b9600da1094e4dd9,626b377229c10585ec392f89,626b3ae5070cd1565718f012,,,,,,,,,,,,,,,,,,,,,,,a,1,"[""0.167"",""0.444"",""0.218"",""0.973""]","[1,1,0,1]",0,60,60,60,1,0,1,,,0,FALSE,2.8138,,,,,,,,,,,,,,,,,,,,,,,,,,,,,,
,Nuno,001,2022-04-29_02h11.22.523,classification_task,2021.2.3,Win32,60.12867537,60dca369b9600da1094e4dd9,626b377229c10585ec392f89,626b3ae5070cd1565718f012,,,,,,,,,,,,,,,,,,,,,,,l,1,"[""0.035"",""0.401"",""0.585"",""0.836""]","[1,1,0,1]",0,61,61,61,1,1,1,,,0,FALSE,1.831,,,,,,,,,,,,,,,,,,,,,,,,,,,,,,
,Nuno,001,2022-04-29_02h11.22.523,classification_task,2021.2.3,Win32,60.12867537,60dca369b9600da1094e4dd9,626b377229c10585ec392f89,626b3ae5070cd1565718f012,,,,,,,,,,,,,,,,,,,,,,,l,0,"[""0.309"",""0.489"",""0.585"",""0.937""]","[1,1,0,1]",0,62,62,62,1,0,0,,,0,FALSE,0.9494,,,,,,,,,,,,,,,,,,,,,,,,,,,,,,
,Nuno,001,2022-04-29_02h11.22.523,classification_task,2021.2.3,Win32,60.12867537,60dca369b9600da1094e4dd9,626b377229c10585ec392f89,626b3ae5070cd1565718f012,,,,,,,,,,,,,,,,,,,,,,,l,0,"[""0.167"",""0.348"",""0.624"",""0.973""]","[1,0,1,1]",0,63,63,63,1,0,1,,,0,FALSE,1.1976,,,,,,,,,,,,,,,,,,,,,,,,,,,,,,
,Nuno,001,2022-04-29_02h11.22.523,classification_task,2021.2.3,Win32,60.12867537,60dca369b9600da1094e4dd9,626b377229c10585ec392f89,626b3ae5070cd1565718f012,,,,,,,,,,,,,,,,,,,,,,,,,,,,,,,,,,,,,,,0, ,,0,10,511.7524,0,0,0,0,1,2,1,,,,,,,,,,,,,,,,,
,Nuno,001,2022-04-29_02h11.22.523,classification_task,2021.2.3,Win32,60.12867537,60dca369b9600da1094e4dd9,626b377229c10585ec392f89,626b3ae5070cd1565718f012,,,,,,,,,,,,,,,,,,,,,,,,,,,,,,,,,,,,,,,1,  ,,0,5.808348031,521.6204,0,0,0,0,1,2,1,,,,,,,,,,,,,,,,,
,Nuno,001,2022-04-29_02h11.22.523,classification_task,2021.2.3,Win32,60.12867537,60dca369b9600da1094e4dd9,626b377229c10585ec392f89,626b3ae5070cd1565718f012,,,,,,,,,,,,,,,,,,,,,,,,,,,,,,,,,,,,,,,2,  ,,0,5.538898687,516.6752,0,0,0,0,1,2,1,,,,,,,,,,,,,,,,,
,Nuno,001,2022-04-29_02h11.22.523,classification_task,2021.2.3,Win32,60.12867537,60dca369b9600da1094e4dd9,626b377229c10585ec392f89,626b3ae5070cd1565718f012,,,,,,,,,,,,,,,,,,,,,,,,,,,,,,,,,,,,,,,,,,,,,0,0,0,0,1,,1,,,,,,,,,,,,,,,,,
,Nuno,001,2022-04-29_02h11.22.523,classification_task,2021.2.3,Win32,60.12867537,60dca369b9600da1094e4dd9,626b377229c10585ec392f89,626b3ae5070cd1565718f012,,,,,,,,,,,,,,,,,,,,,space,12.3746,l,1,"[""0.367"",""0.251"",""0.667"",""0.742""]","[0,1,1,1]",0,0,0,0,1,1,0,,,0,FALSE,2.1544,,,,,,,,,,,,,,,,,,,,,,,,,,,,,,
,Nuno,001,2022-04-29_02h11.22.523,classification_task,2021.2.3,Win32,60.12867537,60dca369b9600da1094e4dd9,626b377229c10585ec392f89,626b3ae5070cd1565718f012,,,,,,,,,,,,,,,,,,,,,,,a,1,"[""0.217"",""0.489"",""0.882"",""0.937""]","[0,1,1,1]",0,1,1,1,1,0,0,,,0,FALSE,7.4335,,,,,,,,,,,,,,,,,,,,,,,,,,,,,,
,Nuno,001,2022-04-29_02h11.22.523,classification_task,2021.2.3,Win32,60.12867537,60dca369b9600da1094e4dd9,626b377229c10585ec392f89,626b3ae5070cd1565718f012,,,,,,,,,,,,,,,,,,,,,,,a,1,"[""0.167"",""0.217"",""0.624"",""0.973""]","[1,0,1,1]",0,2,2,2,1,0,1,,,0,FALSE,2.2228,,,,,,,,,,,,,,,,,,,,,,,,,,,,,,
,Nuno,001,2022-04-29_02h11.22.523,classification_task,2021.2.3,Win32,60.12867537,60dca369b9600da1094e4dd9,626b377229c10585ec392f89,626b3ae5070cd1565718f012,,,,,,,,,,,,,,,,,,,,,,,a,0,"[""0.778"",""0.401"",""0.538"",""0.836""]","[0,1,1,1]",0,3,3,3,1,1,1,,,0,FALSE,1.7478,,,,,,,,,,,,,,,,,,,,,,,,,,,,,,
,Nuno,001,2022-04-29_02h11.22.523,classification_task,2021.2.3,Win32,60.12867537,60dca369b9600da1094e4dd9,626b377229c10585ec392f89,626b3ae5070cd1565718f012,,,,,,,,,,,,,,,,,,,,,,,a,1,"[""0.167"",""0.444"",""0.624"",""0.217""]","[1,1,1,0]",0,4,4,4,1,0,1,,,0,FALSE,4.2723,,,,,,,,,,,,,,,,,,,,,,,,,,,,,,
,Nuno,001,2022-04-29_02h11.22.523,classification_task,2021.2.3,Win32,60.12867537,60dca369b9600da1094e4dd9,626b377229c10585ec392f89,626b3ae5070cd1565718f012,,,,,,,,,,,,,,,,,,,,,,,a,1,"[""0.309"",""0.489"",""0.882"",""0.346""]","[1,1,1,0]",0,5,5,5,1,0,0,,,0,FALSE,2.4069,,,,,,,,,,,,,,,,,,,,,,,,,,,,,,
,Nuno,001,2022-04-29_02h11.22.523,classification_task,2021.2.3,Win32,60.12867537,60dca369b9600da1094e4dd9,626b377229c10585ec392f89,626b3ae5070cd1565718f012,,,,,,,,,,,,,,,,,,,,,,,l,1,"[""0.119"",""0.251"",""0.667"",""0.346""]","[1,1,1,0]",0,6,6,6,1,1,0,,,0,FALSE,1.2435,,,,,,,,,,,,,,,,,,,,,,,,,,,,,,
,Nuno,001,2022-04-29_02h11.22.523,classification_task,2021.2.3,Win32,60.12867537,60dca369b9600da1094e4dd9,626b377229c10585ec392f89,626b3ae5070cd1565718f012,,,,,,,,,,,,,,,,,,,,,,,l,1,"[""0.119"",""0.217"",""0.667"",""0.742""]","[1,0,1,1]",0,7,7,7,1,1,0,,,0,FALSE,2.1481,,,,,,,,,,,,,,,,,,,,,,,,,,,,,,
,Nuno,001,2022-04-29_02h11.22.523,classification_task,2021.2.3,Win32,60.12867537,60dca369b9600da1094e4dd9,626b377229c10585ec392f89,626b3ae5070cd1565718f012,,,,,,,,,,,,,,,,,,,,,,,l,1,"[""0.035"",""0.401"",""0.346"",""0.836""]","[1,1,0,1]",0,8,8,8,1,1,1,,,0,FALSE,2.4194,,,,,,,,,,,,,,,,,,,,,,,,,,,,,,
,Nuno,001,2022-04-29_02h11.22.523,classification_task,2021.2.3,Win32,60.12867537,60dca369b9600da1094e4dd9,626b377229c10585ec392f89,626b3ae5070cd1565718f012,,,,,,,,,,,,,,,,,,,,,,,l,0,"[""0.799"",""0.444"",""0.624"",""0.973""]","[0,1,1,1]",0,9,9,9,1,0,1,,,0,FALSE,1.3271,,,,,,,,,,,,,,,,,,,,,,,,,,,,,,
,Nuno,001,2022-04-29_02h11.22.523,classification_task,2021.2.3,Win32,60.12867537,60dca369b9600da1094e4dd9,626b377229c10585ec392f89,626b3ae5070cd1565718f012,,,,,,,,,,,,,,,,,,,,,,,l,1,"[""0.119"",""0.251"",""0.348"",""0.742""]","[1,1,0,1]",0,10,10,10,1,1,0,,,0,FALSE,1.3477,,,,,,,,,,,,,,,,,,,,,,,,,,,,,,
,Nuno,001,2022-04-29_02h11.22.523,classification_task,2021.2.3,Win32,60.12867537,60dca369b9600da1094e4dd9,626b377229c10585ec392f89,626b3ae5070cd1565718f012,,,,,,,,,,,,,,,,,,,,,,,a,1,"[""0.309"",""0.489"",""0.585"",""0.937""]","[1,1,0,1]",0,11,11,11,1,0,0,,,0,FALSE,1.0388,,,,,,,,,,,,,,,,,,,,,,,,,,,,,,
,Nuno,001,2022-04-29_02h11.22.523,classification_task,2021.2.3,Win32,60.12867537,60dca369b9600da1094e4dd9,626b377229c10585ec392f89,626b3ae5070cd1565718f012,,,,,,,,,,,,,,,,,,,,,,,l,1,"[""0.035"",""0.346"",""0.538"",""0.836""]","[1,0,1,1]",0,12,12,12,1,1,1,,,0,FALSE,2.6287,,,,,,,,,,,,,,,,,,,,,,,,,,,,,,
,Nuno,001,2022-04-29_02h11.22.523,classification_task,2021.2.3,Win32,60.12867537,60dca369b9600da1094e4dd9,626b377229c10585ec392f89,626b3ae5070cd1565718f012,,,,,,,,,,,,,,,,,,,,,,,l,1,"[""0.035"",""0.401"",""0.538"",""0.217""]","[1,1,1,0]",0,13,13,13,1,1,1,,,0,FALSE,1.0784,,,,,,,,,,,,,,,,,,,,,,,,,,,,,,
,Nuno,001,2022-04-29_02h11.22.523,classification_task,2021.2.3,Win32,60.12867537,60dca369b9600da1094e4dd9,626b377229c10585ec392f89,626b3ae5070cd1565718f012,,,,,,,,,,,,,,,,,,,,,,,a,1,"[""0.167"",""0.444"",""0.577"",""0.973""]","[1,1,0,1]",0,14,14,14,1,0,1,,,0,FALSE,0.948,,,,,,,,,,,,,,,,,,,,,,,,,,,,,,
,Nuno,001,2022-04-29_02h11.22.523,classification_task,2021.2.3,Win32,60.12867537,60dca369b9600da1094e4dd9,626b377229c10585ec392f89,626b3ae5070cd1565718f012,,,,,,,,,,,,,,,,,,,,,,,a,1,"[""0.309"",""0.577"",""0.882"",""0.937""]","[1,0,1,1]",0,15,15,15,1,0,0,,,0,FALSE,1.1139,,,,,,,,,,,,,,,,,,,,,,,,,,,,,,
,Nuno,001,2022-04-29_02h11.22.523,classification_task,2021.2.3,Win32,60.12867537,60dca369b9600da1094e4dd9,626b377229c10585ec392f89,626b3ae5070cd1565718f012,,,,,,,,,,,,,,,,,,,,,,,l,1,"[""0.035"",""0.401"",""0.538"",""0.577""]","[1,1,1,0]",0,16,16,16,1,1,1,,,0,FALSE,2.2999,,,,,,,,,,,,,,,,,,,,,,,,,,,,,,
,Nuno,001,2022-04-29_02h11.22.523,classification_task,2021.2.3,Win32,60.12867537,60dca369b9600da1094e4dd9,626b377229c10585ec392f89,626b3ae5070cd1565718f012,,,,,,,,,,,,,,,,,,,,,,,l,0,"[""0.167"",""0.444"",""0.624"",""0.589""]","[1,1,1,0]",0,17,17,17,1,0,1,,,0,FALSE,2.4469,,,,,,,,,,,,,,,,,,,,,,,,,,,,,,
,Nuno,001,2022-04-29_02h11.22.523,classification_task,2021.2.3,Win32,60.12867537,60dca369b9600da1094e4dd9,626b377229c10585ec392f89,626b3ae5070cd1565718f012,,,,,,,,,,,,,,,,,,,,,,,a,1,"[""0.309"",""0.489"",""0.882"",""0.577""]","[1,1,1,0]",0,18,18,18,1,0,0,,,0,FALSE,1.06,,,,,,,,,,,,,,,,,,,,,,,,,,,,,,
,Nuno,001,2022-04-29_02h11.22.523,classification_task,2021.2.3,Win32,60.12867537,60dca369b9600da1094e4dd9,626b377229c10585ec392f89,626b3ae5070cd1565718f012,,,,,,,,,,,,,,,,,,,,,,,l,1,"[""0.119"",""0.251"",""0.667"",""0.799""]","[1,1,1,0]",0,19,19,19,1,1,0,,,0,FALSE,0.8328,,,,,,,,,,,,,,,,,,,,,,,,,,,,,,
,Nuno,001,2022-04-29_02h11.22.523,classification_task,2021.2.3,Win32,60.12867537,60dca369b9600da1094e4dd9,626b377229c10585ec392f89,626b3ae5070cd1565718f012,,,,,,,,,,,,,,,,,,,,,,,l,1,"[""0.119"",""0.217"",""0.667"",""0.742""]","[1,0,1,1]",0,20,20,20,1,1,0,,,0,FALSE,1.1662,,,,,,,,,,,,,,,,,,,,,,,,,,,,,,
,Nuno,001,2022-04-29_02h11.22.523,classification_task,2021.2.3,Win32,60.12867537,60dca369b9600da1094e4dd9,626b377229c10585ec392f89,626b3ae5070cd1565718f012,,,,,,,,,,,,,,,,,,,,,,,a,1,"[""0.309"",""0.778"",""0.882"",""0.937""]","[1,0,1,1]",0,21,21,21,1,0,0,,,0,FALSE,0.9159,,,,,,,,,,,,,,,,,,,,,,,,,,,,,,
,Nuno,001,2022-04-29_02h11.22.523,classification_task,2021.2.3,Win32,60.12867537,60dca369b9600da1094e4dd9,626b377229c10585ec392f89,626b3ae5070cd1565718f012,,,,,,,,,,,,,,,,,,,,,,,a,1,"[""0.577"",""0.489"",""0.882"",""0.937""]","[0,1,1,1]",0,22,22,22,1,0,0,,,0,FALSE,0.6992,,,,,,,,,,,,,,,,,,,,,,,,,,,,,,
,Nuno,001,2022-04-29_02h11.22.523,classification_task,2021.2.3,Win32,60.12867537,60dca369b9600da1094e4dd9,626b377229c10585ec392f89,626b3ae5070cd1565718f012,,,,,,,,,,,,,,,,,,,,,,,l,1,"[""0.035"",""0.401"",""0.777"",""0.836""]","[1,1,0,1]",0,23,23,23,1,1,1,,,0,FALSE,2.4799,,,,,,,,,,,,,,,,,,,,,,,,,,,,,,
,Nuno,001,2022-04-29_02h11.22.523,classification_task,2021.2.3,Win32,60.12867537,60dca369b9600da1094e4dd9,626b377229c10585ec392f89,626b3ae5070cd1565718f012,,,,,,,,,,,,,,,,,,,,,,,l,1,"[""0.035"",""0.583"",""0.538"",""0.836""]","[1,0,1,1]",0,24,24,24,1,1,1,,,0,FALSE,1.2398,,,,,,,,,,,,,,,,,,,,,,,,,,,,,,
,Nuno,001,2022-04-29_02h11.22.523,classification_task,2021.2.3,Win32,60.12867537,60dca369b9600da1094e4dd9,626b377229c10585ec392f89,626b3ae5070cd1565718f012,,,,,,,,,,,,,,,,,,,,,,,a,1,"[""0.167"",""0.444"",""0.218"",""0.973""]","[1,1,0,1]",0,25,25,25,1,0,1,,,0,FALSE,1.8586,,,,,,,,,,,,,,,,,,,,,,,,,,,,,,
,Nuno,001,2022-04-29_02h11.22.523,classification_task,2021.2.3,Win32,60.12867537,60dca369b9600da1094e4dd9,626b377229c10585ec392f89,626b3ae5070cd1565718f012,,,,,,,,,,,,,,,,,,,,,,,l,0,"[""0.708"",""0.444"",""0.624"",""0.973""]","[0,1,1,1]",0,26,26,26,1,0,1,,,0,FALSE,2.8974,,,,,,,,,,,,,,,,,,,,,,,,,,,,,,
,Nuno,001,2022-04-29_02h11.22.523,classification_task,2021.2.3,Win32,60.12867537,60dca369b9600da1094e4dd9,626b377229c10585ec392f89,626b3ae5070cd1565718f012,,,,,,,,,,,,,,,,,,,,,,,a,0,"[""0.217"",""0.401"",""0.538"",""0.836""]","[0,1,1,1]",0,27,27,27,1,1,1,,,0,FALSE,2.3433,,,,,,,,,,,,,,,,,,,,,,,,,,,,,,
,Nuno,001,2022-04-29_02h11.22.523,classification_task,2021.2.3,Win32,60.12867537,60dca369b9600da1094e4dd9,626b377229c10585ec392f89,626b3ae5070cd1565718f012,,,,,,,,,,,,,,,,,,,,,,,l,1,"[""0.119"",""0.251"",""0.778"",""0.742""]","[1,1,0,1]",0,28,28,28,1,1,0,,,0,FALSE,0.7278,,,,,,,,,,,,,,,,,,,,,,,,,,,,,,
,Nuno,001,2022-04-29_02h11.22.523,classification_task,2021.2.3,Win32,60.12867537,60dca369b9600da1094e4dd9,626b377229c10585ec392f89,626b3ae5070cd1565718f012,,,,,,,,,,,,,,,,,,,,,,,a,1,"[""0.309"",""0.489"",""0.348"",""0.937""]","[1,1,0,1]",0,29,29,29,1,0,0,,,0,FALSE,0.7181,,,,,,,,,,,,,,,,,,,,,,,,,,,,,,
,Nuno,001,2022-04-29_02h11.22.523,classification_task,2021.2.3,Win32,60.12867537,60dca369b9600da1094e4dd9,626b377229c10585ec392f89,626b3ae5070cd1565718f012,,,,,,,,,,,,,,,,,,,,,,,l,1,"[""0.589"",""0.251"",""0.667"",""0.742""]","[0,1,1,1]",0,30,30,30,1,1,0,,,0,FALSE,0.6658,,,,,,,,,,,,,,,,,,,,,,,,,,,,,,
,Nuno,001,2022-04-29_02h11.22.523,classification_task,2021.2.3,Win32,60.12867537,60dca369b9600da1094e4dd9,626b377229c10585ec392f89,626b3ae5070cd1565718f012,,,,,,,,,,,,,,,,,,,,,,,a,1,"[""0.167"",""0.082"",""0.624"",""0.973""]","[1,0,1,1]",0,31,31,31,1,0,1,,,0,FALSE,2.6963,,,,,,,,,,,,,,,,,,,,,,,,,,,,,,
,Nuno,001,2022-04-29_02h11.22.523,classification_task,2021.2.3,Win32,60.12867537,60dca369b9600da1094e4dd9,626b377229c10585ec392f89,626b3ae5070cd1565718f012,,,,,,,,,,,,,,,,,,,,,,,l,1,"[""0.035"",""0.082"",""0.538"",""0.836""]","[1,0,1,1]",0,32,32,32,1,1,1,,,0,FALSE,1.0105,,,,,,,,,,,,,,,,,,,,,,,,,,,,,,
,Nuno,001,2022-04-29_02h11.22.523,classification_task,2021.2.3,Win32,60.12867537,60dca369b9600da1094e4dd9,626b377229c10585ec392f89,626b3ae5070cd1565718f012,,,,,,,,,,,,,,,,,,,,,,,l,1,"[""0.119"",""0.589"",""0.667"",""0.742""]","[1,0,1,1]",0,33,33,33,1,1,0,,,0,FALSE,1.0635,,,,,,,,,,,,,,,,,,,,,,,,,,,,,,
,Nuno,001,2022-04-29_02h11.22.523,classification_task,2021.2.3,Win32,60.12867537,60dca369b9600da1094e4dd9,626b377229c10585ec392f89,626b3ae5070cd1565718f012,,,,,,,,,,,,,,,,,,,,,,,l,1,"[""0.119"",""0.251"",""0.667"",""0.218""]","[1,1,1,0]",0,34,34,34,1,1,0,,,0,FALSE,0.8696,,,,,,,,,,,,,,,,,,,,,,,,,,,,,,
,Nuno,001,2022-04-29_02h11.22.523,classification_task,2021.2.3,Win32,60.12867537,60dca369b9600da1094e4dd9,626b377229c10585ec392f89,626b3ae5070cd1565718f012,,,,,,,,,,,,,,,,,,,,,,,l,1,"[""0.788"",""0.401"",""0.538"",""0.836""]","[0,1,1,1]",0,35,35,35,1,1,1,,,0,FALSE,3.4796,,,,,,,,,,,,,,,,,,,,,,,,,,,,,,
,Nuno,001,2022-04-29_02h11.22.523,classification_task,2021.2.3,Win32,60.12867537,60dca369b9600da1094e4dd9,626b377229c10585ec392f89,626b3ae5070cd1565718f012,,,,,,,,,,,,,,,,,,,,,,,l,1,"[""0.119"",""0.251"",""0.348"",""0.742""]","[1,1,0,1]",0,36,36,36,1,1,0,,,0,FALSE,1.4252,,,,,,,,,,,,,,,,,,,,,,,,,,,,,,
,Nuno,001,2022-04-29_02h11.22.523,classification_task,2021.2.3,Win32,60.12867537,60dca369b9600da1094e4dd9,626b377229c10585ec392f89,626b3ae5070cd1565718f012,,,,,,,,,,,,,,,,,,,,,,,l,1,"[""0.035"",""0.401"",""0.367"",""0.836""]","[1,1,0,1]",0,37,37,37,1,1,1,,,0,FALSE,1.6803,,,,,,,,,,,,,,,,,,,,,,,,,,,,,,
,Nuno,001,2022-04-29_02h11.22.523,classification_task,2021.2.3,Win32,60.12867537,60dca369b9600da1094e4dd9,626b377229c10585ec392f89,626b3ae5070cd1565718f012,,,,,,,,,,,,,,,,,,,,,,,a,1,"[""0.309"",""0.489"",""0.882"",""0.348""]","[1,1,1,0]",0,38,38,38,1,0,0,,,0,FALSE,0.5636,,,,,,,,,,,,,,,,,,,,,,,,,,,,,,
,Nuno,001,2022-04-29_02h11.22.523,classification_task,2021.2.3,Win32,60.12867537,60dca369b9600da1094e4dd9,626b377229c10585ec392f89,626b3ae5070cd1565718f012,,,,,,,,,,,,,,,,,,,,,,,a,1,"[""0.309"",""0.489"",""0.577"",""0.937""]","[1,1,0,1]",0,39,39,39,1,0,0,,,0,FALSE,0.6158,,,,,,,,,,,,,,,,,,,,,,,,,,,,,,
,Nuno,001,2022-04-29_02h11.22.523,classification_task,2021.2.3,Win32,60.12867537,60dca369b9600da1094e4dd9,626b377229c10585ec392f89,626b3ae5070cd1565718f012,,,,,,,,,,,,,,,,,,,,,,,a,1,"[""0.577"",""0.489"",""0.882"",""0.937""]","[0,1,1,1]",0,40,40,40,1,0,0,,,0,FALSE,0.5656,,,,,,,,,,,,,,,,,,,,,,,,,,,,,,
,Nuno,001,2022-04-29_02h11.22.523,classification_task,2021.2.3,Win32,60.12867537,60dca369b9600da1094e4dd9,626b377229c10585ec392f89,626b3ae5070cd1565718f012,,,,,,,,,,,,,,,,,,,,,,,l,0,"[""0.799"",""0.444"",""0.624"",""0.973""]","[0,1,1,1]",0,41,41,41,1,0,1,,,0,FALSE,1.433,,,,,,,,,,,,,,,,,,,,,,,,,,,,,,
,Nuno,001,2022-04-29_02h11.22.523,classification_task,2021.2.3,Win32,60.12867537,60dca369b9600da1094e4dd9,626b377229c10585ec392f89,626b3ae5070cd1565718f012,,,,,,,,,,,,,,,,,,,,,,,a,1,"[""0.167"",""0.350"",""0.624"",""0.973""]","[1,0,1,1]",0,42,42,42,1,0,1,,,0,FALSE,1.482,,,,,,,,,,,,,,,,,,,,,,,,,,,,,,
,Nuno,001,2022-04-29_02h11.22.523,classification_task,2021.2.3,Win32,60.12867537,60dca369b9600da1094e4dd9,626b377229c10585ec392f89,626b3ae5070cd1565718f012,,,,,,,,,,,,,,,,,,,,,,,l,1,"[""0.035"",""0.401"",""0.538"",""0.350""]","[1,1,1,0]",0,43,43,43,1,1,1,,,0,FALSE,0.9636,,,,,,,,,,,,,,,,,,,,,,,,,,,,,,
,Nuno,001,2022-04-29_02h11.22.523,classification_task,2021.2.3,Win32,60.12867537,60dca369b9600da1094e4dd9,626b377229c10585ec392f89,626b3ae5070cd1565718f012,,,,,,,,,,,,,,,,,,,,,,,a,1,"[""0.309"",""0.082"",""0.882"",""0.937""]","[1,0,1,1]",0,44,44,44,1,0,0,,,0,FALSE,1.2315,,,,,,,,,,,,,,,,,,,,,,,,,,,,,,
,Nuno,001,2022-04-29_02h11.22.523,classification_task,2021.2.3,Win32,60.12867537,60dca369b9600da1094e4dd9,626b377229c10585ec392f89,626b3ae5070cd1565718f012,,,,,,,,,,,,,,,,,,,,,,,a,1,"[""0.167"",""0.444"",""0.350"",""0.973""]","[1,1,0,1]",0,45,45,45,1,0,1,,,0,FALSE,2.0332,,,,,,,,,,,,,,,,,,,,,,,,,,,,,,
,Nuno,001,2022-04-29_02h11.22.523,classification_task,2021.2.3,Win32,60.12867537,60dca369b9600da1094e4dd9,626b377229c10585ec392f89,626b3ae5070cd1565718f012,,,,,,,,,,,,,,,,,,,,,,,a,1,"[""0.167"",""0.444"",""0.624"",""0.788""]","[1,1,1,0]",0,46,46,46,1,0,1,,,0,FALSE,1.501,,,,,,,,,,,,,,,,,,,,,,,,,,,,,,
,Nuno,001,2022-04-29_02h11.22.523,classification_task,2021.2.3,Win32,60.12867537,60dca369b9600da1094e4dd9,626b377229c10585ec392f89,626b3ae5070cd1565718f012,,,,,,,,,,,,,,,,,,,,,,,l,1,"[""0.082"",""0.251"",""0.667"",""0.742""]","[0,1,1,1]",0,47,47,47,1,1,0,,,0,FALSE,0.9965,,,,,,,,,,,,,,,,,,,,,,,,,,,,,,
,Nuno,001,2022-04-29_02h11.22.523,classification_task,2021.2.3,Win32,60.12867537,60dca369b9600da1094e4dd9,626b377229c10585ec392f89,626b3ae5070cd1565718f012,,,,,,,,,,,,,,,,,,,,,,,l,1,"[""0.119"",""0.799"",""0.667"",""0.742""]","[1,0,1,1]",0,48,48,48,1,1,0,,,0,FALSE,0.5904,,,,,,,,,,,,,,,,,,,,,,,,,,,,,,
,Nuno,001,2022-04-29_02h11.22.523,classification_task,2021.2.3,Win32,60.12867537,60dca369b9600da1094e4dd9,626b377229c10585ec392f89,626b3ae5070cd1565718f012,,,,,,,,,,,,,,,,,,,,,,,l,1,"[""0.119"",""0.251"",""0.667"",""0.217""]","[1,1,1,0]",0,49,49,49,1,1,0,,,0,FALSE,0.7391,,,,,,,,,,,,,,,,,,,,,,,,,,,,,,
,Nuno,001,2022-04-29_02h11.22.523,classification_task,2021.2.3,Win32,60.12867537,60dca369b9600da1094e4dd9,626b377229c10585ec392f89,626b3ae5070cd1565718f012,,,,,,,,,,,,,,,,,,,,,,,a,1,"[""0.167"",""0.778"",""0.624"",""0.973""]","[1,0,1,1]",0,50,50,50,1,0,1,,,0,FALSE,2.0021,,,,,,,,,,,,,,,,,,,,,,,,,,,,,,
,Nuno,001,2022-04-29_02h11.22.523,classification_task,2021.2.3,Win32,60.12867537,60dca369b9600da1094e4dd9,626b377229c10585ec392f89,626b3ae5070cd1565718f012,,,,,,,,,,,,,,,,,,,,,,,l,1,"[""0.585"",""0.251"",""0.667"",""0.742""]","[0,1,1,1]",0,51,51,51,1,1,0,,,0,FALSE,0.9574,,,,,,,,,,,,,,,,,,,,,,,,,,,,,,
,Nuno,001,2022-04-29_02h11.22.523,classification_task,2021.2.3,Win32,60.12867537,60dca369b9600da1094e4dd9,626b377229c10585ec392f89,626b3ae5070cd1565718f012,,,,,,,,,,,,,,,,,,,,,,,l,1,"[""0.119"",""0.251"",""0.788"",""0.742""]","[1,1,0,1]",0,52,52,52,1,1,0,,,0,FALSE,0.6995,,,,,,,,,,,,,,,,,,,,,,,,,,,,,,
,Nuno,001,2022-04-29_02h11.22.523,classification_task,2021.2.3,Win32,60.12867537,60dca369b9600da1094e4dd9,626b377229c10585ec392f89,626b3ae5070cd1565718f012,,,,,,,,,,,,,,,,,,,,,,,a,1,"[""0.167"",""0.444"",""0.624"",""0.778""]","[1,1,1,0]",0,53,53,53,1,0,1,,,0,FALSE,1.1133,,,,,,,,,,,,,,,,,,,,,,,,,,,,,,
,Nuno,001,2022-04-29_02h11.22.523,classification_task,2021.2.3,Win32,60.12867537,60dca369b9600da1094e4dd9,626b377229c10585ec392f89,626b3ae5070cd1565718f012,,,,,,,,,,,,,,,,,,,,,,,l,1,"[""0.035"",""0.350"",""0.538"",""0.836""]","[1,0,1,1]",0,54,54,54,1,1,1,,,0,FALSE,1.0524,,,,,,,,,,,,,,,,,,,,,,,,,,,,,,
,Nuno,001,2022-04-29_02h11.22.523,classification_task,2021.2.3,Win32,60.12867537,60dca369b9600da1094e4dd9,626b377229c10585ec392f89,626b3ae5070cd1565718f012,,,,,,,,,,,,,,,,,,,,,,,a,0,"[""0.589"",""0.401"",""0.538"",""0.836""]","[0,1,1,1]",0,55,55,55,1,1,1,,,0,FALSE,3.6177,,,,,,,,,,,,,,,,,,,,,,,,,,,,,,
,Nuno,001,2022-04-29_02h11.22.523,classification_task,2021.2.3,Win32,60.12867537,60dca369b9600da1094e4dd9,626b377229c10585ec392f89,626b3ae5070cd1565718f012,,,,,,,,,,,,,,,,,,,,,,,a,1,"[""0.167"",""0.444"",""0.367"",""0.973""]","[1,1,0,1]",0,56,56,56,1,0,1,,,0,FALSE,1.077,,,,,,,,,,,,,,,,,,,,,,,,,,,,,,
,Nuno,001,2022-04-29_02h11.22.523,classification_task,2021.2.3,Win32,60.12867537,60dca369b9600da1094e4dd9,626b377229c10585ec392f89,626b3ae5070cd1565718f012,,,,,,,,,,,,,,,,,,,,,,,l,1,"[""0.035"",""0.401"",""0.538"",""0.218""]","[1,1,1,0]",0,57,57,57,1,1,1,,,0,FALSE,1.0168,,,,,,,,,,,,,,,,,,,,,,,,,,,,,,
,Nuno,001,2022-04-29_02h11.22.523,classification_task,2021.2.3,Win32,60.12867537,60dca369b9600da1094e4dd9,626b377229c10585ec392f89,626b3ae5070cd1565718f012,,,,,,,,,,,,,,,,,,,,,,,a,1,"[""0.589"",""0.489"",""0.882"",""0.937""]","[0,1,1,1]",0,58,58,58,1,0,0,,,0,FALSE,1.6631,,,,,,,,,,,,,,,,,,,,,,,,,,,,,,
,Nuno,001,2022-04-29_02h11.22.523,classification_task,2021.2.3,Win32,60.12867537,60dca369b9600da1094e4dd9,626b377229c10585ec392f89,626b3ae5070cd1565718f012,,,,,,,,,,,,,,,,,,,,,,,a,1,"[""0.309"",""0.489"",""0.882"",""0.589""]","[1,1,1,0]",0,59,59,59,1,0,0,,,0,FALSE,0.5495,,,,,,,,,,,,,,,,,,,,,,,,,,,,,,
,Nuno,001,2022-04-29_02h11.22.523,classification_task,2021.2.3,Win32,60.12867537,60dca369b9600da1094e4dd9,626b377229c10585ec392f89,626b3ae5070cd1565718f012,,,,,,,,,,,,,,,,,,,,,,,l,1,"[""0.035"",""0.401"",""0.348"",""0.836""]","[1,1,0,1]",0,60,60,60,1,1,1,,,0,FALSE,1.1321,,,,,,,,,,,,,,,,,,,,,,,,,,,,,,
,Nuno,001,2022-04-29_02h11.22.523,classification_task,2021.2.3,Win32,60.12867537,60dca369b9600da1094e4dd9,626b377229c10585ec392f89,626b3ae5070cd1565718f012,,,,,,,,,,,,,,,,,,,,,,,l,0,"[""0.218"",""0.444"",""0.624"",""0.973""]","[0,1,1,1]",0,61,61,61,1,0,1,,,0,FALSE,2.032,,,,,,,,,,,,,,,,,,,,,,,,,,,,,,
,Nuno,001,2022-04-29_02h11.22.523,classification_task,2021.2.3,Win32,60.12867537,60dca369b9600da1094e4dd9,626b377229c10585ec392f89,626b3ae5070cd1565718f012,,,,,,,,,,,,,,,,,,,,,,,a,1,"[""0.309"",""0.589"",""0.882"",""0.937""]","[1,0,1,1]",0,62,62,62,1,0,0,,,0,FALSE,1.3606,,,,,,,,,,,,,,,,,,,,,,,,,,,,,,
,Nuno,001,2022-04-29_02h11.22.523,classification_task,2021.2.3,Win32,60.12867537,60dca369b9600da1094e4dd9,626b377229c10585ec392f89,626b3ae5070cd1565718f012,,,,,,,,,,,,,,,,,,,,,,,a,1,"[""0.309"",""0.489"",""0.799"",""0.937""]","[1,1,0,1]",0,63,63,63,1,0,0,,,0,FALSE,0.4495,,,,,,,,,,,,,,,,,,,,,,,,,,,,,,
,Nuno,001,2022-04-29_02h11.22.523,classification_task,2021.2.3,Win32,60.12867537,60dca369b9600da1094e4dd9,626b377229c10585ec392f89,626b3ae5070cd1565718f012,,,,,,,,,,,,,,,,,,,,,,,,,,,,,,,,,,,,,,,0, ,,0,10,183.7695,0,1,1,1,1,2,2,,,,,,,,,,,,,,,,,
,Nuno,001,2022-04-29_02h11.22.523,classification_task,2021.2.3,Win32,60.12867537,60dca369b9600da1094e4dd9,626b377229c10585ec392f89,626b3ae5070cd1565718f012,,,,,,,,,,,,,,,,,,,,,,,,,,,,,,,,,,,,,,,1,  ,,0,8.306878307,188.3749,0,1,1,1,1,2,2,,,,,,,,,,,,,,,,,
,Nuno,001,2022-04-29_02h11.22.523,classification_task,2021.2.3,Win32,60.12867537,60dca369b9600da1094e4dd9,626b377229c10585ec392f89,626b3ae5070cd1565718f012,,,,,,,,,,,,,,,,,,,,,,,,,,,,,,,,,,,,,,,2,  ,,0,3.701744072,194.5062,0,1,1,1,1,2,2,,,,,,,,,,,,,,,,,
,Nuno,001,2022-04-29_02h11.22.523,classification_task,2021.2.3,Win32,60.12867537,60dca369b9600da1094e4dd9,626b377229c10585ec392f89,626b3ae5070cd1565718f012,,,,,,,,,,,,,,,,,,,,,,,,,,,,,,,,,,,,,,,,,,,,,0,1,1,1,1,,2,,,,,,,,,,,,,,,,,
,Nuno,001,2022-04-29_02h11.22.523,classification_task,2021.2.3,Win32,60.12867537,60dca369b9600da1094e4dd9,626b377229c10585ec392f89,626b3ae5070cd1565718f012,,,,,,,,,,,,,,,,,,,,,space,1.7381,a,1,"[""0.167"",""0.444"",""0.624"",""0.788""]","[1,1,1,0]",0,0,0,0,1,0,1,,,0,FALSE,1.9477,,,,,,,,,,,,,,,,,,,,,,,,,,,,,,
,Nuno,001,2022-04-29_02h11.22.523,classification_task,2021.2.3,Win32,60.12867537,60dca369b9600da1094e4dd9,626b377229c10585ec392f89,626b3ae5070cd1565718f012,,,,,,,,,,,,,,,,,,,,,,,l,1,"[""0.035"",""0.218"",""0.538"",""0.836""]","[1,0,1,1]",0,1,1,1,1,1,1,,,0,FALSE,1.6492,,,,,,,,,,,,,,,,,,,,,,,,,,,,,,
,Nuno,001,2022-04-29_02h11.22.523,classification_task,2021.2.3,Win32,60.12867537,60dca369b9600da1094e4dd9,626b377229c10585ec392f89,626b3ae5070cd1565718f012,,,,,,,,,,,,,,,,,,,,,,,l,1,"[""0.119"",""0.251"",""0.082"",""0.742""]","[1,1,0,1]",0,2,2,2,1,1,0,,,0,FALSE,5.8908,,,,,,,,,,,,,,,,,,,,,,,,,,,,,,
,Nuno,001,2022-04-29_02h11.22.523,classification_task,2021.2.3,Win32,60.12867537,60dca369b9600da1094e4dd9,626b377229c10585ec392f89,626b3ae5070cd1565718f012,,,,,,,,,,,,,,,,,,,,,,,a,0,"[""0.217"",""0.401"",""0.538"",""0.836""]","[0,1,1,1]",0,3,3,3,1,1,1,,,0,FALSE,2.2262,,,,,,,,,,,,,,,,,,,,,,,,,,,,,,
,Nuno,001,2022-04-29_02h11.22.523,classification_task,2021.2.3,Win32,60.12867537,60dca369b9600da1094e4dd9,626b377229c10585ec392f89,626b3ae5070cd1565718f012,,,,,,,,,,,,,,,,,,,,,,,l,0,"[""0.309"",""0.346"",""0.882"",""0.937""]","[1,0,1,1]",0,4,4,4,1,0,0,,,0,FALSE,1.7761,,,,,,,,,,,,,,,,,,,,,,,,,,,,,,
,Nuno,001,2022-04-29_02h11.22.523,classification_task,2021.2.3,Win32,60.12867537,60dca369b9600da1094e4dd9,626b377229c10585ec392f89,626b3ae5070cd1565718f012,,,,,,,,,,,,,,,,,,,,,,,l,1,"[""0.119"",""0.082"",""0.667"",""0.742""]","[1,0,1,1]",0,5,5,5,1,1,0,,,0,FALSE,1.2386,,,,,,,,,,,,,,,,,,,,,,,,,,,,,,
,Nuno,001,2022-04-29_02h11.22.523,classification_task,2021.2.3,Win32,60.12867537,60dca369b9600da1094e4dd9,626b377229c10585ec392f89,626b3ae5070cd1565718f012,,,,,,,,,,,,,,,,,,,,,,,l,0,"[""0.309"",""0.489"",""0.882"",""0.583""]","[1,1,1,0]",0,6,6,6,1,0,0,,,0,FALSE,2.299,,,,,,,,,,,,,,,,,,,,,,,,,,,,,,
,Nuno,001,2022-04-29_02h11.22.523,classification_task,2021.2.3,Win32,60.12867537,60dca369b9600da1094e4dd9,626b377229c10585ec392f89,626b3ae5070cd1565718f012,,,,,,,,,,,,,,,,,,,,,,,l,0,"[""0.309"",""0.489"",""0.583"",""0.937""]","[1,1,0,1]",0,7,7,7,1,0,0,,,0,FALSE,2.8931,,,,,,,,,,,,,,,,,,,,,,,,,,,,,,
,Nuno,001,2022-04-29_02h11.22.523,classification_task,2021.2.3,Win32,60.12867537,60dca369b9600da1094e4dd9,626b377229c10585ec392f89,626b3ae5070cd1565718f012,,,,,,,,,,,,,,,,,,,,,,,a,1,"[""0.350"",""0.444"",""0.624"",""0.973""]","[0,1,1,1]",0,8,8,8,1,0,1,,,0,FALSE,1.9011,,,,,,,,,,,,,,,,,,,,,,,,,,,,,,
,Nuno,001,2022-04-29_02h11.22.523,classification_task,2021.2.3,Win32,60.12867537,60dca369b9600da1094e4dd9,626b377229c10585ec392f89,626b3ae5070cd1565718f012,,,,,,,,,,,,,,,,,,,,,,,a,1,"[""0.167"",""0.444"",""0.585"",""0.973""]","[1,1,0,1]",0,9,9,9,1,0,1,,,0,FALSE,1.0345,,,,,,,,,,,,,,,,,,,,,,,,,,,,,,
,Nuno,001,2022-04-29_02h11.22.523,classification_task,2021.2.3,Win32,60.12867537,60dca369b9600da1094e4dd9,626b377229c10585ec392f89,626b3ae5070cd1565718f012,,,,,,,,,,,,,,,,,,,,,,,l,1,"[""0.035"",""0.401"",""0.538"",""0.082""]","[1,1,1,0]",0,10,10,10,1,1,1,,,0,FALSE,0.9494,,,,,,,,,,,,,,,,,,,,,,,,,,,,,,
,Nuno,001,2022-04-29_02h11.22.523,classification_task,2021.2.3,Win32,60.12867537,60dca369b9600da1094e4dd9,626b377229c10585ec392f89,626b3ae5070cd1565718f012,,,,,,,,,,,,,,,,,,,,,,,a,0,"[""0.119"",""0.251"",""0.667"",""0.708""]","[1,1,1,0]",0,11,11,11,1,1,0,,,0,FALSE,2.7646,,,,,,,,,,,,,,,,,,,,,,,,,,,,,,
,Nuno,001,2022-04-29_02h11.22.523,classification_task,2021.2.3,Win32,60.12867537,60dca369b9600da1094e4dd9,626b377229c10585ec392f89,626b3ae5070cd1565718f012,,,,,,,,,,,,,,,,,,,,,,,a,1,"[""0.167"",""0.577"",""0.624"",""0.973""]","[1,0,1,1]",0,12,12,12,1,0,1,,,0,FALSE,1.8597,,,,,,,,,,,,,,,,,,,,,,,,,,,,,,
,Nuno,001,2022-04-29_02h11.22.523,classification_task,2021.2.3,Win32,60.12867537,60dca369b9600da1094e4dd9,626b377229c10585ec392f89,626b3ae5070cd1565718f012,,,,,,,,,,,,,,,,,,,,,,,l,1,"[""0.035"",""0.401"",""0.583"",""0.836""]","[1,1,0,1]",0,13,13,13,1,1,1,,,0,FALSE,1.0659,,,,,,,,,,,,,,,,,,,,,,,,,,,,,,
,Nuno,001,2022-04-29_02h11.22.523,classification_task,2021.2.3,Win32,60.12867537,60dca369b9600da1094e4dd9,626b377229c10585ec392f89,626b3ae5070cd1565718f012,,,,,,,,,,,,,,,,,,,,,,,l,1,"[""0.218"",""0.251"",""0.667"",""0.742""]","[0,1,1,1]",0,14,14,14,1,1,0,,,0,FALSE,2.1328,,,,,,,,,,,,,,,,,,,,,,,,,,,,,,
,Nuno,001,2022-04-29_02h11.22.523,classification_task,2021.2.3,Win32,60.12867537,60dca369b9600da1094e4dd9,626b377229c10585ec392f89,626b3ae5070cd1565718f012,,,,,,,,,,,,,,,,,,,,,,,a,1,"[""0.708"",""0.489"",""0.882"",""0.937""]","[0,1,1,1]",0,15,15,15,1,0,0,,,0,FALSE,2.2318,,,,,,,,,,,,,,,,,,,,,,,,,,,,,,
,Nuno,001,2022-04-29_02h11.22.523,classification_task,2021.2.3,Win32,60.12867537,60dca369b9600da1094e4dd9,626b377229c10585ec392f89,626b3ae5070cd1565718f012,,,,,,,,,,,,,,,,,,,,,,,l,0,"[""0.589"",""0.444"",""0.624"",""0.973""]","[0,1,1,1]",0,16,16,16,1,0,1,,,0,FALSE,2.7265,,,,,,,,,,,,,,,,,,,,,,,,,,,,,,
,Nuno,001,2022-04-29_02h11.22.523,classification_task,2021.2.3,Win32,60.12867537,60dca369b9600da1094e4dd9,626b377229c10585ec392f89,626b3ae5070cd1565718f012,,,,,,,,,,,,,,,,,,,,,,,l,1,"[""0.035"",""0.777"",""0.538"",""0.836""]","[1,0,1,1]",0,17,17,17,1,1,1,,,0,FALSE,1.1936,,,,,,,,,,,,,,,,,,,,,,,,,,,,,,
,Nuno,001,2022-04-29_02h11.22.523,classification_task,2021.2.3,Win32,60.12867537,60dca369b9600da1094e4dd9,626b377229c10585ec392f89,626b3ae5070cd1565718f012,,,,,,,,,,,,,,,,,,,,,,,l,1,"[""0.217"",""0.251"",""0.667"",""0.742""]","[0,1,1,1]",0,18,18,18,1,1,0,,,0,FALSE,3.155,,,,,,,,,,,,,,,,,,,,,,,,,,,,,,
,Nuno,001,2022-04-29_02h11.22.523,classification_task,2021.2.3,Win32,60.12867537,60dca369b9600da1094e4dd9,626b377229c10585ec392f89,626b3ae5070cd1565718f012,,,,,,,,,,,,,,,,,,,,,,,a,1,"[""0.167"",""0.444"",""0.585"",""0.973""]","[1,1,0,1]",0,19,19,19,1,0,1,,,0,FALSE,1.5931,,,,,,,,,,,,,,,,,,,,,,,,,,,,,,
,Nuno,001,2022-04-29_02h11.22.523,classification_task,2021.2.3,Win32,60.12867537,60dca369b9600da1094e4dd9,626b377229c10585ec392f89,626b3ae5070cd1565718f012,,,,,,,,,,,,,,,,,,,,,,,a,1,"[""0.309"",""0.708"",""0.882"",""0.937""]","[1,0,1,1]",0,20,20,20,1,0,0,,,0,FALSE,2.3719,,,,,,,,,,,,,,,,,,,,,,,,,,,,,,
,Nuno,001,2022-04-29_02h11.22.523,classification_task,2021.2.3,Win32,60.12867537,60dca369b9600da1094e4dd9,626b377229c10585ec392f89,626b3ae5070cd1565718f012,,,,,,,,,,,,,,,,,,,,,,,l,1,"[""0.119"",""0.251"",""0.667"",""0.778""]","[1,1,1,0]",0,21,21,21,1,1,0,,,0,FALSE,0.8605,,,,,,,,,,,,,,,,,,,,,,,,,,,,,,
,Nuno,001,2022-04-29_02h11.22.523,classification_task,2021.2.3,Win32,60.12867537,60dca369b9600da1094e4dd9,626b377229c10585ec392f89,626b3ae5070cd1565718f012,,,,,,,,,,,,,,,,,,,,,,,l,0,"[""0.778"",""0.489"",""0.882"",""0.937""]","[0,1,1,1]",0,22,22,22,1,0,0,,,0,FALSE,2.1483,,,,,,,,,,,,,,,,,,,,,,,,,,,,,,
,Nuno,001,2022-04-29_02h11.22.523,classification_task,2021.2.3,Win32,60.12867537,60dca369b9600da1094e4dd9,626b377229c10585ec392f89,626b3ae5070cd1565718f012,,,,,,,,,,,,,,,,,,,,,,,l,0,"[""0.167"",""0.577"",""0.624"",""0.973""]","[1,0,1,1]",0,23,23,23,1,0,1,,,0,FALSE,3.3312,,,,,,,,,,,,,,,,,,,,,,,,,,,,,,
,Nuno,001,2022-04-29_02h11.22.523,classification_task,2021.2.3,Win32,60.12867537,60dca369b9600da1094e4dd9,626b377229c10585ec392f89,626b3ae5070cd1565718f012,,,,,,,,,,,,,,,,,,,,,,,l,1,"[""0.035"",""0.401"",""0.538"",""0.799""]","[1,1,1,0]",0,24,24,24,1,1,1,,,0,FALSE,1.0115,,,,,,,,,,,,,,,,,,,,,,,,,,,,,,
,Nuno,001,2022-04-29_02h11.22.523,classification_task,2021.2.3,Win32,60.12867537,60dca369b9600da1094e4dd9,626b377229c10585ec392f89,626b3ae5070cd1565718f012,,,,,,,,,,,,,,,,,,,,,,,a,0,"[""0.119"",""0.778"",""0.667"",""0.742""]","[1,0,1,1]",0,25,25,25,1,1,0,,,0,FALSE,1.5323,,,,,,,,,,,,,,,,,,,,,,,,,,,,,,
,Nuno,001,2022-04-29_02h11.22.523,classification_task,2021.2.3,Win32,60.12867537,60dca369b9600da1094e4dd9,626b377229c10585ec392f89,626b3ae5070cd1565718f012,,,,,,,,,,,,,,,,,,,,,,,a,1,"[""0.309"",""0.489"",""0.882"",""0.577""]","[1,1,1,0]",0,26,26,26,1,0,0,,,0,FALSE,0.5775,,,,,,,,,,,,,,,,,,,,,,,,,,,,,,
,Nuno,001,2022-04-29_02h11.22.523,classification_task,2021.2.3,Win32,60.12867537,60dca369b9600da1094e4dd9,626b377229c10585ec392f89,626b3ae5070cd1565718f012,,,,,,,,,,,,,,,,,,,,,,,l,1,"[""0.035"",""0.401"",""0.367"",""0.836""]","[1,1,0,1]",0,27,27,27,1,1,1,,,0,FALSE,1.3517,,,,,,,,,,,,,,,,,,,,,,,,,,,,,,
,Nuno,001,2022-04-29_02h11.22.523,classification_task,2021.2.3,Win32,60.12867537,60dca369b9600da1094e4dd9,626b377229c10585ec392f89,626b3ae5070cd1565718f012,,,,,,,,,,,,,,,,,,,,,,,a,1,"[""0.309"",""0.489"",""0.367"",""0.937""]","[1,1,0,1]",0,28,28,28,1,0,0,,,0,FALSE,3.2488,,,,,,,,,,,,,,,,,,,,,,,,,,,,,,
,Nuno,001,2022-04-29_02h11.22.523,classification_task,2021.2.3,Win32,60.12867537,60dca369b9600da1094e4dd9,626b377229c10585ec392f89,626b3ae5070cd1565718f012,,,,,,,,,,,,,,,,,,,,,,,a,1,"[""0.167"",""0.444"",""0.624"",""0.777""]","[1,1,1,0]",0,29,29,29,1,0,1,,,0,FALSE,1.3664,,,,,,,,,,,,,,,,,,,,,,,,,,,,,,
,Nuno,001,2022-04-29_02h11.22.523,classification_task,2021.2.3,Win32,60.12867537,60dca369b9600da1094e4dd9,626b377229c10585ec392f89,626b3ae5070cd1565718f012,,,,,,,,,,,,,,,,,,,,,,,a,0,"[""0.119"",""0.251"",""0.350"",""0.742""]","[1,1,0,1]",0,30,30,30,1,1,0,,,0,FALSE,1.3984,,,,,,,,,,,,,,,,,,,,,,,,,,,,,,
,Nuno,001,2022-04-29_02h11.22.523,classification_task,2021.2.3,Win32,60.12867537,60dca369b9600da1094e4dd9,626b377229c10585ec392f89,626b3ae5070cd1565718f012,,,,,,,,,,,,,,,,,,,,,,,l,1,"[""0.577"",""0.401"",""0.538"",""0.836""]","[0,1,1,1]",0,31,31,31,1,1,1,,,0,FALSE,1.5654,,,,,,,,,,,,,,,,,,,,,,,,,,,,,,
,Nuno,001,2022-04-29_02h11.22.523,classification_task,2021.2.3,Win32,60.12867537,60dca369b9600da1094e4dd9,626b377229c10585ec392f89,626b3ae5070cd1565718f012,,,,,,,,,,,,,,,,,,,,,,,a,1,"[""0.309"",""0.489"",""0.882"",""0.577""]","[1,1,1,0]",0,32,32,32,1,0,0,,,0,FALSE,1.3268,,,,,,,,,,,,,,,,,,,,,,,,,,,,,,
,Nuno,001,2022-04-29_02h11.22.523,classification_task,2021.2.3,Win32,60.12867537,60dca369b9600da1094e4dd9,626b377229c10585ec392f89,626b3ae5070cd1565718f012,,,,,,,,,,,,,,,,,,,,,,,l,0,"[""0.082"",""0.489"",""0.882"",""0.937""]","[0,1,1,1]",0,33,33,33,1,0,0,,,0,FALSE,1.8655,,,,,,,,,,,,,,,,,,,,,,,,,,,,,,
,Nuno,001,2022-04-29_02h11.22.523,classification_task,2021.2.3,Win32,60.12867537,60dca369b9600da1094e4dd9,626b377229c10585ec392f89,626b3ae5070cd1565718f012,,,,,,,,,,,,,,,,,,,,,,,l,0,"[""0.167"",""0.444"",""0.346"",""0.973""]","[1,1,0,1]",0,34,34,34,1,0,1,,,0,FALSE,2.7341,,,,,,,,,,,,,,,,,,,,,,,,,,,,,,
,Nuno,001,2022-04-29_02h11.22.523,classification_task,2021.2.3,Win32,60.12867537,60dca369b9600da1094e4dd9,626b377229c10585ec392f89,626b3ae5070cd1565718f012,,,,,,,,,,,,,,,,,,,,,,,l,0,"[""0.577"",""0.444"",""0.624"",""0.973""]","[0,1,1,1]",0,35,35,35,1,0,1,,,0,FALSE,1.8997,,,,,,,,,,,,,,,,,,,,,,,,,,,,,,
,Nuno,001,2022-04-29_02h11.22.523,classification_task,2021.2.3,Win32,60.12867537,60dca369b9600da1094e4dd9,626b377229c10585ec392f89,626b3ae5070cd1565718f012,,,,,,,,,,,,,,,,,,,,,,,l,0,"[""0.167"",""0.444"",""0.624"",""0.218""]","[1,1,1,0]",0,36,36,36,1,0,1,,,0,FALSE,1.2964,,,,,,,,,,,,,,,,,,,,,,,,,,,,,,
,Nuno,001,2022-04-29_02h11.22.523,classification_task,2021.2.3,Win32,60.12867537,60dca369b9600da1094e4dd9,626b377229c10585ec392f89,626b3ae5070cd1565718f012,,,,,,,,,,,,,,,,,,,,,,,l,1,"[""0.035"",""0.218"",""0.538"",""0.836""]","[1,0,1,1]",0,37,37,37,1,1,1,,,0,FALSE,1.0668,,,,,,,,,,,,,,,,,,,,,,,,,,,,,,
,Nuno,001,2022-04-29_02h11.22.523,classification_task,2021.2.3,Win32,60.12867537,60dca369b9600da1094e4dd9,626b377229c10585ec392f89,626b3ae5070cd1565718f012,,,,,,,,,,,,,,,,,,,,,,,l,1,"[""0.035"",""0.401"",""0.799"",""0.836""]","[1,1,0,1]",0,38,38,38,1,1,1,,,0,FALSE,1.299,,,,,,,,,,,,,,,,,,,,,,,,,,,,,,
,Nuno,001,2022-04-29_02h11.22.523,classification_task,2021.2.3,Win32,60.12867537,60dca369b9600da1094e4dd9,626b377229c10585ec392f89,626b3ae5070cd1565718f012,,,,,,,,,,,,,,,,,,,,,,,a,0,"[""0.119"",""0.251"",""0.788"",""0.742""]","[1,1,0,1]",0,39,39,39,1,1,0,,,0,FALSE,1.3986,,,,,,,,,,,,,,,,,,,,,,,,,,,,,,
,Nuno,001,2022-04-29_02h11.22.523,classification_task,2021.2.3,Win32,60.12867537,60dca369b9600da1094e4dd9,626b377229c10585ec392f89,626b3ae5070cd1565718f012,,,,,,,,,,,,,,,,,,,,,,,a,1,"[""0.309"",""0.589"",""0.882"",""0.937""]","[1,0,1,1]",0,40,40,40,1,0,0,,,0,FALSE,3.3656,,,,,,,,,,,,,,,,,,,,,,,,,,,,,,
,Nuno,001,2022-04-29_02h11.22.523,classification_task,2021.2.3,Win32,60.12867537,60dca369b9600da1094e4dd9,626b377229c10585ec392f89,626b3ae5070cd1565718f012,,,,,,,,,,,,,,,,,,,,,,,l,0,"[""0.167"",""0.585"",""0.624"",""0.973""]","[1,0,1,1]",0,41,41,41,1,0,1,,,0,FALSE,1.912,,,,,,,,,,,,,,,,,,,,,,,,,,,,,,
,Nuno,001,2022-04-29_02h11.22.523,classification_task,2021.2.3,Win32,60.12867537,60dca369b9600da1094e4dd9,626b377229c10585ec392f89,626b3ae5070cd1565718f012,,,,,,,,,,,,,,,,,,,,,,,a,0,"[""0.119"",""0.251"",""0.667"",""0.367""]","[1,1,1,0]",0,42,42,42,1,1,0,,,0,FALSE,1.7673,,,,,,,,,,,,,,,,,,,,,,,,,,,,,,
,Nuno,001,2022-04-29_02h11.22.523,classification_task,2021.2.3,Win32,60.12867537,60dca369b9600da1094e4dd9,626b377229c10585ec392f89,626b3ae5070cd1565718f012,,,,,,,,,,,,,,,,,,,,,,,a,0,"[""0.585"",""0.251"",""0.667"",""0.742""]","[0,1,1,1]",0,43,43,43,1,1,0,,,0,FALSE,2.9146,,,,,,,,,,,,,,,,,,,,,,,,,,,,,,
,Nuno,001,2022-04-29_02h11.22.523,classification_task,2021.2.3,Win32,60.12867537,60dca369b9600da1094e4dd9,626b377229c10585ec392f89,626b3ae5070cd1565718f012,,,,,,,,,,,,,,,,,,,,,,,l,0,"[""0.309"",""0.489"",""0.350"",""0.937""]","[1,1,0,1]",0,44,44,44,1,0,0,,,0,FALSE,1.3453,,,,,,,,,,,,,,,,,,,,,,,,,,,,,,
,Nuno,001,2022-04-29_02h11.22.523,classification_task,2021.2.3,Win32,60.12867537,60dca369b9600da1094e4dd9,626b377229c10585ec392f89,626b3ae5070cd1565718f012,,,,,,,,,,,,,,,,,,,,,,,l,1,"[""0.788"",""0.401"",""0.538"",""0.836""]","[0,1,1,1]",0,45,45,45,1,1,1,,,0,FALSE,4.5472,,,,,,,,,,,,,,,,,,,,,,,,,,,,,,
,Nuno,001,2022-04-29_02h11.22.523,classification_task,2021.2.3,Win32,60.12867537,60dca369b9600da1094e4dd9,626b377229c10585ec392f89,626b3ae5070cd1565718f012,,,,,,,,,,,,,,,,,,,,,,,l,1,"[""0.119"",""0.708"",""0.667"",""0.742""]","[1,0,1,1]",0,46,46,46,1,1,0,,,0,FALSE,1.484,,,,,,,,,,,,,,,,,,,,,,,,,,,,,,
,Nuno,001,2022-04-29_02h11.22.523,classification_task,2021.2.3,Win32,60.12867537,60dca369b9600da1094e4dd9,626b377229c10585ec392f89,626b3ae5070cd1565718f012,,,,,,,,,,,,,,,,,,,,,,,l,1,"[""0.035"",""0.401"",""0.538"",""0.708""]","[1,1,1,0]",0,47,47,47,1,1,1,,,0,FALSE,1.266,,,,,,,,,,,,,,,,,,,,,,,,,,,,,,
,Nuno,001,2022-04-29_02h11.22.523,classification_task,2021.2.3,Win32,60.12867537,60dca369b9600da1094e4dd9,626b377229c10585ec392f89,626b3ae5070cd1565718f012,,,,,,,,,,,,,,,,,,,,,,,a,0,"[""0.119"",""0.251"",""0.667"",""0.082""]","[1,1,1,0]",0,48,48,48,1,1,0,,,0,FALSE,2.4985,,,,,,,,,,,,,,,,,,,,,,,,,,,,,,
,Nuno,001,2022-04-29_02h11.22.523,classification_task,2021.2.3,Win32,60.12867537,60dca369b9600da1094e4dd9,626b377229c10585ec392f89,626b3ae5070cd1565718f012,,,,,,,,,,,,,,,,,,,,,,,a,1,"[""0.309"",""0.778"",""0.882"",""0.937""]","[1,0,1,1]",0,49,49,49,1,0,0,,,0,FALSE,1.4935,,,,,,,,,,,,,,,,,,,,,,,,,,,,,,
,Nuno,001,2022-04-29_02h11.22.523,classification_task,2021.2.3,Win32,60.12867537,60dca369b9600da1094e4dd9,626b377229c10585ec392f89,626b3ae5070cd1565718f012,,,,,,,,,,,,,,,,,,,,,,,l,1,"[""0.035"",""0.589"",""0.538"",""0.836""]","[1,0,1,1]",0,50,50,50,1,1,1,,,0,FALSE,1.1159,,,,,,,,,,,,,,,,,,,,,,,,,,,,,,
,Nuno,001,2022-04-29_02h11.22.523,classification_task,2021.2.3,Win32,60.12867537,60dca369b9600da1094e4dd9,626b377229c10585ec392f89,626b3ae5070cd1565718f012,,,,,,,,,,,,,,,,,,,,,,,a,1,"[""0.346"",""0.444"",""0.624"",""0.973""]","[0,1,1,1]",0,51,51,51,1,0,1,,,0,FALSE,1.3922,,,,,,,,,,,,,,,,,,,,,,,,,,,,,,
,Nuno,001,2022-04-29_02h11.22.523,classification_task,2021.2.3,Win32,60.12867537,60dca369b9600da1094e4dd9,626b377229c10585ec392f89,626b3ae5070cd1565718f012,,,,,,,,,,,,,,,,,,,,,,,a,1,"[""0.167"",""0.444"",""0.788"",""0.973""]","[1,1,0,1]",0,52,52,52,1,0,1,,,0,FALSE,1.1004,,,,,,,,,,,,,,,,,,,,,,,,,,,,,,
,Nuno,001,2022-04-29_02h11.22.523,classification_task,2021.2.3,Win32,60.12867537,60dca369b9600da1094e4dd9,626b377229c10585ec392f89,626b3ae5070cd1565718f012,,,,,,,,,,,,,,,,,,,,,,,a,0,"[""0.119"",""0.251"",""0.583"",""0.742""]","[1,1,0,1]",0,53,53,53,1,1,0,,,0,FALSE,1.4159,,,,,,,,,,,,,,,,,,,,,,,,,,,,,,
,Nuno,001,2022-04-29_02h11.22.523,classification_task,2021.2.3,Win32,60.12867537,60dca369b9600da1094e4dd9,626b377229c10585ec392f89,626b3ae5070cd1565718f012,,,,,,,,,,,,,,,,,,,,,,,a,1,"[""0.167"",""0.444"",""0.624"",""0.583""]","[1,1,1,0]",0,54,54,54,1,0,1,,,0,FALSE,2.3816,,,,,,,,,,,,,,,,,,,,,,,,,,,,,,
,Nuno,001,2022-04-29_02h11.22.523,classification_task,2021.2.3,Win32,60.12867537,60dca369b9600da1094e4dd9,626b377229c10585ec392f89,626b3ae5070cd1565718f012,,,,,,,,,,,,,,,,,,,,,,,a,1,"[""0.167"",""0.589"",""0.624"",""0.973""]","[1,0,1,1]",0,55,55,55,1,0,1,,,0,FALSE,1.427,,,,,,,,,,,,,,,,,,,,,,,,,,,,,,
,Nuno,001,2022-04-29_02h11.22.523,classification_task,2021.2.3,Win32,60.12867537,60dca369b9600da1094e4dd9,626b377229c10585ec392f89,626b3ae5070cd1565718f012,,,,,,,,,,,,,,,,,,,,,,,a,1,"[""0.309"",""0.489"",""0.882"",""0.217""]","[1,1,1,0]",0,56,56,56,1,0,0,,,0,FALSE,2.2048,,,,,,,,,,,,,,,,,,,,,,,,,,,,,,
,Nuno,001,2022-04-29_02h11.22.523,classification_task,2021.2.3,Win32,60.12867537,60dca369b9600da1094e4dd9,626b377229c10585ec392f89,626b3ae5070cd1565718f012,,,,,,,,,,,,,,,,,,,,,,,l,1,"[""0.035"",""0.401"",""0.538"",""0.583""]","[1,1,1,0]",0,57,57,57,1,1,1,,,0,FALSE,1.0104,,,,,,,,,,,,,,,,,,,,,,,,,,,,,,
,Nuno,001,2022-04-29_02h11.22.523,classification_task,2021.2.3,Win32,60.12867537,60dca369b9600da1094e4dd9,626b377229c10585ec392f89,626b3ae5070cd1565718f012,,,,,,,,,,,,,,,,,,,,,,,l,1,"[""0.119"",""0.583"",""0.667"",""0.742""]","[1,0,1,1]",0,58,58,58,1,1,0,,,0,FALSE,2.4145,,,,,,,,,,,,,,,,,,,,,,,,,,,,,,
,Nuno,001,2022-04-29_02h11.22.523,classification_task,2021.2.3,Win32,60.12867537,60dca369b9600da1094e4dd9,626b377229c10585ec392f89,626b3ae5070cd1565718f012,,,,,,,,,,,,,,,,,,,,,,,l,1,"[""0.035"",""0.401"",""0.788"",""0.836""]","[1,1,0,1]",0,59,59,59,1,1,1,,,0,FALSE,1.1671,,,,,,,,,,,,,,,,,,,,,,,,,,,,,,
,Nuno,001,2022-04-29_02h11.22.523,classification_task,2021.2.3,Win32,60.12867537,60dca369b9600da1094e4dd9,626b377229c10585ec392f89,626b3ae5070cd1565718f012,,,,,,,,,,,,,,,,,,,,,,,a,1,"[""0.778"",""0.489"",""0.882"",""0.937""]","[0,1,1,1]",0,60,60,60,1,0,0,,,0,FALSE,3.3033,,,,,,,,,,,,,,,,,,,,,,,,,,,,,,
,Nuno,001,2022-04-29_02h11.22.523,classification_task,2021.2.3,Win32,60.12867537,60dca369b9600da1094e4dd9,626b377229c10585ec392f89,626b3ae5070cd1565718f012,,,,,,,,,,,,,,,,,,,,,,,l,1,"[""0.788"",""0.251"",""0.667"",""0.742""]","[0,1,1,1]",0,61,61,61,1,1,0,,,0,FALSE,1.6017,,,,,,,,,,,,,,,,,,,,,,,,,,,,,,
,Nuno,001,2022-04-29_02h11.22.523,classification_task,2021.2.3,Win32,60.12867537,60dca369b9600da1094e4dd9,626b377229c10585ec392f89,626b3ae5070cd1565718f012,,,,,,,,,,,,,,,,,,,,,,,l,1,"[""0.577"",""0.401"",""0.538"",""0.836""]","[0,1,1,1]",0,62,62,62,1,1,1,,,0,FALSE,1.8931,,,,,,,,,,,,,,,,,,,,,,,,,,,,,,
,Nuno,001,2022-04-29_02h11.22.523,classification_task,2021.2.3,Win32,60.12867537,60dca369b9600da1094e4dd9,626b377229c10585ec392f89,626b3ae5070cd1565718f012,,,,,,,,,,,,,,,,,,,,,,,a,1,"[""0.309"",""0.489"",""0.708"",""0.937""]","[1,1,0,1]",0,63,63,63,1,0,0,,,0,FALSE,2.9553,,,,,,,,,,,,,,,,,,,,,,,,,,,,,,
,Nuno,001,2022-04-29_02h11.22.523,classification_task,2021.2.3,Win32,60.12867537,60dca369b9600da1094e4dd9,626b377229c10585ec392f89,626b3ae5070cd1565718f012,,,,,,,,,,,,,,,,,,,,,,,,,,,,,,,,,,,,,,,0, ,,0,9.703115814,194.9676,0,2,2,2,1,2,3,,,,,,,,,,,,,,,,,
,Nuno,001,2022-04-29_02h11.22.523,classification_task,2021.2.3,Win32,60.12867537,60dca369b9600da1094e4dd9,626b377229c10585ec392f89,626b3ae5070cd1565718f012,,,,,,,,,,,,,,,,,,,,,,,,,,,,,,,,,,,,,,,1,  ,,0,10,197.7247,0,2,2,2,1,2,3,,,,,,,,,,,,,,,,,
,Nuno,001,2022-04-29_02h11.22.523,classification_task,2021.2.3,Win32,60.12867537,60dca369b9600da1094e4dd9,626b377229c10585ec392f89,626b3ae5070cd1565718f012,,,,,,,,,,,,,,,,,,,,,,,,,,,,,,,,,,,,,,,2,  ,,0,8.331373702,201.8748,0,2,2,2,1,2,3,,,,,,,,,,,,,,,,,
,Nuno,001,2022-04-29_02h11.22.523,classification_task,2021.2.3,Win32,60.12867537,60dca369b9600da1094e4dd9,626b377229c10585ec392f89,626b3ae5070cd1565718f012,,,,,,,,,,,,,,,,,,,,,,,,,,,,,,,,,,,,,,,,,,,,,0,2,2,2,1,,3,,,,,,,,,,,,,,,,,
,Nuno,001,2022-04-29_02h11.22.523,classification_task,2021.2.3,Win32,60.12867537,60dca369b9600da1094e4dd9,626b377229c10585ec392f89,626b3ae5070cd1565718f012,,,,,,,,,,,,,,,,,,,,,,,,,,,,,,,,,,,,,,,,,,,,,,,,,,,,,I believe the aid is a competent performer,,0.7,0,5,936.6717,0,0,0,0,1,0,,,,
,Nuno,001,2022-04-29_02h11.22.523,classification_task,2021.2.3,Win32,60.12867537,60dca369b9600da1094e4dd9,626b377229c10585ec392f89,626b3ae5070cd1565718f012,,,,,,,,,,,,,,,,,,,,,,,,,,,,,,,,,,,,,,,,,,,,,,,,,,,,,I trust the aid,,0.7,0,5,937.9911,0,0,0,0,1,0,,,,
,Nuno,001,2022-04-29_02h11.22.523,classification_task,2021.2.3,Win32,60.12867537,60dca369b9600da1094e4dd9,626b377229c10585ec392f89,626b3ae5070cd1565718f012,,,,,,,,,,,,,,,,,,,,,,,,,,,,,,,,,,,,,,,,,,,,,,,,,,,,,I have confidence in the advice given by the aid,,0.7,0,5,940.4368,0,0,0,0,1,0,,,,
,Nuno,001,2022-04-29_02h11.22.523,classification_task,2021.2.3,Win32,60.12867537,60dca369b9600da1094e4dd9,626b377229c10585ec392f89,626b3ae5070cd1565718f012,,,,,,,,,,,,,,,,,,,,,,,,,,,,,,,,,,,,,,,,,,,,,,,,,,,,,I can depend on the aid,,0.7,0,5,942.6725,0,0,0,0,1,0,,,,
,Nuno,001,2022-04-29_02h11.22.523,classification_task,2021.2.3,Win32,60.12867537,60dca369b9600da1094e4dd9,626b377229c10585ec392f89,626b3ae5070cd1565718f012,,,,,,,,,,,,,,,,,,,,,,,,,,,,,,,,,,,,,,,,,,,,,,,,,,,,,I can rely on the aid to behave in consistent ways,,0.7,0,5,946.3782,0,0,0,0,1,0,,,,
,Nuno,001,2022-04-29_02h11.22.523,classification_task,2021.2.3,Win32,60.12867537,60dca369b9600da1094e4dd9,626b377229c10585ec392f89,626b3ae5070cd1565718f012,,,,,,,,,,,,,,,,,,,,,,,,,,,,,,,,,,,,,,,,,,,,,,,,,,,,,I can rely on the aid to do its best every time I take its advice,,0.7,0,5,949.5773,0,0,0,0,1,0,,,,
,Nuno,001,2022-04-29_02h11.22.523,classification_task,2021.2.3,Win32,60.12867537,60dca369b9600da1094e4dd9,626b377229c10585ec392f89,626b3ae5070cd1565718f012,,,,,,,,,,,,,,,,,,,,,,,,,,,,,,,,,,,,,,,,,,,,,,,,,,,,,"On trials you completed with assistance from the aid, how frequently did you think the aid was correct?",,0.7,0,100,,0,0,0,0,1,0,,,,
,Nuno,001,2022-04-29_02h11.22.523,classification_task,2021.2.3,Win32,60.12867537,60dca369b9600da1094e4dd9,626b377229c10585ec392f89,626b3ae5070cd1565718f012,,,,,,,,,,,,,,,,,,,,,,,,,,,,,,,,,,,,,,,,,,,,,,,,,,,,,"On trials you completed without the aid, how frequently did you think you were correct?",,0.7,0,40,,0,0,0,0,1,0,,,,
,Nuno,001,2022-04-29_02h11.22.523,classification_task,2021.2.3,Win32,60.12867537,60dca369b9600da1094e4dd9,626b377229c10585ec392f89,626b3ae5070cd1565718f012,,,,,,,,,,,,,,,,,,,,,,,,,,,,,,,,,,,,,,,,,,,,,,,,,,,,,,,,,,,0,0,0,0,1,,,,,
,Nuno,001,2022-04-29_02h11.22.523,classification_task,2021.2.3,Win32,60.12867537,60dca369b9600da1094e4dd9,626b377229c10585ec392f89,626b3ae5070cd1565718f012,,,,,,,,,,,,,,,,,,,,,,,,,,,,,,,,,,,,,,,,,,,,,,,,,,,,,,,,,,,,,,,,,space,9.7924,983.4938,
,Nuno,001,2022-04-29_02h11.22.523,classification_task,2021.2.3,Win32,60.12867537,60dca369b9600da1094e4dd9,626b377229c10585ec392f89,626b3ae5070cd1565718f012,,,,,,,,,,,,,,,,,,,,,,,,,,,,,,,,,,,,,,,,,,,,,,,,,,,,,,,,,,,,,,,,,,,,"Mozilla/5.0 (Windows NT 10.0; Win64; x64) AppleWebKit/537.36 (KHTML, like Gecko) Chrome/100.0.4896.127 Safari/537.36"
