usingWebGL,participant,session,date,expName,psychopyVersion,OS,frameRate,PROLIFIC_PID,STUDY_ID,SESSION_ID,signatures_friend,signatures_foe,band_ranges_top,band_ranges_bottom,formitemText,formtype,formundefined,formitemWidth,formindex,formresponse,formrt,key_resp_2.keys,key_resp_2.rt,tute_resp.keys,tute_resp.rt,tutorial.thisRepN,tutorial.thisTrialN,tutorial.thisN,tutorial.thisIndex,tutorial.ran,key_resp_4.keys,key_resp_4.rt,key_resp.keys,key_resp.corr,lines_presented,is_signal_presented,trials.thisRepN,trials.thisTrialN,trials.thisN,trials.thisIndex,trials.ran,vessel,active_band,lines,is_signal,supported_pos,catch_trial,key_resp.rt,debrief_formindex,debrief_formitemText,debrief_formtype,debrief_formitemWidth,debrief_formresponse,debrief_formrt,phases.thisRepN,phases.thisTrialN,phases.thisN,phases.thisIndex,phases.ran,phases.order,phase,key_resp_3.keys,trustitemText,trusttype,trustitemWidth,trustindex,trustresponse,trustrt,support_status.thisRepN,support_status.thisTrialN,support_status.thisN,support_status.thisIndex,support_status.ran,support_status.order,key_resp_5.keys,key_resp_5.rt,globalClockTime,userAgent
TRUE,One,001,2022-04-29_03h15.01.961,classification_task,2021.2.3,Win32,60.0060006,60fc0722f872d38b39a82c8d,626b377229c10585ec392f89,626b3b0f327281b47670ba1f,,,,,,,,,,,,,,,,,,,,,,,,,,,,,,,,,,,,,,,,,,,,,,,,,,,,,,,,,,,,,,,,,,,,
,One,001,2022-04-29_03h15.01.961,classification_task,2021.2.3,Win32,60.0060006,60fc0722f872d38b39a82c8d,626b377229c10585ec392f89,626b3b0f327281b47670ba1f,"[[""0.252"",""0.448"",""0.886"",""0.973""],[""0.164"",""0.332"",""0.701"",""0.930""]]","[[""0.025"",""0.218"",""0.522"",""0.737""],[""0.064"",""0.365"",""0.583"",""0.782""]]","[1,10]","[100,1000]",Video game experience,,,0.7,0,,,,,,,,,,,,,,,,,,,,,,,,,,,,,,,,,,,,,,,,,,,,,,,,,,,,,,,,,,,
,One,001,2022-04-29_03h15.01.961,classification_task,2021.2.3,Win32,60.0060006,60fc0722f872d38b39a82c8d,626b377229c10585ec392f89,626b3b0f327281b47670ba1f,,,,,Approximately how many hours did you spend playing video games in the last week?,,,0.7,0,5,,,,,,,,,,,,,,,,,,,,,,,,,,,,,,,,,,,,,,,,,,,,,,,,,,,,,,,,,,
,One,001,2022-04-29_03h15.01.961,classification_task,2021.2.3,Win32,60.0060006,60fc0722f872d38b39a82c8d,626b377229c10585ec392f89,626b3b0f327281b47670ba1f,,,,,"Which game did you play the most this year? (Enter ""None"" if you didn't play any)",,,0.7,0,"FIFA 20, GTA V",,,,,,,,,,,,,,,,,,,,,,,,,,,,,,,,,,,,,,,,,,,,,,,,,,,,,,,,,,
,One,001,2022-04-29_03h15.01.961,classification_task,2021.2.3,Win32,60.0060006,60fc0722f872d38b39a82c8d,626b377229c10585ec392f89,626b3b0f327281b47670ba1f,,,,,Visual perception,,,0.7,0,,,,,,,,,,,,,,,,,,,,,,,,,,,,,,,,,,,,,,,,,,,,,,,,,,,,,,,,,,,
,One,001,2022-04-29_03h15.01.961,classification_task,2021.2.3,Win32,60.0060006,60fc0722f872d38b39a82c8d,626b377229c10585ec392f89,626b3b0f327281b47670ba1f,,,,,Do you have any form of color blindness?,,,0.7,0,No,36.6094,,,,,,,,,,,,,,,,,,,,,,,,,,,,,,,,,,,,,,,,,,,,,,,,,,,,,,,,,
,One,001,2022-04-29_03h15.01.961,classification_task,2021.2.3,Win32,60.0060006,60fc0722f872d38b39a82c8d,626b377229c10585ec392f89,626b3b0f327281b47670ba1f,,,,,Do you use software to change the colour temperature of your screen (e.g. f.lux)?,,,0.7,0,No,42.9956,,,,,,,,,,,,,,,,,,,,,,,,,,,,,,,,,,,,,,,,,,,,,,,,,,,,,,,,,
,One,001,2022-04-29_03h15.01.961,classification_task,2021.2.3,Win32,60.0060006,60fc0722f872d38b39a82c8d,626b377229c10585ec392f89,626b3b0f327281b47670ba1f,,,,,,,,,,,,space,50.3286,space,7.5345,0,0,0,0,1,,,,,,,,,,,,,,,,,,,,,,,,,,,,,,,,,,,,,,,,,,,,,,,,
,One,001,2022-04-29_03h15.01.961,classification_task,2021.2.3,Win32,60.0060006,60fc0722f872d38b39a82c8d,626b377229c10585ec392f89,626b3b0f327281b47670ba1f,,,,,,,,,,,,,,space,10.7767,1,0,1,0,1,,,,,,,,,,,,,,,,,,,,,,,,,,,,,,,,,,,,,,,,,,,,,,,,
,One,001,2022-04-29_03h15.01.961,classification_task,2021.2.3,Win32,60.0060006,60fc0722f872d38b39a82c8d,626b377229c10585ec392f89,626b3b0f327281b47670ba1f,,,,,,,,,,,,,,space,38.2844,2,0,2,0,1,,,,,,,,,,,,,,,,,,,,,,,,,,,,,,,,,,,,,,,,,,,,,,,,
,One,001,2022-04-29_03h15.01.961,classification_task,2021.2.3,Win32,60.0060006,60fc0722f872d38b39a82c8d,626b377229c10585ec392f89,626b3b0f327281b47670ba1f,,,,,,,,,,,,,,space,7.2911,3,0,3,0,1,,,,,,,,,,,,,,,,,,,,,,,,,,,,,,,,,,,,,,,,,,,,,,,,
,One,001,2022-04-29_03h15.01.961,classification_task,2021.2.3,Win32,60.0060006,60fc0722f872d38b39a82c8d,626b377229c10585ec392f89,626b3b0f327281b47670ba1f,,,,,,,,,,,,,,space,15.9318,4,0,4,0,1,,,,,,,,,,,,,,,,,,,,,,,,,,,,,,,,,,,,,,,,,,,,,,,,
,One,001,2022-04-29_03h15.01.961,classification_task,2021.2.3,Win32,60.0060006,60fc0722f872d38b39a82c8d,626b377229c10585ec392f89,626b3b0f327281b47670ba1f,,,,,,,,,,,,,,,,,,,,,space,25.3793,,0,"[""0.064"",""0.365"",""0.583"",""0.641""]","[1,1,1,0]",0,0,0,0,1,1,1,,,1,FALSE,,,,,,,,,,,,,,,,,,,,,,,,,,,,,,,
,One,001,2022-04-29_03h15.01.961,classification_task,2021.2.3,Win32,60.0060006,60fc0722f872d38b39a82c8d,626b377229c10585ec392f89,626b3b0f327281b47670ba1f,,,,,,,,,,,,,,,,,,,,,,,,0,"[""0.164"",""0.332"",""0.701"",""0.119""]","[1,1,1,0]",0,1,1,1,1,0,1,,,1,FALSE,,,,,,,,,,,,,,,,,,,,,,,,,,,,,,,
,One,001,2022-04-29_03h15.01.961,classification_task,2021.2.3,Win32,60.0060006,60fc0722f872d38b39a82c8d,626b377229c10585ec392f89,626b3b0f327281b47670ba1f,,,,,,,,,,,,,,,,,,,,,,,a,1,"[""0.294"",""0.332"",""0.701"",""0.930""]","[0,1,1,1]",0,2,2,2,1,0,1,,,1,FALSE,7.8174,,,,,,,,,,,,,,,,,,,,,,,,,,,,,,
,One,001,2022-04-29_03h15.01.961,classification_task,2021.2.3,Win32,60.0060006,60fc0722f872d38b39a82c8d,626b377229c10585ec392f89,626b3b0f327281b47670ba1f,,,,,,,,,,,,,,,,,,,,,,,,0,"[""0.025"",""0.820"",""0.522"",""0.737""]","[1,0,1,1]",0,3,3,3,1,1,0,,,1,FALSE,,,,,,,,,,,,,,,,,,,,,,,,,,,,,,,
,One,001,2022-04-29_03h15.01.961,classification_task,2021.2.3,Win32,60.0060006,60fc0722f872d38b39a82c8d,626b377229c10585ec392f89,626b3b0f327281b47670ba1f,,,,,,,,,,,,,,,,,,,,,,,a,1,"[""0.126"",""0.448"",""0.886"",""0.973""]","[0,1,1,1]",0,4,4,4,1,0,0,,,1,FALSE,6.15,,,,,,,,,,,,,,,,,,,,,,,,,,,,,,
,One,001,2022-04-29_03h15.01.961,classification_task,2021.2.3,Win32,60.0060006,60fc0722f872d38b39a82c8d,626b377229c10585ec392f89,626b3b0f327281b47670ba1f,,,,,,,,,,,,,,,,,,,,,,,,0,"[""0.252"",""0.638"",""0.886"",""0.973""]","[1,0,1,1]",0,5,5,5,1,0,0,,,1,FALSE,,,,,,,,,,,,,,,,,,,,,,,,,,,,,,,
,One,001,2022-04-29_03h15.01.961,classification_task,2021.2.3,Win32,60.0060006,60fc0722f872d38b39a82c8d,626b377229c10585ec392f89,626b3b0f327281b47670ba1f,,,,,,,,,,,,,,,,,,,,,,,l,1,"[""0.644"",""0.365"",""0.583"",""0.782""]","[0,1,1,1]",0,6,6,6,1,1,1,,,1,FALSE,8.5325,,,,,,,,,,,,,,,,,,,,,,,,,,,,,,
,One,001,2022-04-29_03h15.01.961,classification_task,2021.2.3,Win32,60.0060006,60fc0722f872d38b39a82c8d,626b377229c10585ec392f89,626b3b0f327281b47670ba1f,,,,,,,,,,,,,,,,,,,,,,,a,1,"[""0.164"",""0.332"",""0.638"",""0.930""]","[1,1,0,1]",0,7,7,7,1,0,1,,,1,FALSE,5.7586,,,,,,,,,,,,,,,,,,,,,,,,,,,,,,
,One,001,2022-04-29_03h15.01.961,classification_task,2021.2.3,Win32,60.0060006,60fc0722f872d38b39a82c8d,626b377229c10585ec392f89,626b3b0f327281b47670ba1f,,,,,,,,,,,,,,,,,,,,,,,l,1,"[""0.025"",""0.218"",""0.629"",""0.737""]","[1,1,0,1]",0,8,8,8,1,1,0,,,1,FALSE,5.588,,,,,,,,,,,,,,,,,,,,,,,,,,,,,,
,One,001,2022-04-29_03h15.01.961,classification_task,2021.2.3,Win32,60.0060006,60fc0722f872d38b39a82c8d,626b377229c10585ec392f89,626b3b0f327281b47670ba1f,,,,,,,,,,,,,,,,,,,,,,,,0,"[""0.025"",""0.218"",""0.522"",""0.641""]","[1,1,1,0]",0,9,9,9,1,1,0,,,1,FALSE,,,,,,,,,,,,,,,,,,,,,,,,,,,,,,,
,One,001,2022-04-29_03h15.01.961,classification_task,2021.2.3,Win32,60.0060006,60fc0722f872d38b39a82c8d,626b377229c10585ec392f89,626b3b0f327281b47670ba1f,,,,,,,,,,,,,,,,,,,,,,,l,1,"[""0.064"",""0.846"",""0.583"",""0.782""]","[1,0,1,1]",0,10,10,10,1,1,1,,,1,FALSE,9.659,,,,,,,,,,,,,,,,,,,,,,,,,,,,,,
,One,001,2022-04-29_03h15.01.961,classification_task,2021.2.3,Win32,60.0060006,60fc0722f872d38b39a82c8d,626b377229c10585ec392f89,626b3b0f327281b47670ba1f,,,,,,,,,,,,,,,,,,,,,,,a,1,"[""0.164"",""0.626"",""0.701"",""0.930""]","[1,0,1,1]",0,11,11,11,1,0,1,,,1,FALSE,8.7884,,,,,,,,,,,,,,,,,,,,,,,,,,,,,,
,One,001,2022-04-29_03h15.01.961,classification_task,2021.2.3,Win32,60.0060006,60fc0722f872d38b39a82c8d,626b377229c10585ec392f89,626b3b0f327281b47670ba1f,,,,,,,,,,,,,,,,,,,,,,,l,1,"[""0.064"",""0.365"",""0.629"",""0.782""]","[1,1,0,1]",0,12,12,12,1,1,1,,,1,FALSE,6.5587,,,,,,,,,,,,,,,,,,,,,,,,,,,,,,
,One,001,2022-04-29_03h15.01.961,classification_task,2021.2.3,Win32,60.0060006,60fc0722f872d38b39a82c8d,626b377229c10585ec392f89,626b3b0f327281b47670ba1f,,,,,,,,,,,,,,,,,,,,,,,a,1,"[""0.252"",""0.448"",""0.629"",""0.973""]","[1,1,0,1]",0,13,13,13,1,0,0,,,1,FALSE,5.5285,,,,,,,,,,,,,,,,,,,,,,,,,,,,,,
,One,001,2022-04-29_03h15.01.961,classification_task,2021.2.3,Win32,60.0060006,60fc0722f872d38b39a82c8d,626b377229c10585ec392f89,626b3b0f327281b47670ba1f,,,,,,,,,,,,,,,,,,,,,,,l,1,"[""0.633"",""0.218"",""0.522"",""0.737""]","[0,1,1,1]",0,14,14,14,1,1,0,,,1,FALSE,5.4558,,,,,,,,,,,,,,,,,,,,,,,,,,,,,,
,One,001,2022-04-29_03h15.01.961,classification_task,2021.2.3,Win32,60.0060006,60fc0722f872d38b39a82c8d,626b377229c10585ec392f89,626b3b0f327281b47670ba1f,,,,,,,,,,,,,,,,,,,,,,,a,1,"[""0.252"",""0.448"",""0.886"",""0.626""]","[1,1,1,0]",0,15,15,15,1,0,0,,,1,FALSE,9.1238,,,,,,,,,,,,,,,,,,,,,,,,,,,,,,
,One,001,2022-04-29_03h15.01.961,classification_task,2021.2.3,Win32,60.0060006,60fc0722f872d38b39a82c8d,626b377229c10585ec392f89,626b3b0f327281b47670ba1f,,,,,,,,,,,,,,,,,,,,,,,l,1,"[""0.064"",""0.365"",""0.583"",""0.294""]","[1,1,1,0]",0,16,16,16,1,1,1,,,1,FALSE,7.6662,,,,,,,,,,,,,,,,,,,,,,,,,,,,,,
,One,001,2022-04-29_03h15.01.961,classification_task,2021.2.3,Win32,60.0060006,60fc0722f872d38b39a82c8d,626b377229c10585ec392f89,626b3b0f327281b47670ba1f,,,,,,,,,,,,,,,,,,,,,,,l,0,"[""0.252"",""0.644"",""0.886"",""0.973""]","[1,0,1,1]",0,17,17,17,1,0,0,,,1,FALSE,9.5847,,,,,,,,,,,,,,,,,,,,,,,,,,,,,,
,One,001,2022-04-29_03h15.01.961,classification_task,2021.2.3,Win32,60.0060006,60fc0722f872d38b39a82c8d,626b377229c10585ec392f89,626b3b0f327281b47670ba1f,,,,,,,,,,,,,,,,,,,,,,,l,1,"[""0.632"",""0.365"",""0.583"",""0.782""]","[0,1,1,1]",0,18,18,18,1,1,1,,,1,FALSE,7.8984,,,,,,,,,,,,,,,,,,,,,,,,,,,,,,
,One,001,2022-04-29_03h15.01.961,classification_task,2021.2.3,Win32,60.0060006,60fc0722f872d38b39a82c8d,626b377229c10585ec392f89,626b3b0f327281b47670ba1f,,,,,,,,,,,,,,,,,,,,,,,a,1,"[""0.252"",""0.448"",""0.294"",""0.973""]","[1,1,0,1]",0,19,19,19,1,0,0,,,1,FALSE,8.7316,,,,,,,,,,,,,,,,,,,,,,,,,,,,,,
,One,001,2022-04-29_03h15.01.961,classification_task,2021.2.3,Win32,60.0060006,60fc0722f872d38b39a82c8d,626b377229c10585ec392f89,626b3b0f327281b47670ba1f,,,,,,,,,,,,,,,,,,,,,,,a,1,"[""0.644"",""0.448"",""0.886"",""0.973""]","[0,1,1,1]",0,20,20,20,1,0,0,,,1,FALSE,6.3057,,,,,,,,,,,,,,,,,,,,,,,,,,,,,,
,One,001,2022-04-29_03h15.01.961,classification_task,2021.2.3,Win32,60.0060006,60fc0722f872d38b39a82c8d,626b377229c10585ec392f89,626b3b0f327281b47670ba1f,,,,,,,,,,,,,,,,,,,,,,,a,1,"[""0.164"",""0.629"",""0.701"",""0.930""]","[1,0,1,1]",0,21,21,21,1,0,1,,,1,FALSE,7.0066,,,,,,,,,,,,,,,,,,,,,,,,,,,,,,
,One,001,2022-04-29_03h15.01.961,classification_task,2021.2.3,Win32,60.0060006,60fc0722f872d38b39a82c8d,626b377229c10585ec392f89,626b3b0f327281b47670ba1f,,,,,,,,,,,,,,,,,,,,,,,l,1,"[""0.025"",""0.218"",""0.638"",""0.737""]","[1,1,0,1]",0,22,22,22,1,1,0,,,1,FALSE,5.2161,,,,,,,,,,,,,,,,,,,,,,,,,,,,,,
,One,001,2022-04-29_03h15.01.961,classification_task,2021.2.3,Win32,60.0060006,60fc0722f872d38b39a82c8d,626b377229c10585ec392f89,626b3b0f327281b47670ba1f,,,,,,,,,,,,,,,,,,,,,,,,0,"[""0.126"",""0.218"",""0.522"",""0.737""]","[0,1,1,1]",0,23,23,23,1,1,0,,,1,FALSE,,,,,,,,,,,,,,,,,,,,,,,,,,,,,,,
,One,001,2022-04-29_03h15.01.961,classification_task,2021.2.3,Win32,60.0060006,60fc0722f872d38b39a82c8d,626b377229c10585ec392f89,626b3b0f327281b47670ba1f,,,,,,,,,,,,,,,,,,,,,,,a,1,"[""0.294"",""0.332"",""0.701"",""0.930""]","[0,1,1,1]",0,24,24,24,1,0,1,,,1,FALSE,8.3951,,,,,,,,,,,,,,,,,,,,,,,,,,,,,,
,One,001,2022-04-29_03h15.01.961,classification_task,2021.2.3,Win32,60.0060006,60fc0722f872d38b39a82c8d,626b377229c10585ec392f89,626b3b0f327281b47670ba1f,,,,,,,,,,,,,,,,,,,,,,,a,1,"[""0.252"",""0.448"",""0.886"",""0.820""]","[1,1,1,0]",0,25,25,25,1,0,0,,,1,FALSE,5.7117,,,,,,,,,,,,,,,,,,,,,,,,,,,,,,
,One,001,2022-04-29_03h15.01.961,classification_task,2021.2.3,Win32,60.0060006,60fc0722f872d38b39a82c8d,626b377229c10585ec392f89,626b3b0f327281b47670ba1f,,,,,,,,,,,,,,,,,,,,,,,l,1,"[""0.064"",""0.119"",""0.583"",""0.782""]","[1,0,1,1]",0,26,26,26,1,1,1,,,1,FALSE,4.4536,,,,,,,,,,,,,,,,,,,,,,,,,,,,,,
,One,001,2022-04-29_03h15.01.961,classification_task,2021.2.3,Win32,60.0060006,60fc0722f872d38b39a82c8d,626b377229c10585ec392f89,626b3b0f327281b47670ba1f,,,,,,,,,,,,,,,,,,,,,,,a,1,"[""0.164"",""0.332"",""0.112"",""0.930""]","[1,1,0,1]",0,27,27,27,1,0,1,,,1,FALSE,2.6773,,,,,,,,,,,,,,,,,,,,,,,,,,,,,,
,One,001,2022-04-29_03h15.01.961,classification_task,2021.2.3,Win32,60.0060006,60fc0722f872d38b39a82c8d,626b377229c10585ec392f89,626b3b0f327281b47670ba1f,,,,,,,,,,,,,,,,,,,,,,,l,1,"[""0.025"",""0.638"",""0.522"",""0.737""]","[1,0,1,1]",0,28,28,28,1,1,0,,,1,FALSE,2.5881,,,,,,,,,,,,,,,,,,,,,,,,,,,,,,
,One,001,2022-04-29_03h15.01.961,classification_task,2021.2.3,Win32,60.0060006,60fc0722f872d38b39a82c8d,626b377229c10585ec392f89,626b3b0f327281b47670ba1f,,,,,,,,,,,,,,,,,,,,,,,l,1,"[""0.025"",""0.218"",""0.522"",""0.640""]","[1,1,1,0]",0,29,29,29,1,1,0,,,1,FALSE,3.1184,,,,,,,,,,,,,,,,,,,,,,,,,,,,,,
,One,001,2022-04-29_03h15.01.961,classification_task,2021.2.3,Win32,60.0060006,60fc0722f872d38b39a82c8d,626b377229c10585ec392f89,626b3b0f327281b47670ba1f,,,,,,,,,,,,,,,,,,,,,,,l,1,"[""0.064"",""0.365"",""0.629"",""0.782""]","[1,1,0,1]",0,30,30,30,1,1,1,,,1,FALSE,5.2494,,,,,,,,,,,,,,,,,,,,,,,,,,,,,,
,One,001,2022-04-29_03h15.01.961,classification_task,2021.2.3,Win32,60.0060006,60fc0722f872d38b39a82c8d,626b377229c10585ec392f89,626b3b0f327281b47670ba1f,,,,,,,,,,,,,,,,,,,,,,,a,1,"[""0.164"",""0.332"",""0.701"",""0.633""]","[1,1,1,0]",0,31,31,31,1,0,1,,,1,FALSE,3.8947,,,,,,,,,,,,,,,,,,,,,,,,,,,,,,
,One,001,2022-04-29_03h15.01.961,classification_task,2021.2.3,Win32,60.0060006,60fc0722f872d38b39a82c8d,626b377229c10585ec392f89,626b3b0f327281b47670ba1f,,,,,,,,,,,,,,,,,,,,,,,a,1,"[""0.252"",""0.119"",""0.886"",""0.973""]","[1,0,1,1]",0,32,32,32,1,0,0,,,1,FALSE,8.3529,,,,,,,,,,,,,,,,,,,,,,,,,,,,,,
,One,001,2022-04-29_03h15.01.961,classification_task,2021.2.3,Win32,60.0060006,60fc0722f872d38b39a82c8d,626b377229c10585ec392f89,626b3b0f327281b47670ba1f,,,,,,,,,,,,,,,,,,,,,,,l,1,"[""0.025"",""0.112"",""0.522"",""0.737""]","[1,0,1,1]",0,33,33,33,1,1,0,,,1,FALSE,4.3125,,,,,,,,,,,,,,,,,,,,,,,,,,,,,,
,One,001,2022-04-29_03h15.01.961,classification_task,2021.2.3,Win32,60.0060006,60fc0722f872d38b39a82c8d,626b377229c10585ec392f89,626b3b0f327281b47670ba1f,,,,,,,,,,,,,,,,,,,,,,,a,0,"[""0.064"",""0.365"",""0.641"",""0.782""]","[1,1,0,1]",0,34,34,34,1,1,1,,,1,FALSE,3.228,,,,,,,,,,,,,,,,,,,,,,,,,,,,,,
,One,001,2022-04-29_03h15.01.961,classification_task,2021.2.3,Win32,60.0060006,60fc0722f872d38b39a82c8d,626b377229c10585ec392f89,626b3b0f327281b47670ba1f,,,,,,,,,,,,,,,,,,,,,,,a,1,"[""0.252"",""0.448"",""0.886"",""0.633""]","[1,1,1,0]",0,35,35,35,1,0,0,,,1,FALSE,4.0817,,,,,,,,,,,,,,,,,,,,,,,,,,,,,,
,One,001,2022-04-29_03h15.01.961,classification_task,2021.2.3,Win32,60.0060006,60fc0722f872d38b39a82c8d,626b377229c10585ec392f89,626b3b0f327281b47670ba1f,,,,,,,,,,,,,,,,,,,,,,,l,1,"[""0.294"",""0.365"",""0.583"",""0.782""]","[0,1,1,1]",0,36,36,36,1,1,1,,,1,FALSE,2.9918,,,,,,,,,,,,,,,,,,,,,,,,,,,,,,
,One,001,2022-04-29_03h15.01.961,classification_task,2021.2.3,Win32,60.0060006,60fc0722f872d38b39a82c8d,626b377229c10585ec392f89,626b3b0f327281b47670ba1f,,,,,,,,,,,,,,,,,,,,,,,a,1,"[""0.164"",""0.638"",""0.701"",""0.930""]","[1,0,1,1]",0,37,37,37,1,0,1,,,1,FALSE,7.358,,,,,,,,,,,,,,,,,,,,,,,,,,,,,,
,One,001,2022-04-29_03h15.01.961,classification_task,2021.2.3,Win32,60.0060006,60fc0722f872d38b39a82c8d,626b377229c10585ec392f89,626b3b0f327281b47670ba1f,,,,,,,,,,,,,,,,,,,,,,,l,1,"[""0.025"",""0.218"",""0.119"",""0.737""]","[1,1,0,1]",0,38,38,38,1,1,0,,,1,FALSE,5.2682,,,,,,,,,,,,,,,,,,,,,,,,,,,,,,
,One,001,2022-04-29_03h15.01.961,classification_task,2021.2.3,Win32,60.0060006,60fc0722f872d38b39a82c8d,626b377229c10585ec392f89,626b3b0f327281b47670ba1f,,,,,,,,,,,,,,,,,,,,,,,a,0,"[""0.064"",""0.365"",""0.583"",""0.294""]","[1,1,1,0]",0,39,39,39,1,1,1,,,1,FALSE,2.2404,,,,,,,,,,,,,,,,,,,,,,,,,,,,,,
,One,001,2022-04-29_03h15.01.961,classification_task,2021.2.3,Win32,60.0060006,60fc0722f872d38b39a82c8d,626b377229c10585ec392f89,626b3b0f327281b47670ba1f,,,,,,,,,,,,,,,,,,,,,,,a,1,"[""0.644"",""0.332"",""0.701"",""0.930""]","[0,1,1,1]",0,40,40,40,1,0,1,,,1,FALSE,4.21,,,,,,,,,,,,,,,,,,,,,,,,,,,,,,
,One,001,2022-04-29_03h15.01.961,classification_task,2021.2.3,Win32,60.0060006,60fc0722f872d38b39a82c8d,626b377229c10585ec392f89,626b3b0f327281b47670ba1f,,,,,,,,,,,,,,,,,,,,,,,l,1,"[""0.025"",""0.218"",""0.522"",""0.820""]","[1,1,1,0]",0,41,41,41,1,1,0,,,1,FALSE,1.2304,,,,,,,,,,,,,,,,,,,,,,,,,,,,,,
,One,001,2022-04-29_03h15.01.961,classification_task,2021.2.3,Win32,60.0060006,60fc0722f872d38b39a82c8d,626b377229c10585ec392f89,626b3b0f327281b47670ba1f,,,,,,,,,,,,,,,,,,,,,,,l,1,"[""0.294"",""0.218"",""0.522"",""0.737""]","[0,1,1,1]",0,42,42,42,1,1,0,,,1,FALSE,1.5334,,,,,,,,,,,,,,,,,,,,,,,,,,,,,,
,One,001,2022-04-29_03h15.01.961,classification_task,2021.2.3,Win32,60.0060006,60fc0722f872d38b39a82c8d,626b377229c10585ec392f89,626b3b0f327281b47670ba1f,,,,,,,,,,,,,,,,,,,,,,,a,1,"[""0.164"",""0.332"",""0.629"",""0.930""]","[1,1,0,1]",0,43,43,43,1,0,1,,,1,FALSE,2.297,,,,,,,,,,,,,,,,,,,,,,,,,,,,,,
,One,001,2022-04-29_03h15.01.961,classification_task,2021.2.3,Win32,60.0060006,60fc0722f872d38b39a82c8d,626b377229c10585ec392f89,626b3b0f327281b47670ba1f,,,,,,,,,,,,,,,,,,,,,,,l,0,"[""0.640"",""0.448"",""0.886"",""0.973""]","[0,1,1,1]",0,44,44,44,1,0,0,,,1,FALSE,3.0796,,,,,,,,,,,,,,,,,,,,,,,,,,,,,,
,One,001,2022-04-29_03h15.01.961,classification_task,2021.2.3,Win32,60.0060006,60fc0722f872d38b39a82c8d,626b377229c10585ec392f89,626b3b0f327281b47670ba1f,,,,,,,,,,,,,,,,,,,,,,,a,1,"[""0.164"",""0.332"",""0.701"",""0.629""]","[1,1,1,0]",0,45,45,45,1,0,1,,,1,FALSE,1.6084,,,,,,,,,,,,,,,,,,,,,,,,,,,,,,
,One,001,2022-04-29_03h15.01.961,classification_task,2021.2.3,Win32,60.0060006,60fc0722f872d38b39a82c8d,626b377229c10585ec392f89,626b3b0f327281b47670ba1f,,,,,,,,,,,,,,,,,,,,,,,l,0,"[""0.252"",""0.448"",""0.294"",""0.973""]","[1,1,0,1]",0,46,46,46,1,0,0,,,1,FALSE,3.5289,,,,,,,,,,,,,,,,,,,,,,,,,,,,,,
,One,001,2022-04-29_03h15.01.961,classification_task,2021.2.3,Win32,60.0060006,60fc0722f872d38b39a82c8d,626b377229c10585ec392f89,626b3b0f327281b47670ba1f,,,,,,,,,,,,,,,,,,,,,,,a,0,"[""0.064"",""0.618"",""0.583"",""0.782""]","[1,0,1,1]",0,47,47,47,1,1,1,,,1,FALSE,2.0303,,,,,,,,,,,,,,,,,,,,,,,,,,,,,,
,One,001,2022-04-29_03h15.01.961,classification_task,2021.2.3,Win32,60.0060006,60fc0722f872d38b39a82c8d,626b377229c10585ec392f89,626b3b0f327281b47670ba1f,,,,,,,,,,,,,,,,,,,,,,,a,0,"[""0.025"",""0.218"",""0.522"",""0.618""]","[1,1,1,0]",0,48,48,48,1,1,0,,,1,FALSE,2.7813,,,,,,,,,,,,,,,,,,,,,,,,,,,,,,
,One,001,2022-04-29_03h15.01.961,classification_task,2021.2.3,Win32,60.0060006,60fc0722f872d38b39a82c8d,626b377229c10585ec392f89,626b3b0f327281b47670ba1f,,,,,,,,,,,,,,,,,,,,,,,a,1,"[""0.164"",""0.618"",""0.701"",""0.930""]","[1,0,1,1]",0,49,49,49,1,0,1,,,1,FALSE,3.1606,,,,,,,,,,,,,,,,,,,,,,,,,,,,,,
,One,001,2022-04-29_03h15.01.961,classification_task,2021.2.3,Win32,60.0060006,60fc0722f872d38b39a82c8d,626b377229c10585ec392f89,626b3b0f327281b47670ba1f,,,,,,,,,,,,,,,,,,,,,,,a,0,"[""0.025"",""0.218"",""0.119"",""0.737""]","[1,1,0,1]",0,50,50,50,1,1,0,,,1,FALSE,3.0996,,,,,,,,,,,,,,,,,,,,,,,,,,,,,,
,One,001,2022-04-29_03h15.01.961,classification_task,2021.2.3,Win32,60.0060006,60fc0722f872d38b39a82c8d,626b377229c10585ec392f89,626b3b0f327281b47670ba1f,,,,,,,,,,,,,,,,,,,,,,,a,1,"[""0.252"",""0.448"",""0.112"",""0.973""]","[1,1,0,1]",0,51,51,51,1,0,0,,,1,FALSE,0.7973,,,,,,,,,,,,,,,,,,,,,,,,,,,,,,
,One,001,2022-04-29_03h15.01.961,classification_task,2021.2.3,Win32,60.0060006,60fc0722f872d38b39a82c8d,626b377229c10585ec392f89,626b3b0f327281b47670ba1f,,,,,,,,,,,,,,,,,,,,,,,l,0,"[""0.846"",""0.332"",""0.701"",""0.930""]","[0,1,1,1]",0,52,52,52,1,0,1,,,1,FALSE,0.8944,,,,,,,,,,,,,,,,,,,,,,,,,,,,,,
,One,001,2022-04-29_03h15.01.961,classification_task,2021.2.3,Win32,60.0060006,60fc0722f872d38b39a82c8d,626b377229c10585ec392f89,626b3b0f327281b47670ba1f,,,,,,,,,,,,,,,,,,,,,,,a,0,"[""0.126"",""0.365"",""0.583"",""0.782""]","[0,1,1,1]",0,53,53,53,1,1,1,,,1,FALSE,1.2319,,,,,,,,,,,,,,,,,,,,,,,,,,,,,,
,One,001,2022-04-29_03h15.01.961,classification_task,2021.2.3,Win32,60.0060006,60fc0722f872d38b39a82c8d,626b377229c10585ec392f89,626b3b0f327281b47670ba1f,,,,,,,,,,,,,,,,,,,,,,,a,1,"[""0.164"",""0.332"",""0.618"",""0.930""]","[1,1,0,1]",0,54,54,54,1,0,1,,,1,FALSE,2.3817,,,,,,,,,,,,,,,,,,,,,,,,,,,,,,
,One,001,2022-04-29_03h15.01.961,classification_task,2021.2.3,Win32,60.0060006,60fc0722f872d38b39a82c8d,626b377229c10585ec392f89,626b3b0f327281b47670ba1f,,,,,,,,,,,,,,,,,,,,,,,l,1,"[""0.064"",""0.112"",""0.583"",""0.782""]","[1,0,1,1]",0,55,55,55,1,1,1,,,1,FALSE,1.0469,,,,,,,,,,,,,,,,,,,,,,,,,,,,,,
,One,001,2022-04-29_03h15.01.961,classification_task,2021.2.3,Win32,60.0060006,60fc0722f872d38b39a82c8d,626b377229c10585ec392f89,626b3b0f327281b47670ba1f,,,,,,,,,,,,,,,,,,,,,,,l,0,"[""0.252"",""0.448"",""0.886"",""0.126""]","[1,1,1,0]",0,56,56,56,1,0,0,,,1,FALSE,2.3402,,,,,,,,,,,,,,,,,,,,,,,,,,,,,,
,One,001,2022-04-29_03h15.01.961,classification_task,2021.2.3,Win32,60.0060006,60fc0722f872d38b39a82c8d,626b377229c10585ec392f89,626b3b0f327281b47670ba1f,,,,,,,,,,,,,,,,,,,,,,,a,1,"[""0.164"",""0.332"",""0.701"",""0.294""]","[1,1,1,0]",0,57,57,57,1,0,1,,,1,FALSE,1.0163,,,,,,,,,,,,,,,,,,,,,,,,,,,,,,
,One,001,2022-04-29_03h15.01.961,classification_task,2021.2.3,Win32,60.0060006,60fc0722f872d38b39a82c8d,626b377229c10585ec392f89,626b3b0f327281b47670ba1f,,,,,,,,,,,,,,,,,,,,,,,a,0,"[""0.064"",""0.365"",""0.846"",""0.782""]","[1,1,0,1]",0,58,58,58,1,1,1,,,1,FALSE,7.3203,,,,,,,,,,,,,,,,,,,,,,,,,,,,,,
,One,001,2022-04-29_03h15.01.961,classification_task,2021.2.3,Win32,60.0060006,60fc0722f872d38b39a82c8d,626b377229c10585ec392f89,626b3b0f327281b47670ba1f,,,,,,,,,,,,,,,,,,,,,,,a,1,"[""0.252"",""0.294"",""0.886"",""0.973""]","[1,0,1,1]",0,59,59,59,1,0,0,,,1,FALSE,4.6193,,,,,,,,,,,,,,,,,,,,,,,,,,,,,,
,One,001,2022-04-29_03h15.01.961,classification_task,2021.2.3,Win32,60.0060006,60fc0722f872d38b39a82c8d,626b377229c10585ec392f89,626b3b0f327281b47670ba1f,,,,,,,,,,,,,,,,,,,,,,,l,1,"[""0.294"",""0.218"",""0.522"",""0.737""]","[0,1,1,1]",0,60,60,60,1,1,0,,,1,FALSE,3.7206,,,,,,,,,,,,,,,,,,,,,,,,,,,,,,
,One,001,2022-04-29_03h15.01.961,classification_task,2021.2.3,Win32,60.0060006,60fc0722f872d38b39a82c8d,626b377229c10585ec392f89,626b3b0f327281b47670ba1f,,,,,,,,,,,,,,,,,,,,,,,a,0,"[""0.064"",""0.365"",""0.583"",""0.820""]","[1,1,1,0]",0,61,61,61,1,1,1,,,1,FALSE,1.7095,,,,,,,,,,,,,,,,,,,,,,,,,,,,,,
,One,001,2022-04-29_03h15.01.961,classification_task,2021.2.3,Win32,60.0060006,60fc0722f872d38b39a82c8d,626b377229c10585ec392f89,626b3b0f327281b47670ba1f,,,,,,,,,,,,,,,,,,,,,,,a,1,"[""0.112"",""0.448"",""0.886"",""0.973""]","[0,1,1,1]",0,62,62,62,1,0,0,,,1,FALSE,1.211,,,,,,,,,,,,,,,,,,,,,,,,,,,,,,
,One,001,2022-04-29_03h15.01.961,classification_task,2021.2.3,Win32,60.0060006,60fc0722f872d38b39a82c8d,626b377229c10585ec392f89,626b3b0f327281b47670ba1f,,,,,,,,,,,,,,,,,,,,,,,l,1,"[""0.025"",""0.629"",""0.522"",""0.737""]","[1,0,1,1]",0,63,63,63,1,1,0,,,1,FALSE,4.5354,,,,,,,,,,,,,,,,,,,,,,,,,,,,,,
,One,001,2022-04-29_03h15.01.961,classification_task,2021.2.3,Win32,60.0060006,60fc0722f872d38b39a82c8d,626b377229c10585ec392f89,626b3b0f327281b47670ba1f,,,,,,,,,,,,,,,,,,,,,,,,,,,,,,,,,,,,,,,0, ,,0,4.804036841,628.5974,0,0,0,0,1,2,1,,,,,,,,,,,,,,,,,
,One,001,2022-04-29_03h15.01.961,classification_task,2021.2.3,Win32,60.0060006,60fc0722f872d38b39a82c8d,626b377229c10585ec392f89,626b3b0f327281b47670ba1f,,,,,,,,,,,,,,,,,,,,,,,,,,,,,,,,,,,,,,,1,  ,,0,10,637.2878,0,0,0,0,1,2,1,,,,,,,,,,,,,,,,,
,One,001,2022-04-29_03h15.01.961,classification_task,2021.2.3,Win32,60.0060006,60fc0722f872d38b39a82c8d,626b377229c10585ec392f89,626b3b0f327281b47670ba1f,,,,,,,,,,,,,,,,,,,,,,,,,,,,,,,,,,,,,,,2,  ,,0,1.668626298,644.5268,0,0,0,0,1,2,1,,,,,,,,,,,,,,,,,
,One,001,2022-04-29_03h15.01.961,classification_task,2021.2.3,Win32,60.0060006,60fc0722f872d38b39a82c8d,626b377229c10585ec392f89,626b3b0f327281b47670ba1f,,,,,,,,,,,,,,,,,,,,,,,,,,,,,,,,,,,,,,,,,,,,,0,0,0,0,1,,1,,,,,,,,,,,,,,,,,
,One,001,2022-04-29_03h15.01.961,classification_task,2021.2.3,Win32,60.0060006,60fc0722f872d38b39a82c8d,626b377229c10585ec392f89,626b3b0f327281b47670ba1f,,,,,,,,,,,,,,,,,,,,,space,10.7374,a,1,"[""0.633"",""0.332"",""0.701"",""0.930""]","[0,1,1,1]",0,0,0,0,1,0,1,,,1,FALSE,5.3098,,,,,,,,,,,,,,,,,,,,,,,,,,,,,,
,One,001,2022-04-29_03h15.01.961,classification_task,2021.2.3,Win32,60.0060006,60fc0722f872d38b39a82c8d,626b377229c10585ec392f89,626b3b0f327281b47670ba1f,,,,,,,,,,,,,,,,,,,,,,,l,1,"[""0.064"",""0.365"",""0.583"",""0.820""]","[1,1,1,0]",0,1,1,1,1,1,1,,,1,FALSE,2.8661,,,,,,,,,,,,,,,,,,,,,,,,,,,,,,
,One,001,2022-04-29_03h15.01.961,classification_task,2021.2.3,Win32,60.0060006,60fc0722f872d38b39a82c8d,626b377229c10585ec392f89,626b3b0f327281b47670ba1f,,,,,,,,,,,,,,,,,,,,,,,a,0,"[""0.633"",""0.218"",""0.522"",""0.737""]","[0,1,1,1]",0,2,2,2,1,1,0,,,1,FALSE,5.3347,,,,,,,,,,,,,,,,,,,,,,,,,,,,,,
,One,001,2022-04-29_03h15.01.961,classification_task,2021.2.3,Win32,60.0060006,60fc0722f872d38b39a82c8d,626b377229c10585ec392f89,626b3b0f327281b47670ba1f,,,,,,,,,,,,,,,,,,,,,,,a,0,"[""0.025"",""0.126"",""0.522"",""0.737""]","[1,0,1,1]",0,3,3,3,1,1,0,,,1,FALSE,0.898,,,,,,,,,,,,,,,,,,,,,,,,,,,,,,
,One,001,2022-04-29_03h15.01.961,classification_task,2021.2.3,Win32,60.0060006,60fc0722f872d38b39a82c8d,626b377229c10585ec392f89,626b3b0f327281b47670ba1f,,,,,,,,,,,,,,,,,,,,,,,,0,"[""0.252"",""0.846"",""0.886"",""0.973""]","[1,0,1,1]",0,4,4,4,1,0,0,,,1,FALSE,,,,,,,,,,,,,,,,,,,,,,,,,,,,,,,
,One,001,2022-04-29_03h15.01.961,classification_task,2021.2.3,Win32,60.0060006,60fc0722f872d38b39a82c8d,626b377229c10585ec392f89,626b3b0f327281b47670ba1f,,,,,,,,,,,,,,,,,,,,,,,a,0,"[""0.025"",""0.218"",""0.820"",""0.737""]","[1,1,0,1]",0,5,5,5,1,1,0,,,1,FALSE,2.3816,,,,,,,,,,,,,,,,,,,,,,,,,,,,,,
,One,001,2022-04-29_03h15.01.961,classification_task,2021.2.3,Win32,60.0060006,60fc0722f872d38b39a82c8d,626b377229c10585ec392f89,626b3b0f327281b47670ba1f,,,,,,,,,,,,,,,,,,,,,,,l,1,"[""0.064"",""0.641"",""0.583"",""0.782""]","[1,0,1,1]",0,6,6,6,1,1,1,,,1,FALSE,5.8783,,,,,,,,,,,,,,,,,,,,,,,,,,,,,,
,One,001,2022-04-29_03h15.01.961,classification_task,2021.2.3,Win32,60.0060006,60fc0722f872d38b39a82c8d,626b377229c10585ec392f89,626b3b0f327281b47670ba1f,,,,,,,,,,,,,,,,,,,,,,,a,1,"[""0.164"",""0.626"",""0.701"",""0.930""]","[1,0,1,1]",0,7,7,7,1,0,1,,,1,FALSE,3.8485,,,,,,,,,,,,,,,,,,,,,,,,,,,,,,
,One,001,2022-04-29_03h15.01.961,classification_task,2021.2.3,Win32,60.0060006,60fc0722f872d38b39a82c8d,626b377229c10585ec392f89,626b3b0f327281b47670ba1f,,,,,,,,,,,,,,,,,,,,,,,a,1,"[""0.164"",""0.332"",""0.119"",""0.930""]","[1,1,0,1]",0,8,8,8,1,0,1,,,1,FALSE,4.001,,,,,,,,,,,,,,,,,,,,,,,,,,,,,,
,One,001,2022-04-29_03h15.01.961,classification_task,2021.2.3,Win32,60.0060006,60fc0722f872d38b39a82c8d,626b377229c10585ec392f89,626b3b0f327281b47670ba1f,,,,,,,,,,,,,,,,,,,,,,,l,1,"[""0.644"",""0.365"",""0.583"",""0.782""]","[0,1,1,1]",0,9,9,9,1,1,1,,,1,FALSE,3.1016,,,,,,,,,,,,,,,,,,,,,,,,,,,,,,
,One,001,2022-04-29_03h15.01.961,classification_task,2021.2.3,Win32,60.0060006,60fc0722f872d38b39a82c8d,626b377229c10585ec392f89,626b3b0f327281b47670ba1f,,,,,,,,,,,,,,,,,,,,,,,a,1,"[""0.252"",""0.448"",""0.629"",""0.973""]","[1,1,0,1]",0,10,10,10,1,0,0,,,1,FALSE,3.7802,,,,,,,,,,,,,,,,,,,,,,,,,,,,,,
,One,001,2022-04-29_03h15.01.961,classification_task,2021.2.3,Win32,60.0060006,60fc0722f872d38b39a82c8d,626b377229c10585ec392f89,626b3b0f327281b47670ba1f,,,,,,,,,,,,,,,,,,,,,,,a,1,"[""0.252"",""0.448"",""0.886"",""0.644""]","[1,1,1,0]",0,11,11,11,1,0,0,,,1,FALSE,2.7719,,,,,,,,,,,,,,,,,,,,,,,,,,,,,,
,One,001,2022-04-29_03h15.01.961,classification_task,2021.2.3,Win32,60.0060006,60fc0722f872d38b39a82c8d,626b377229c10585ec392f89,626b3b0f327281b47670ba1f,,,,,,,,,,,,,,,,,,,,,,,l,1,"[""0.025"",""0.218"",""0.522"",""0.626""]","[1,1,1,0]",0,12,12,12,1,1,0,,,1,FALSE,1.2871,,,,,,,,,,,,,,,,,,,,,,,,,,,,,,
,One,001,2022-04-29_03h15.01.961,classification_task,2021.2.3,Win32,60.0060006,60fc0722f872d38b39a82c8d,626b377229c10585ec392f89,626b3b0f327281b47670ba1f,,,,,,,,,,,,,,,,,,,,,,,l,1,"[""0.064"",""0.365"",""0.641"",""0.782""]","[1,1,0,1]",0,13,13,13,1,1,1,,,1,FALSE,5.3981,,,,,,,,,,,,,,,,,,,,,,,,,,,,,,
,One,001,2022-04-29_03h15.01.961,classification_task,2021.2.3,Win32,60.0060006,60fc0722f872d38b39a82c8d,626b377229c10585ec392f89,626b3b0f327281b47670ba1f,,,,,,,,,,,,,,,,,,,,,,,a,1,"[""0.126"",""0.448"",""0.886"",""0.973""]","[0,1,1,1]",0,14,14,14,1,0,0,,,1,FALSE,4.0697,,,,,,,,,,,,,,,,,,,,,,,,,,,,,,
,One,001,2022-04-29_03h15.01.961,classification_task,2021.2.3,Win32,60.0060006,60fc0722f872d38b39a82c8d,626b377229c10585ec392f89,626b3b0f327281b47670ba1f,,,,,,,,,,,,,,,,,,,,,,,a,1,"[""0.164"",""0.332"",""0.701"",""0.633""]","[1,1,1,0]",0,15,15,15,1,0,1,,,1,FALSE,5.5632,,,,,,,,,,,,,,,,,,,,,,,,,,,,,,
,One,001,2022-04-29_03h15.01.961,classification_task,2021.2.3,Win32,60.0060006,60fc0722f872d38b39a82c8d,626b377229c10585ec392f89,626b3b0f327281b47670ba1f,,,,,,,,,,,,,,,,,,,,,,,a,1,"[""0.164"",""0.640"",""0.701"",""0.930""]","[1,0,1,1]",0,16,16,16,1,0,1,,,1,FALSE,4.0705,,,,,,,,,,,,,,,,,,,,,,,,,,,,,,
,One,001,2022-04-29_03h15.01.961,classification_task,2021.2.3,Win32,60.0060006,60fc0722f872d38b39a82c8d,626b377229c10585ec392f89,626b3b0f327281b47670ba1f,,,,,,,,,,,,,,,,,,,,,,,l,0,"[""0.640"",""0.448"",""0.886"",""0.973""]","[0,1,1,1]",0,17,17,17,1,0,0,,,1,FALSE,3.3192,,,,,,,,,,,,,,,,,,,,,,,,,,,,,,
,One,001,2022-04-29_03h15.01.961,classification_task,2021.2.3,Win32,60.0060006,60fc0722f872d38b39a82c8d,626b377229c10585ec392f89,626b3b0f327281b47670ba1f,,,,,,,,,,,,,,,,,,,,,,,a,1,"[""0.164"",""0.332"",""0.701"",""0.629""]","[1,1,1,0]",0,18,18,18,1,0,1,,,1,FALSE,3.2229,,,,,,,,,,,,,,,,,,,,,,,,,,,,,,
,One,001,2022-04-29_03h15.01.961,classification_task,2021.2.3,Win32,60.0060006,60fc0722f872d38b39a82c8d,626b377229c10585ec392f89,626b3b0f327281b47670ba1f,,,,,,,,,,,,,,,,,,,,,,,l,1,"[""0.294"",""0.365"",""0.583"",""0.782""]","[0,1,1,1]",0,19,19,19,1,1,1,,,1,FALSE,3.434,,,,,,,,,,,,,,,,,,,,,,,,,,,,,,
,One,001,2022-04-29_03h15.01.961,classification_task,2021.2.3,Win32,60.0060006,60fc0722f872d38b39a82c8d,626b377229c10585ec392f89,626b3b0f327281b47670ba1f,,,,,,,,,,,,,,,,,,,,,,,a,1,"[""0.252"",""0.448"",""0.886"",""0.640""]","[1,1,1,0]",0,20,20,20,1,0,0,,,1,FALSE,5.6882,,,,,,,,,,,,,,,,,,,,,,,,,,,,,,
,One,001,2022-04-29_03h15.01.961,classification_task,2021.2.3,Win32,60.0060006,60fc0722f872d38b39a82c8d,626b377229c10585ec392f89,626b3b0f327281b47670ba1f,,,,,,,,,,,,,,,,,,,,,,,l,1,"[""0.025"",""0.644"",""0.522"",""0.737""]","[1,0,1,1]",0,21,21,21,1,1,0,,,1,FALSE,1.7844,,,,,,,,,,,,,,,,,,,,,,,,,,,,,,
,One,001,2022-04-29_03h15.01.961,classification_task,2021.2.3,Win32,60.0060006,60fc0722f872d38b39a82c8d,626b377229c10585ec392f89,626b3b0f327281b47670ba1f,,,,,,,,,,,,,,,,,,,,,,,l,1,"[""0.025"",""0.218"",""0.632"",""0.737""]","[1,1,0,1]",0,22,22,22,1,1,0,,,1,FALSE,4.4813,,,,,,,,,,,,,,,,,,,,,,,,,,,,,,
,One,001,2022-04-29_03h15.01.961,classification_task,2021.2.3,Win32,60.0060006,60fc0722f872d38b39a82c8d,626b377229c10585ec392f89,626b3b0f327281b47670ba1f,,,,,,,,,,,,,,,,,,,,,,,l,1,"[""0.064"",""0.365"",""0.618"",""0.782""]","[1,1,0,1]",0,23,23,23,1,1,1,,,1,FALSE,4.3141,,,,,,,,,,,,,,,,,,,,,,,,,,,,,,
,One,001,2022-04-29_03h15.01.961,classification_task,2021.2.3,Win32,60.0060006,60fc0722f872d38b39a82c8d,626b377229c10585ec392f89,626b3b0f327281b47670ba1f,,,,,,,,,,,,,,,,,,,,,,,a,1,"[""0.252"",""0.448"",""0.629"",""0.973""]","[1,1,0,1]",0,24,24,24,1,0,0,,,1,FALSE,3.9153,,,,,,,,,,,,,,,,,,,,,,,,,,,,,,
,One,001,2022-04-29_03h15.01.961,classification_task,2021.2.3,Win32,60.0060006,60fc0722f872d38b39a82c8d,626b377229c10585ec392f89,626b3b0f327281b47670ba1f,,,,,,,,,,,,,,,,,,,,,,,a,1,"[""0.164"",""0.332"",""0.629"",""0.930""]","[1,1,0,1]",0,25,25,25,1,0,1,,,1,FALSE,4.3381,,,,,,,,,,,,,,,,,,,,,,,,,,,,,,
,One,001,2022-04-29_03h15.01.961,classification_task,2021.2.3,Win32,60.0060006,60fc0722f872d38b39a82c8d,626b377229c10585ec392f89,626b3b0f327281b47670ba1f,,,,,,,,,,,,,,,,,,,,,,,a,1,"[""0.126"",""0.332"",""0.701"",""0.930""]","[0,1,1,1]",0,26,26,26,1,0,1,,,1,FALSE,5.288,,,,,,,,,,,,,,,,,,,,,,,,,,,,,,
,One,001,2022-04-29_03h15.01.961,classification_task,2021.2.3,Win32,60.0060006,60fc0722f872d38b39a82c8d,626b377229c10585ec392f89,626b3b0f327281b47670ba1f,,,,,,,,,,,,,,,,,,,,,,,l,1,"[""0.064"",""0.365"",""0.583"",""0.126""]","[1,1,1,0]",0,27,27,27,1,1,1,,,1,FALSE,3.0428,,,,,,,,,,,,,,,,,,,,,,,,,,,,,,
,One,001,2022-04-29_03h15.01.961,classification_task,2021.2.3,Win32,60.0060006,60fc0722f872d38b39a82c8d,626b377229c10585ec392f89,626b3b0f327281b47670ba1f,,,,,,,,,,,,,,,,,,,,,,,a,1,"[""0.252"",""0.294"",""0.886"",""0.973""]","[1,0,1,1]",0,28,28,28,1,0,0,,,1,FALSE,2.9053,,,,,,,,,,,,,,,,,,,,,,,,,,,,,,
,One,001,2022-04-29_03h15.01.961,classification_task,2021.2.3,Win32,60.0060006,60fc0722f872d38b39a82c8d,626b377229c10585ec392f89,626b3b0f327281b47670ba1f,,,,,,,,,,,,,,,,,,,,,,,l,1,"[""0.025"",""0.218"",""0.522"",""0.820""]","[1,1,1,0]",0,29,29,29,1,1,0,,,1,FALSE,1.342,,,,,,,,,,,,,,,,,,,,,,,,,,,,,,
,One,001,2022-04-29_03h15.01.961,classification_task,2021.2.3,Win32,60.0060006,60fc0722f872d38b39a82c8d,626b377229c10585ec392f89,626b3b0f327281b47670ba1f,,,,,,,,,,,,,,,,,,,,,,,a,0,"[""0.626"",""0.218"",""0.522"",""0.737""]","[0,1,1,1]",0,30,30,30,1,1,0,,,1,FALSE,1.3323,,,,,,,,,,,,,,,,,,,,,,,,,,,,,,
,One,001,2022-04-29_03h15.01.961,classification_task,2021.2.3,Win32,60.0060006,60fc0722f872d38b39a82c8d,626b377229c10585ec392f89,626b3b0f327281b47670ba1f,,,,,,,,,,,,,,,,,,,,,,,l,1,"[""0.064"",""0.820"",""0.583"",""0.782""]","[1,0,1,1]",0,31,31,31,1,1,1,,,1,FALSE,2.8815,,,,,,,,,,,,,,,,,,,,,,,,,,,,,,
,One,001,2022-04-29_03h15.01.961,classification_task,2021.2.3,Win32,60.0060006,60fc0722f872d38b39a82c8d,626b377229c10585ec392f89,626b3b0f327281b47670ba1f,,,,,,,,,,,,,,,,,,,,,,,a,1,"[""0.252"",""0.294"",""0.886"",""0.973""]","[1,0,1,1]",0,32,32,32,1,0,0,,,1,FALSE,3.2338,,,,,,,,,,,,,,,,,,,,,,,,,,,,,,
,One,001,2022-04-29_03h15.01.961,classification_task,2021.2.3,Win32,60.0060006,60fc0722f872d38b39a82c8d,626b377229c10585ec392f89,626b3b0f327281b47670ba1f,,,,,,,,,,,,,,,,,,,,,,,l,1,"[""0.633"",""0.218"",""0.522"",""0.737""]","[0,1,1,1]",0,33,33,33,1,1,0,,,1,FALSE,3.3615,,,,,,,,,,,,,,,,,,,,,,,,,,,,,,
,One,001,2022-04-29_03h15.01.961,classification_task,2021.2.3,Win32,60.0060006,60fc0722f872d38b39a82c8d,626b377229c10585ec392f89,626b3b0f327281b47670ba1f,,,,,,,,,,,,,,,,,,,,,,,l,1,"[""0.025"",""0.119"",""0.522"",""0.737""]","[1,0,1,1]",0,34,34,34,1,1,0,,,1,FALSE,1.3794,,,,,,,,,,,,,,,,,,,,,,,,,,,,,,
,One,001,2022-04-29_03h15.01.961,classification_task,2021.2.3,Win32,60.0060006,60fc0722f872d38b39a82c8d,626b377229c10585ec392f89,626b3b0f327281b47670ba1f,,,,,,,,,,,,,,,,,,,,,,,l,1,"[""0.025"",""0.218"",""0.641"",""0.737""]","[1,1,0,1]",0,35,35,35,1,1,0,,,1,FALSE,1.6942,,,,,,,,,,,,,,,,,,,,,,,,,,,,,,
,One,001,2022-04-29_03h15.01.961,classification_task,2021.2.3,Win32,60.0060006,60fc0722f872d38b39a82c8d,626b377229c10585ec392f89,626b3b0f327281b47670ba1f,,,,,,,,,,,,,,,,,,,,,,,a,1,"[""0.164"",""0.112"",""0.701"",""0.930""]","[1,0,1,1]",0,36,36,36,1,0,1,,,1,FALSE,6.2459,,,,,,,,,,,,,,,,,,,,,,,,,,,,,,
,One,001,2022-04-29_03h15.01.961,classification_task,2021.2.3,Win32,60.0060006,60fc0722f872d38b39a82c8d,626b377229c10585ec392f89,626b3b0f327281b47670ba1f,,,,,,,,,,,,,,,,,,,,,,,l,0,"[""0.641"",""0.448"",""0.886"",""0.973""]","[0,1,1,1]",0,37,37,37,1,0,0,,,1,FALSE,3.6729,,,,,,,,,,,,,,,,,,,,,,,,,,,,,,
,One,001,2022-04-29_03h15.01.961,classification_task,2021.2.3,Win32,60.0060006,60fc0722f872d38b39a82c8d,626b377229c10585ec392f89,626b3b0f327281b47670ba1f,,,,,,,,,,,,,,,,,,,,,,,l,1,"[""0.025"",""0.218"",""0.522"",""0.633""]","[1,1,1,0]",0,38,38,38,1,1,0,,,1,FALSE,1.4737,,,,,,,,,,,,,,,,,,,,,,,,,,,,,,
,One,001,2022-04-29_03h15.01.961,classification_task,2021.2.3,Win32,60.0060006,60fc0722f872d38b39a82c8d,626b377229c10585ec392f89,626b3b0f327281b47670ba1f,,,,,,,,,,,,,,,,,,,,,,,a,1,"[""0.164"",""0.332"",""0.626"",""0.930""]","[1,1,0,1]",0,39,39,39,1,0,1,,,1,FALSE,5.1371,,,,,,,,,,,,,,,,,,,,,,,,,,,,,,
,One,001,2022-04-29_03h15.01.961,classification_task,2021.2.3,Win32,60.0060006,60fc0722f872d38b39a82c8d,626b377229c10585ec392f89,626b3b0f327281b47670ba1f,,,,,,,,,,,,,,,,,,,,,,,l,1,"[""0.064"",""0.365"",""0.583"",""0.633""]","[1,1,1,0]",0,40,40,40,1,1,1,,,1,FALSE,3.5264,,,,,,,,,,,,,,,,,,,,,,,,,,,,,,
,One,001,2022-04-29_03h15.01.961,classification_task,2021.2.3,Win32,60.0060006,60fc0722f872d38b39a82c8d,626b377229c10585ec392f89,626b3b0f327281b47670ba1f,,,,,,,,,,,,,,,,,,,,,,,a,1,"[""0.164"",""0.332"",""0.701"",""0.640""]","[1,1,1,0]",0,41,41,41,1,0,1,,,1,FALSE,4.1739,,,,,,,,,,,,,,,,,,,,,,,,,,,,,,
,One,001,2022-04-29_03h15.01.961,classification_task,2021.2.3,Win32,60.0060006,60fc0722f872d38b39a82c8d,626b377229c10585ec392f89,626b3b0f327281b47670ba1f,,,,,,,,,,,,,,,,,,,,,,,l,1,"[""0.064"",""0.365"",""0.294"",""0.782""]","[1,1,0,1]",0,42,42,42,1,1,1,,,1,FALSE,3.3254,,,,,,,,,,,,,,,,,,,,,,,,,,,,,,
,One,001,2022-04-29_03h15.01.961,classification_task,2021.2.3,Win32,60.0060006,60fc0722f872d38b39a82c8d,626b377229c10585ec392f89,626b3b0f327281b47670ba1f,,,,,,,,,,,,,,,,,,,,,,,a,1,"[""0.638"",""0.332"",""0.701"",""0.930""]","[0,1,1,1]",0,43,43,43,1,0,1,,,1,FALSE,2.1126,,,,,,,,,,,,,,,,,,,,,,,,,,,,,,
,One,001,2022-04-29_03h15.01.961,classification_task,2021.2.3,Win32,60.0060006,60fc0722f872d38b39a82c8d,626b377229c10585ec392f89,626b3b0f327281b47670ba1f,,,,,,,,,,,,,,,,,,,,,,,l,1,"[""0.119"",""0.365"",""0.583"",""0.782""]","[0,1,1,1]",0,44,44,44,1,1,1,,,1,FALSE,1.9947,,,,,,,,,,,,,,,,,,,,,,,,,,,,,,
,One,001,2022-04-29_03h15.01.961,classification_task,2021.2.3,Win32,60.0060006,60fc0722f872d38b39a82c8d,626b377229c10585ec392f89,626b3b0f327281b47670ba1f,,,,,,,,,,,,,,,,,,,,,,,l,1,"[""0.064"",""0.626"",""0.583"",""0.782""]","[1,0,1,1]",0,45,45,45,1,1,1,,,1,FALSE,1.1171,,,,,,,,,,,,,,,,,,,,,,,,,,,,,,
,One,001,2022-04-29_03h15.01.961,classification_task,2021.2.3,Win32,60.0060006,60fc0722f872d38b39a82c8d,626b377229c10585ec392f89,626b3b0f327281b47670ba1f,,,,,,,,,,,,,,,,,,,,,,,a,1,"[""0.252"",""0.448"",""0.886"",""0.626""]","[1,1,1,0]",0,46,46,46,1,0,0,,,1,FALSE,3.698,,,,,,,,,,,,,,,,,,,,,,,,,,,,,,
,One,001,2022-04-29_03h15.01.961,classification_task,2021.2.3,Win32,60.0060006,60fc0722f872d38b39a82c8d,626b377229c10585ec392f89,626b3b0f327281b47670ba1f,,,,,,,,,,,,,,,,,,,,,,,l,0,"[""0.252"",""0.448"",""0.846"",""0.973""]","[1,1,0,1]",0,47,47,47,1,0,0,,,1,FALSE,3.2964,,,,,,,,,,,,,,,,,,,,,,,,,,,,,,
,One,001,2022-04-29_03h15.01.961,classification_task,2021.2.3,Win32,60.0060006,60fc0722f872d38b39a82c8d,626b377229c10585ec392f89,626b3b0f327281b47670ba1f,,,,,,,,,,,,,,,,,,,,,,,a,1,"[""0.644"",""0.448"",""0.886"",""0.973""]","[0,1,1,1]",0,48,48,48,1,0,0,,,1,FALSE,2.3061,,,,,,,,,,,,,,,,,,,,,,,,,,,,,,
,One,001,2022-04-29_03h15.01.961,classification_task,2021.2.3,Win32,60.0060006,60fc0722f872d38b39a82c8d,626b377229c10585ec392f89,626b3b0f327281b47670ba1f,,,,,,,,,,,,,,,,,,,,,,,l,1,"[""0.025"",""0.218"",""0.522"",""0.618""]","[1,1,1,0]",0,49,49,49,1,1,0,,,1,FALSE,1.0793,,,,,,,,,,,,,,,,,,,,,,,,,,,,,,
,One,001,2022-04-29_03h15.01.961,classification_task,2021.2.3,Win32,60.0060006,60fc0722f872d38b39a82c8d,626b377229c10585ec392f89,626b3b0f327281b47670ba1f,,,,,,,,,,,,,,,,,,,,,,,a,1,"[""0.252"",""0.448"",""0.846"",""0.973""]","[1,1,0,1]",0,50,50,50,1,0,0,,,1,FALSE,2.3367,,,,,,,,,,,,,,,,,,,,,,,,,,,,,,
,One,001,2022-04-29_03h15.01.961,classification_task,2021.2.3,Win32,60.0060006,60fc0722f872d38b39a82c8d,626b377229c10585ec392f89,626b3b0f327281b47670ba1f,,,,,,,,,,,,,,,,,,,,,,,l,1,"[""0.126"",""0.365"",""0.583"",""0.782""]","[0,1,1,1]",0,51,51,51,1,1,1,,,1,FALSE,1.2244,,,,,,,,,,,,,,,,,,,,,,,,,,,,,,
,One,001,2022-04-29_03h15.01.961,classification_task,2021.2.3,Win32,60.0060006,60fc0722f872d38b39a82c8d,626b377229c10585ec392f89,626b3b0f327281b47670ba1f,,,,,,,,,,,,,,,,,,,,,,,a,1,"[""0.164"",""0.820"",""0.701"",""0.930""]","[1,0,1,1]",0,52,52,52,1,0,1,,,1,FALSE,3.5242,,,,,,,,,,,,,,,,,,,,,,,,,,,,,,
,One,001,2022-04-29_03h15.01.961,classification_task,2021.2.3,Win32,60.0060006,60fc0722f872d38b39a82c8d,626b377229c10585ec392f89,626b3b0f327281b47670ba1f,,,,,,,,,,,,,,,,,,,,,,,a,0,"[""0.846"",""0.218"",""0.522"",""0.737""]","[0,1,1,1]",0,53,53,53,1,1,0,,,1,FALSE,3.1443,,,,,,,,,,,,,,,,,,,,,,,,,,,,,,
,One,001,2022-04-29_03h15.01.961,classification_task,2021.2.3,Win32,60.0060006,60fc0722f872d38b39a82c8d,626b377229c10585ec392f89,626b3b0f327281b47670ba1f,,,,,,,,,,,,,,,,,,,,,,,l,1,"[""0.025"",""0.218"",""0.112"",""0.737""]","[1,1,0,1]",0,54,54,54,1,1,0,,,1,FALSE,0.9278,,,,,,,,,,,,,,,,,,,,,,,,,,,,,,
,One,001,2022-04-29_03h15.01.961,classification_task,2021.2.3,Win32,60.0060006,60fc0722f872d38b39a82c8d,626b377229c10585ec392f89,626b3b0f327281b47670ba1f,,,,,,,,,,,,,,,,,,,,,,,a,1,"[""0.164"",""0.332"",""0.701"",""0.641""]","[1,1,1,0]",0,55,55,55,1,0,1,,,1,FALSE,1.4073,,,,,,,,,,,,,,,,,,,,,,,,,,,,,,
,One,001,2022-04-29_03h15.01.961,classification_task,2021.2.3,Win32,60.0060006,60fc0722f872d38b39a82c8d,626b377229c10585ec392f89,626b3b0f327281b47670ba1f,,,,,,,,,,,,,,,,,,,,,,,a,1,"[""0.164"",""0.332"",""0.294"",""0.930""]","[1,1,0,1]",0,56,56,56,1,0,1,,,1,FALSE,0.8639,,,,,,,,,,,,,,,,,,,,,,,,,,,,,,
,One,001,2022-04-29_03h15.01.961,classification_task,2021.2.3,Win32,60.0060006,60fc0722f872d38b39a82c8d,626b377229c10585ec392f89,626b3b0f327281b47670ba1f,,,,,,,,,,,,,,,,,,,,,,,l,1,"[""0.025"",""0.126"",""0.522"",""0.737""]","[1,0,1,1]",0,57,57,57,1,1,0,,,1,FALSE,1.3921,,,,,,,,,,,,,,,,,,,,,,,,,,,,,,
,One,001,2022-04-29_03h15.01.961,classification_task,2021.2.3,Win32,60.0060006,60fc0722f872d38b39a82c8d,626b377229c10585ec392f89,626b3b0f327281b47670ba1f,,,,,,,,,,,,,,,,,,,,,,,l,1,"[""0.064"",""0.365"",""0.119"",""0.782""]","[1,1,0,1]",0,58,58,58,1,1,1,,,1,FALSE,1.2311,,,,,,,,,,,,,,,,,,,,,,,,,,,,,,
,One,001,2022-04-29_03h15.01.961,classification_task,2021.2.3,Win32,60.0060006,60fc0722f872d38b39a82c8d,626b377229c10585ec392f89,626b3b0f327281b47670ba1f,,,,,,,,,,,,,,,,,,,,,,,l,1,"[""0.064"",""0.618"",""0.583"",""0.782""]","[1,0,1,1]",0,59,59,59,1,1,1,,,1,FALSE,0.7804,,,,,,,,,,,,,,,,,,,,,,,,,,,,,,
,One,001,2022-04-29_03h15.01.961,classification_task,2021.2.3,Win32,60.0060006,60fc0722f872d38b39a82c8d,626b377229c10585ec392f89,626b3b0f327281b47670ba1f,,,,,,,,,,,,,,,,,,,,,,,a,1,"[""0.252"",""0.119"",""0.886"",""0.973""]","[1,0,1,1]",0,60,60,60,1,0,0,,,1,FALSE,2.7284,,,,,,,,,,,,,,,,,,,,,,,,,,,,,,
,One,001,2022-04-29_03h15.01.961,classification_task,2021.2.3,Win32,60.0060006,60fc0722f872d38b39a82c8d,626b377229c10585ec392f89,626b3b0f327281b47670ba1f,,,,,,,,,,,,,,,,,,,,,,,a,1,"[""0.618"",""0.332"",""0.701"",""0.930""]","[0,1,1,1]",0,61,61,61,1,0,1,,,1,FALSE,0.7717,,,,,,,,,,,,,,,,,,,,,,,,,,,,,,
,One,001,2022-04-29_03h15.01.961,classification_task,2021.2.3,Win32,60.0060006,60fc0722f872d38b39a82c8d,626b377229c10585ec392f89,626b3b0f327281b47670ba1f,,,,,,,,,,,,,,,,,,,,,,,l,1,"[""0.064"",""0.365"",""0.583"",""0.618""]","[1,1,1,0]",0,62,62,62,1,1,1,,,1,FALSE,0.7421,,,,,,,,,,,,,,,,,,,,,,,,,,,,,,
,One,001,2022-04-29_03h15.01.961,classification_task,2021.2.3,Win32,60.0060006,60fc0722f872d38b39a82c8d,626b377229c10585ec392f89,626b3b0f327281b47670ba1f,,,,,,,,,,,,,,,,,,,,,,,a,1,"[""0.252"",""0.448"",""0.886"",""0.626""]","[1,1,1,0]",0,63,63,63,1,0,0,,,1,FALSE,1.9826,,,,,,,,,,,,,,,,,,,,,,,,,,,,,,
,One,001,2022-04-29_03h15.01.961,classification_task,2021.2.3,Win32,60.0060006,60fc0722f872d38b39a82c8d,626b377229c10585ec392f89,626b3b0f327281b47670ba1f,,,,,,,,,,,,,,,,,,,,,,,,,,,,,,,,,,,,,,,0, ,,0,9.262198707,279.6219,0,1,1,1,1,2,2,,,,,,,,,,,,,,,,,
,One,001,2022-04-29_03h15.01.961,classification_task,2021.2.3,Win32,60.0060006,60fc0722f872d38b39a82c8d,626b377229c10585ec392f89,626b3b0f327281b47670ba1f,,,,,,,,,,,,,,,,,,,,,,,,,,,,,,,,,,,,,,,1,  ,,0,10,294.2828,0,1,1,1,1,2,2,,,,,,,,,,,,,,,,,
,One,001,2022-04-29_03h15.01.961,classification_task,2021.2.3,Win32,60.0060006,60fc0722f872d38b39a82c8d,626b377229c10585ec392f89,626b3b0f327281b47670ba1f,,,,,,,,,,,,,,,,,,,,,,,,,,,,,,,,,,,,,,,2,  ,,0,10,295.8868,0,1,1,1,1,2,2,,,,,,,,,,,,,,,,,
,One,001,2022-04-29_03h15.01.961,classification_task,2021.2.3,Win32,60.0060006,60fc0722f872d38b39a82c8d,626b377229c10585ec392f89,626b3b0f327281b47670ba1f,,,,,,,,,,,,,,,,,,,,,,,,,,,,,,,,,,,,,,,,,,,,,0,1,1,1,1,,2,,,,,,,,,,,,,,,,,
,One,001,2022-04-29_03h15.01.961,classification_task,2021.2.3,Win32,60.0060006,60fc0722f872d38b39a82c8d,626b377229c10585ec392f89,626b3b0f327281b47670ba1f,,,,,,,,,,,,,,,,,,,,,space,10.5083,a,1,"[""0.164"",""0.332"",""0.112"",""0.930""]","[1,1,0,1]",0,0,0,0,1,0,1,,,1,FALSE,3.67,,,,,,,,,,,,,,,,,,,,,,,,,,,,,,
,One,001,2022-04-29_03h15.01.961,classification_task,2021.2.3,Win32,60.0060006,60fc0722f872d38b39a82c8d,626b377229c10585ec392f89,626b3b0f327281b47670ba1f,,,,,,,,,,,,,,,,,,,,,,,l,0,"[""0.164"",""0.126"",""0.701"",""0.930""]","[1,0,1,1]",0,1,1,1,1,0,1,,,1,FALSE,3.7899,,,,,,,,,,,,,,,,,,,,,,,,,,,,,,
,One,001,2022-04-29_03h15.01.961,classification_task,2021.2.3,Win32,60.0060006,60fc0722f872d38b39a82c8d,626b377229c10585ec392f89,626b3b0f327281b47670ba1f,,,,,,,,,,,,,,,,,,,,,,,l,1,"[""0.025"",""0.218"",""0.119"",""0.737""]","[1,1,0,1]",0,2,2,2,1,1,0,,,1,FALSE,0.9973,,,,,,,,,,,,,,,,,,,,,,,,,,,,,,
,One,001,2022-04-29_03h15.01.961,classification_task,2021.2.3,Win32,60.0060006,60fc0722f872d38b39a82c8d,626b377229c10585ec392f89,626b3b0f327281b47670ba1f,,,,,,,,,,,,,,,,,,,,,,,l,1,"[""0.064"",""0.365"",""0.119"",""0.782""]","[1,1,0,1]",0,3,3,3,1,1,1,,,1,FALSE,0.9219,,,,,,,,,,,,,,,,,,,,,,,,,,,,,,
,One,001,2022-04-29_03h15.01.961,classification_task,2021.2.3,Win32,60.0060006,60fc0722f872d38b39a82c8d,626b377229c10585ec392f89,626b3b0f327281b47670ba1f,,,,,,,,,,,,,,,,,,,,,,,a,1,"[""0.252"",""0.448"",""0.886"",""0.644""]","[1,1,1,0]",0,4,4,4,1,0,0,,,1,FALSE,0.819,,,,,,,,,,,,,,,,,,,,,,,,,,,,,,
,One,001,2022-04-29_03h15.01.961,classification_task,2021.2.3,Win32,60.0060006,60fc0722f872d38b39a82c8d,626b377229c10585ec392f89,626b3b0f327281b47670ba1f,,,,,,,,,,,,,,,,,,,,,,,a,0,"[""0.641"",""0.218"",""0.522"",""0.737""]","[0,1,1,1]",0,5,5,5,1,1,0,,,1,FALSE,1.4679,,,,,,,,,,,,,,,,,,,,,,,,,,,,,,
,One,001,2022-04-29_03h15.01.961,classification_task,2021.2.3,Win32,60.0060006,60fc0722f872d38b39a82c8d,626b377229c10585ec392f89,626b3b0f327281b47670ba1f,,,,,,,,,,,,,,,,,,,,,,,a,1,"[""0.638"",""0.332"",""0.701"",""0.930""]","[0,1,1,1]",0,6,6,6,1,0,1,,,1,FALSE,3.8192,,,,,,,,,,,,,,,,,,,,,,,,,,,,,,
,One,001,2022-04-29_03h15.01.961,classification_task,2021.2.3,Win32,60.0060006,60fc0722f872d38b39a82c8d,626b377229c10585ec392f89,626b3b0f327281b47670ba1f,,,,,,,,,,,,,,,,,,,,,,,a,1,"[""0.294"",""0.448"",""0.886"",""0.973""]","[0,1,1,1]",0,7,7,7,1,0,0,,,1,FALSE,3.3165,,,,,,,,,,,,,,,,,,,,,,,,,,,,,,
,One,001,2022-04-29_03h15.01.961,classification_task,2021.2.3,Win32,60.0060006,60fc0722f872d38b39a82c8d,626b377229c10585ec392f89,626b3b0f327281b47670ba1f,,,,,,,,,,,,,,,,,,,,,,,a,1,"[""0.252"",""0.638"",""0.886"",""0.973""]","[1,0,1,1]",0,8,8,8,1,0,0,,,1,FALSE,1.1502,,,,,,,,,,,,,,,,,,,,,,,,,,,,,,
,One,001,2022-04-29_03h15.01.961,classification_task,2021.2.3,Win32,60.0060006,60fc0722f872d38b39a82c8d,626b377229c10585ec392f89,626b3b0f327281b47670ba1f,,,,,,,,,,,,,,,,,,,,,,,l,0,"[""0.164"",""0.332"",""0.701"",""0.846""]","[1,1,1,0]",0,9,9,9,1,0,1,,,1,FALSE,1.1309,,,,,,,,,,,,,,,,,,,,,,,,,,,,,,
,One,001,2022-04-29_03h15.01.961,classification_task,2021.2.3,Win32,60.0060006,60fc0722f872d38b39a82c8d,626b377229c10585ec392f89,626b3b0f327281b47670ba1f,,,,,,,,,,,,,,,,,,,,,,,l,0,"[""0.252"",""0.448"",""0.618"",""0.973""]","[1,1,0,1]",0,10,10,10,1,0,0,,,1,FALSE,3.7712,,,,,,,,,,,,,,,,,,,,,,,,,,,,,,
,One,001,2022-04-29_03h15.01.961,classification_task,2021.2.3,Win32,60.0060006,60fc0722f872d38b39a82c8d,626b377229c10585ec392f89,626b3b0f327281b47670ba1f,,,,,,,,,,,,,,,,,,,,,,,l,1,"[""0.064"",""0.640"",""0.583"",""0.782""]","[1,0,1,1]",0,11,11,11,1,1,1,,,1,FALSE,0.8122,,,,,,,,,,,,,,,,,,,,,,,,,,,,,,
,One,001,2022-04-29_03h15.01.961,classification_task,2021.2.3,Win32,60.0060006,60fc0722f872d38b39a82c8d,626b377229c10585ec392f89,626b3b0f327281b47670ba1f,,,,,,,,,,,,,,,,,,,,,,,l,1,"[""0.025"",""0.218"",""0.522"",""0.633""]","[1,1,1,0]",0,12,12,12,1,1,0,,,1,FALSE,0.8288,,,,,,,,,,,,,,,,,,,,,,,,,,,,,,
,One,001,2022-04-29_03h15.01.961,classification_task,2021.2.3,Win32,60.0060006,60fc0722f872d38b39a82c8d,626b377229c10585ec392f89,626b3b0f327281b47670ba1f,,,,,,,,,,,,,,,,,,,,,,,l,1,"[""0.064"",""0.365"",""0.583"",""0.846""]","[1,1,1,0]",0,13,13,13,1,1,1,,,1,FALSE,1.2068,,,,,,,,,,,,,,,,,,,,,,,,,,,,,,
,One,001,2022-04-29_03h15.01.961,classification_task,2021.2.3,Win32,60.0060006,60fc0722f872d38b39a82c8d,626b377229c10585ec392f89,626b3b0f327281b47670ba1f,,,,,,,,,,,,,,,,,,,,,,,a,0,"[""0.294"",""0.365"",""0.583"",""0.782""]","[0,1,1,1]",0,14,14,14,1,1,1,,,1,FALSE,1.0805,,,,,,,,,,,,,,,,,,,,,,,,,,,,,,
,One,001,2022-04-29_03h15.01.961,classification_task,2021.2.3,Win32,60.0060006,60fc0722f872d38b39a82c8d,626b377229c10585ec392f89,626b3b0f327281b47670ba1f,,,,,,,,,,,,,,,,,,,,,,,l,1,"[""0.025"",""0.644"",""0.522"",""0.737""]","[1,0,1,1]",0,15,15,15,1,1,0,,,1,FALSE,0.9588,,,,,,,,,,,,,,,,,,,,,,,,,,,,,,
,One,001,2022-04-29_03h15.01.961,classification_task,2021.2.3,Win32,60.0060006,60fc0722f872d38b39a82c8d,626b377229c10585ec392f89,626b3b0f327281b47670ba1f,,,,,,,,,,,,,,,,,,,,,,,l,1,"[""0.025"",""0.218"",""0.522"",""0.846""]","[1,1,1,0]",0,16,16,16,1,1,0,,,1,FALSE,0.8666,,,,,,,,,,,,,,,,,,,,,,,,,,,,,,
,One,001,2022-04-29_03h15.01.961,classification_task,2021.2.3,Win32,60.0060006,60fc0722f872d38b39a82c8d,626b377229c10585ec392f89,626b3b0f327281b47670ba1f,,,,,,,,,,,,,,,,,,,,,,,a,1,"[""0.112"",""0.332"",""0.701"",""0.930""]","[0,1,1,1]",0,17,17,17,1,0,1,,,1,FALSE,2.5823,,,,,,,,,,,,,,,,,,,,,,,,,,,,,,
,One,001,2022-04-29_03h15.01.961,classification_task,2021.2.3,Win32,60.0060006,60fc0722f872d38b39a82c8d,626b377229c10585ec392f89,626b3b0f327281b47670ba1f,,,,,,,,,,,,,,,,,,,,,,,l,0,"[""0.164"",""0.641"",""0.701"",""0.930""]","[1,0,1,1]",0,18,18,18,1,0,1,,,1,FALSE,5.569,,,,,,,,,,,,,,,,,,,,,,,,,,,,,,
,One,001,2022-04-29_03h15.01.961,classification_task,2021.2.3,Win32,60.0060006,60fc0722f872d38b39a82c8d,626b377229c10585ec392f89,626b3b0f327281b47670ba1f,,,,,,,,,,,,,,,,,,,,,,,a,1,"[""0.252"",""0.448"",""0.126"",""0.973""]","[1,1,0,1]",0,19,19,19,1,0,0,,,1,FALSE,3.8032,,,,,,,,,,,,,,,,,,,,,,,,,,,,,,
,One,001,2022-04-29_03h15.01.961,classification_task,2021.2.3,Win32,60.0060006,60fc0722f872d38b39a82c8d,626b377229c10585ec392f89,626b3b0f327281b47670ba1f,,,,,,,,,,,,,,,,,,,,,,,a,1,"[""0.252"",""0.448"",""0.886"",""0.633""]","[1,1,1,0]",0,20,20,20,1,0,0,,,1,FALSE,3.101,,,,,,,,,,,,,,,,,,,,,,,,,,,,,,
,One,001,2022-04-29_03h15.01.961,classification_task,2021.2.3,Win32,60.0060006,60fc0722f872d38b39a82c8d,626b377229c10585ec392f89,626b3b0f327281b47670ba1f,,,,,,,,,,,,,,,,,,,,,,,l,0,"[""0.618"",""0.448"",""0.886"",""0.973""]","[0,1,1,1]",0,21,21,21,1,0,0,,,1,FALSE,2.9854,,,,,,,,,,,,,,,,,,,,,,,,,,,,,,
,One,001,2022-04-29_03h15.01.961,classification_task,2021.2.3,Win32,60.0060006,60fc0722f872d38b39a82c8d,626b377229c10585ec392f89,626b3b0f327281b47670ba1f,,,,,,,,,,,,,,,,,,,,,,,a,1,"[""0.252"",""0.294"",""0.886"",""0.973""]","[1,0,1,1]",0,22,22,22,1,0,0,,,1,FALSE,1.9433,,,,,,,,,,,,,,,,,,,,,,,,,,,,,,
,One,001,2022-04-29_03h15.01.961,classification_task,2021.2.3,Win32,60.0060006,60fc0722f872d38b39a82c8d,626b377229c10585ec392f89,626b3b0f327281b47670ba1f,,,,,,,,,,,,,,,,,,,,,,,l,1,"[""0.626"",""0.365"",""0.583"",""0.782""]","[0,1,1,1]",0,23,23,23,1,1,1,,,1,FALSE,1.7476,,,,,,,,,,,,,,,,,,,,,,,,,,,,,,
,One,001,2022-04-29_03h15.01.961,classification_task,2021.2.3,Win32,60.0060006,60fc0722f872d38b39a82c8d,626b377229c10585ec392f89,626b3b0f327281b47670ba1f,,,,,,,,,,,,,,,,,,,,,,,a,1,"[""0.164"",""0.332"",""0.701"",""0.629""]","[1,1,1,0]",0,24,24,24,1,0,1,,,1,FALSE,0.9928,,,,,,,,,,,,,,,,,,,,,,,,,,,,,,
,One,001,2022-04-29_03h15.01.961,classification_task,2021.2.3,Win32,60.0060006,60fc0722f872d38b39a82c8d,626b377229c10585ec392f89,626b3b0f327281b47670ba1f,,,,,,,,,,,,,,,,,,,,,,,l,1,"[""0.025"",""0.218"",""0.294"",""0.737""]","[1,1,0,1]",0,25,25,25,1,1,0,,,1,FALSE,1.4102,,,,,,,,,,,,,,,,,,,,,,,,,,,,,,
,One,001,2022-04-29_03h15.01.961,classification_task,2021.2.3,Win32,60.0060006,60fc0722f872d38b39a82c8d,626b377229c10585ec392f89,626b3b0f327281b47670ba1f,,,,,,,,,,,,,,,,,,,,,,,a,1,"[""0.164"",""0.332"",""0.644"",""0.930""]","[1,1,0,1]",0,26,26,26,1,0,1,,,1,FALSE,2.5283,,,,,,,,,,,,,,,,,,,,,,,,,,,,,,
,One,001,2022-04-29_03h15.01.961,classification_task,2021.2.3,Win32,60.0060006,60fc0722f872d38b39a82c8d,626b377229c10585ec392f89,626b3b0f327281b47670ba1f,,,,,,,,,,,,,,,,,,,,,,,l,1,"[""0.064"",""0.294"",""0.583"",""0.782""]","[1,0,1,1]",0,27,27,27,1,1,1,,,1,FALSE,1.1511,,,,,,,,,,,,,,,,,,,,,,,,,,,,,,
,One,001,2022-04-29_03h15.01.961,classification_task,2021.2.3,Win32,60.0060006,60fc0722f872d38b39a82c8d,626b377229c10585ec392f89,626b3b0f327281b47670ba1f,,,,,,,,,,,,,,,,,,,,,,,l,1,"[""0.064"",""0.365"",""0.583"",""0.119""]","[1,1,1,0]",0,28,28,28,1,1,1,,,1,FALSE,1.6483,,,,,,,,,,,,,,,,,,,,,,,,,,,,,,
,One,001,2022-04-29_03h15.01.961,classification_task,2021.2.3,Win32,60.0060006,60fc0722f872d38b39a82c8d,626b377229c10585ec392f89,626b3b0f327281b47670ba1f,,,,,,,,,,,,,,,,,,,,,,,l,1,"[""0.025"",""0.294"",""0.522"",""0.737""]","[1,0,1,1]",0,29,29,29,1,1,0,,,1,FALSE,0.6468,,,,,,,,,,,,,,,,,,,,,,,,,,,,,,
,One,001,2022-04-29_03h15.01.961,classification_task,2021.2.3,Win32,60.0060006,60fc0722f872d38b39a82c8d,626b377229c10585ec392f89,626b3b0f327281b47670ba1f,,,,,,,,,,,,,,,,,,,,,,,l,1,"[""0.064"",""0.365"",""0.294"",""0.782""]","[1,1,0,1]",0,30,30,30,1,1,1,,,1,FALSE,0.9012,,,,,,,,,,,,,,,,,,,,,,,,,,,,,,
,One,001,2022-04-29_03h15.01.961,classification_task,2021.2.3,Win32,60.0060006,60fc0722f872d38b39a82c8d,626b377229c10585ec392f89,626b3b0f327281b47670ba1f,,,,,,,,,,,,,,,,,,,,,,,l,1,"[""0.846"",""0.218"",""0.522"",""0.737""]","[0,1,1,1]",0,31,31,31,1,1,0,,,1,FALSE,3.0847,,,,,,,,,,,,,,,,,,,,,,,,,,,,,,
,One,001,2022-04-29_03h15.01.961,classification_task,2021.2.3,Win32,60.0060006,60fc0722f872d38b39a82c8d,626b377229c10585ec392f89,626b3b0f327281b47670ba1f,,,,,,,,,,,,,,,,,,,,,,,a,0,"[""0.294"",""0.365"",""0.583"",""0.782""]","[0,1,1,1]",0,32,32,32,1,1,1,,,1,FALSE,1.6949,,,,,,,,,,,,,,,,,,,,,,,,,,,,,,
,One,001,2022-04-29_03h15.01.961,classification_task,2021.2.3,Win32,60.0060006,60fc0722f872d38b39a82c8d,626b377229c10585ec392f89,626b3b0f327281b47670ba1f,,,,,,,,,,,,,,,,,,,,,,,a,1,"[""0.252"",""0.448"",""0.119"",""0.973""]","[1,1,0,1]",0,33,33,33,1,0,0,,,1,FALSE,1.8298,,,,,,,,,,,,,,,,,,,,,,,,,,,,,,
,One,001,2022-04-29_03h15.01.961,classification_task,2021.2.3,Win32,60.0060006,60fc0722f872d38b39a82c8d,626b377229c10585ec392f89,626b3b0f327281b47670ba1f,,,,,,,,,,,,,,,,,,,,,,,l,1,"[""0.025"",""0.629"",""0.522"",""0.737""]","[1,0,1,1]",0,34,34,34,1,1,0,,,1,FALSE,0.7815,,,,,,,,,,,,,,,,,,,,,,,,,,,,,,
,One,001,2022-04-29_03h15.01.961,classification_task,2021.2.3,Win32,60.0060006,60fc0722f872d38b39a82c8d,626b377229c10585ec392f89,626b3b0f327281b47670ba1f,,,,,,,,,,,,,,,,,,,,,,,l,0,"[""0.164"",""0.332"",""0.701"",""0.641""]","[1,1,1,0]",0,35,35,35,1,0,1,,,1,FALSE,4.7389,,,,,,,,,,,,,,,,,,,,,,,,,,,,,,
,One,001,2022-04-29_03h15.01.961,classification_task,2021.2.3,Win32,60.0060006,60fc0722f872d38b39a82c8d,626b377229c10585ec392f89,626b3b0f327281b47670ba1f,,,,,,,,,,,,,,,,,,,,,,,a,1,"[""0.633"",""0.332"",""0.701"",""0.930""]","[0,1,1,1]",0,36,36,36,1,0,1,,,1,FALSE,1.8752,,,,,,,,,,,,,,,,,,,,,,,,,,,,,,
,One,001,2022-04-29_03h15.01.961,classification_task,2021.2.3,Win32,60.0060006,60fc0722f872d38b39a82c8d,626b377229c10585ec392f89,626b3b0f327281b47670ba1f,,,,,,,,,,,,,,,,,,,,,,,a,1,"[""0.164"",""0.112"",""0.701"",""0.930""]","[1,0,1,1]",0,37,37,37,1,0,1,,,1,FALSE,2.9434,,,,,,,,,,,,,,,,,,,,,,,,,,,,,,
,One,001,2022-04-29_03h15.01.961,classification_task,2021.2.3,Win32,60.0060006,60fc0722f872d38b39a82c8d,626b377229c10585ec392f89,626b3b0f327281b47670ba1f,,,,,,,,,,,,,,,,,,,,,,,l,0,"[""0.252"",""0.448"",""0.886"",""0.820""]","[1,1,1,0]",0,38,38,38,1,0,0,,,1,FALSE,4.1394,,,,,,,,,,,,,,,,,,,,,,,,,,,,,,
,One,001,2022-04-29_03h15.01.961,classification_task,2021.2.3,Win32,60.0060006,60fc0722f872d38b39a82c8d,626b377229c10585ec392f89,626b3b0f327281b47670ba1f,,,,,,,,,,,,,,,,,,,,,,,l,1,"[""0.064"",""0.365"",""0.583"",""0.644""]","[1,1,1,0]",0,39,39,39,1,1,1,,,1,FALSE,1.6309,,,,,,,,,,,,,,,,,,,,,,,,,,,,,,
,One,001,2022-04-29_03h15.01.961,classification_task,2021.2.3,Win32,60.0060006,60fc0722f872d38b39a82c8d,626b377229c10585ec392f89,626b3b0f327281b47670ba1f,,,,,,,,,,,,,,,,,,,,,,,l,1,"[""0.025"",""0.218"",""0.522"",""0.644""]","[1,1,1,0]",0,40,40,40,1,1,0,,,1,FALSE,0.9214,,,,,,,,,,,,,,,,,,,,,,,,,,,,,,
,One,001,2022-04-29_03h15.01.961,classification_task,2021.2.3,Win32,60.0060006,60fc0722f872d38b39a82c8d,626b377229c10585ec392f89,626b3b0f327281b47670ba1f,,,,,,,,,,,,,,,,,,,,,,,l,1,"[""0.064"",""0.365"",""0.632"",""0.782""]","[1,1,0,1]",0,41,41,41,1,1,1,,,1,FALSE,1.533,,,,,,,,,,,,,,,,,,,,,,,,,,,,,,
,One,001,2022-04-29_03h15.01.961,classification_task,2021.2.3,Win32,60.0060006,60fc0722f872d38b39a82c8d,626b377229c10585ec392f89,626b3b0f327281b47670ba1f,,,,,,,,,,,,,,,,,,,,,,,l,1,"[""0.064"",""0.294"",""0.583"",""0.782""]","[1,0,1,1]",0,42,42,42,1,1,1,,,1,FALSE,0.5919,,,,,,,,,,,,,,,,,,,,,,,,,,,,,,
,One,001,2022-04-29_03h15.01.961,classification_task,2021.2.3,Win32,60.0060006,60fc0722f872d38b39a82c8d,626b377229c10585ec392f89,626b3b0f327281b47670ba1f,,,,,,,,,,,,,,,,,,,,,,,a,1,"[""0.252"",""0.820"",""0.886"",""0.973""]","[1,0,1,1]",0,43,43,43,1,0,0,,,1,FALSE,1.5237,,,,,,,,,,,,,,,,,,,,,,,,,,,,,,
,One,001,2022-04-29_03h15.01.961,classification_task,2021.2.3,Win32,60.0060006,60fc0722f872d38b39a82c8d,626b377229c10585ec392f89,626b3b0f327281b47670ba1f,,,,,,,,,,,,,,,,,,,,,,,a,0,"[""0.633"",""0.218"",""0.522"",""0.737""]","[0,1,1,1]",0,44,44,44,1,1,0,,,1,FALSE,1.9149,,,,,,,,,,,,,,,,,,,,,,,,,,,,,,
,One,001,2022-04-29_03h15.01.961,classification_task,2021.2.3,Win32,60.0060006,60fc0722f872d38b39a82c8d,626b377229c10585ec392f89,626b3b0f327281b47670ba1f,,,,,,,,,,,,,,,,,,,,,,,a,1,"[""0.644"",""0.448"",""0.886"",""0.973""]","[0,1,1,1]",0,45,45,45,1,0,0,,,1,FALSE,5.1022,,,,,,,,,,,,,,,,,,,,,,,,,,,,,,
,One,001,2022-04-29_03h15.01.961,classification_task,2021.2.3,Win32,60.0060006,60fc0722f872d38b39a82c8d,626b377229c10585ec392f89,626b3b0f327281b47670ba1f,,,,,,,,,,,,,,,,,,,,,,,l,1,"[""0.025"",""0.218"",""0.119"",""0.737""]","[1,1,0,1]",0,46,46,46,1,1,0,,,1,FALSE,0.7639,,,,,,,,,,,,,,,,,,,,,,,,,,,,,,
,One,001,2022-04-29_03h15.01.961,classification_task,2021.2.3,Win32,60.0060006,60fc0722f872d38b39a82c8d,626b377229c10585ec392f89,626b3b0f327281b47670ba1f,,,,,,,,,,,,,,,,,,,,,,,a,1,"[""0.164"",""0.332"",""0.629"",""0.930""]","[1,1,0,1]",0,47,47,47,1,0,1,,,1,FALSE,4.5176,,,,,,,,,,,,,,,,,,,,,,,,,,,,,,
,One,001,2022-04-29_03h15.01.961,classification_task,2021.2.3,Win32,60.0060006,60fc0722f872d38b39a82c8d,626b377229c10585ec392f89,626b3b0f327281b47670ba1f,,,,,,,,,,,,,,,,,,,,,,,a,1,"[""0.164"",""0.846"",""0.701"",""0.930""]","[1,0,1,1]",0,48,48,48,1,0,1,,,1,FALSE,2.2596,,,,,,,,,,,,,,,,,,,,,,,,,,,,,,
,One,001,2022-04-29_03h15.01.961,classification_task,2021.2.3,Win32,60.0060006,60fc0722f872d38b39a82c8d,626b377229c10585ec392f89,626b3b0f327281b47670ba1f,,,,,,,,,,,,,,,,,,,,,,,a,1,"[""0.164"",""0.332"",""0.846"",""0.930""]","[1,1,0,1]",0,49,49,49,1,0,1,,,1,FALSE,2.4452,,,,,,,,,,,,,,,,,,,,,,,,,,,,,,
,One,001,2022-04-29_03h15.01.961,classification_task,2021.2.3,Win32,60.0060006,60fc0722f872d38b39a82c8d,626b377229c10585ec392f89,626b3b0f327281b47670ba1f,,,,,,,,,,,,,,,,,,,,,,,l,0,"[""0.119"",""0.332"",""0.701"",""0.930""]","[0,1,1,1]",0,50,50,50,1,0,1,,,1,FALSE,4.151,,,,,,,,,,,,,,,,,,,,,,,,,,,,,,
,One,001,2022-04-29_03h15.01.961,classification_task,2021.2.3,Win32,60.0060006,60fc0722f872d38b39a82c8d,626b377229c10585ec392f89,626b3b0f327281b47670ba1f,,,,,,,,,,,,,,,,,,,,,,,l,0,"[""0.164"",""0.332"",""0.701"",""0.126""]","[1,1,1,0]",0,51,51,51,1,0,1,,,1,FALSE,2.1416,,,,,,,,,,,,,,,,,,,,,,,,,,,,,,
,One,001,2022-04-29_03h15.01.961,classification_task,2021.2.3,Win32,60.0060006,60fc0722f872d38b39a82c8d,626b377229c10585ec392f89,626b3b0f327281b47670ba1f,,,,,,,,,,,,,,,,,,,,,,,a,1,"[""0.633"",""0.448"",""0.886"",""0.973""]","[0,1,1,1]",0,52,52,52,1,0,0,,,1,FALSE,1.1554,,,,,,,,,,,,,,,,,,,,,,,,,,,,,,
,One,001,2022-04-29_03h15.01.961,classification_task,2021.2.3,Win32,60.0060006,60fc0722f872d38b39a82c8d,626b377229c10585ec392f89,626b3b0f327281b47670ba1f,,,,,,,,,,,,,,,,,,,,,,,l,1,"[""0.025"",""0.218"",""0.522"",""0.820""]","[1,1,1,0]",0,53,53,53,1,1,0,,,1,FALSE,0.8107,,,,,,,,,,,,,,,,,,,,,,,,,,,,,,
,One,001,2022-04-29_03h15.01.961,classification_task,2021.2.3,Win32,60.0060006,60fc0722f872d38b39a82c8d,626b377229c10585ec392f89,626b3b0f327281b47670ba1f,,,,,,,,,,,,,,,,,,,,,,,a,1,"[""0.252"",""0.448"",""0.886"",""0.638""]","[1,1,1,0]",0,54,54,54,1,0,0,,,1,FALSE,1.5284,,,,,,,,,,,,,,,,,,,,,,,,,,,,,,
,One,001,2022-04-29_03h15.01.961,classification_task,2021.2.3,Win32,60.0060006,60fc0722f872d38b39a82c8d,626b377229c10585ec392f89,626b3b0f327281b47670ba1f,,,,,,,,,,,,,,,,,,,,,,,l,1,"[""0.064"",""0.365"",""0.583"",""0.126""]","[1,1,1,0]",0,55,55,55,1,1,1,,,1,FALSE,0.9152,,,,,,,,,,,,,,,,,,,,,,,,,,,,,,
,One,001,2022-04-29_03h15.01.961,classification_task,2021.2.3,Win32,60.0060006,60fc0722f872d38b39a82c8d,626b377229c10585ec392f89,626b3b0f327281b47670ba1f,,,,,,,,,,,,,,,,,,,,,,,l,1,"[""0.025"",""0.218"",""0.640"",""0.737""]","[1,1,0,1]",0,56,56,56,1,1,0,,,1,FALSE,1.8978,,,,,,,,,,,,,,,,,,,,,,,,,,,,,,
,One,001,2022-04-29_03h15.01.961,classification_task,2021.2.3,Win32,60.0060006,60fc0722f872d38b39a82c8d,626b377229c10585ec392f89,626b3b0f327281b47670ba1f,,,,,,,,,,,,,,,,,,,,,,,l,1,"[""0.064"",""0.294"",""0.583"",""0.782""]","[1,0,1,1]",0,57,57,57,1,1,1,,,1,FALSE,1.6771,,,,,,,,,,,,,,,,,,,,,,,,,,,,,,
,One,001,2022-04-29_03h15.01.961,classification_task,2021.2.3,Win32,60.0060006,60fc0722f872d38b39a82c8d,626b377229c10585ec392f89,626b3b0f327281b47670ba1f,,,,,,,,,,,,,,,,,,,,,,,a,1,"[""0.252"",""0.448"",""0.633"",""0.973""]","[1,1,0,1]",0,58,58,58,1,0,0,,,1,FALSE,1.0885,,,,,,,,,,,,,,,,,,,,,,,,,,,,,,
,One,001,2022-04-29_03h15.01.961,classification_task,2021.2.3,Win32,60.0060006,60fc0722f872d38b39a82c8d,626b377229c10585ec392f89,626b3b0f327281b47670ba1f,,,,,,,,,,,,,,,,,,,,,,,l,1,"[""0.640"",""0.365"",""0.583"",""0.782""]","[0,1,1,1]",0,59,59,59,1,1,1,,,1,FALSE,1.6682,,,,,,,,,,,,,,,,,,,,,,,,,,,,,,
,One,001,2022-04-29_03h15.01.961,classification_task,2021.2.3,Win32,60.0060006,60fc0722f872d38b39a82c8d,626b377229c10585ec392f89,626b3b0f327281b47670ba1f,,,,,,,,,,,,,,,,,,,,,,,l,1,"[""0.618"",""0.218"",""0.522"",""0.737""]","[0,1,1,1]",0,60,60,60,1,1,0,,,1,FALSE,2.4319,,,,,,,,,,,,,,,,,,,,,,,,,,,,,,
,One,001,2022-04-29_03h15.01.961,classification_task,2021.2.3,Win32,60.0060006,60fc0722f872d38b39a82c8d,626b377229c10585ec392f89,626b3b0f327281b47670ba1f,,,,,,,,,,,,,,,,,,,,,,,l,1,"[""0.025"",""0.294"",""0.522"",""0.737""]","[1,0,1,1]",0,61,61,61,1,1,0,,,1,FALSE,1.169,,,,,,,,,,,,,,,,,,,,,,,,,,,,,,
,One,001,2022-04-29_03h15.01.961,classification_task,2021.2.3,Win32,60.0060006,60fc0722f872d38b39a82c8d,626b377229c10585ec392f89,626b3b0f327281b47670ba1f,,,,,,,,,,,,,,,,,,,,,,,a,1,"[""0.252"",""0.633"",""0.886"",""0.973""]","[1,0,1,1]",0,62,62,62,1,0,0,,,1,FALSE,0.945,,,,,,,,,,,,,,,,,,,,,,,,,,,,,,
,One,001,2022-04-29_03h15.01.961,classification_task,2021.2.3,Win32,60.0060006,60fc0722f872d38b39a82c8d,626b377229c10585ec392f89,626b3b0f327281b47670ba1f,,,,,,,,,,,,,,,,,,,,,,,l,1,"[""0.064"",""0.365"",""0.618"",""0.782""]","[1,1,0,1]",0,63,63,63,1,1,1,,,1,FALSE,1.0427,,,,,,,,,,,,,,,,,,,,,,,,,,,,,,
,One,001,2022-04-29_03h15.01.961,classification_task,2021.2.3,Win32,60.0060006,60fc0722f872d38b39a82c8d,626b377229c10585ec392f89,626b3b0f327281b47670ba1f,,,,,,,,,,,,,,,,,,,,,,,,,,,,,,,,,,,,,,,0, ,,0,9.360180286,209.135,0,2,2,2,1,2,3,,,,,,,,,,,,,,,,,
,One,001,2022-04-29_03h15.01.961,classification_task,2021.2.3,Win32,60.0060006,60fc0722f872d38b39a82c8d,626b377229c10585ec392f89,626b3b0f327281b47670ba1f,,,,,,,,,,,,,,,,,,,,,,,,,,,,,,,,,,,,,,,1,  ,,0,9.997060553,211.1564,0,2,2,2,1,2,3,,,,,,,,,,,,,,,,,
,One,001,2022-04-29_03h15.01.961,classification_task,2021.2.3,Win32,60.0060006,60fc0722f872d38b39a82c8d,626b377229c10585ec392f89,626b3b0f327281b47670ba1f,,,,,,,,,,,,,,,,,,,,,,,,,,,,,,,,,,,,,,,2,  ,,0,9.703115814,212.9077,0,2,2,2,1,2,3,,,,,,,,,,,,,,,,,
,One,001,2022-04-29_03h15.01.961,classification_task,2021.2.3,Win32,60.0060006,60fc0722f872d38b39a82c8d,626b377229c10585ec392f89,626b3b0f327281b47670ba1f,,,,,,,,,,,,,,,,,,,,,,,,,,,,,,,,,,,,,,,,,,,,,0,2,2,2,1,,3,,,,,,,,,,,,,,,,,
,One,001,2022-04-29_03h15.01.961,classification_task,2021.2.3,Win32,60.0060006,60fc0722f872d38b39a82c8d,626b377229c10585ec392f89,626b3b0f327281b47670ba1f,,,,,,,,,,,,,,,,,,,,,,,,,,,,,,,,,,,,,,,,,,,,,,,,,,,,,I believe the aid is a competent performer,,0.7,0,5,1294.5314,0,0,0,0,1,0,,,,
,One,001,2022-04-29_03h15.01.961,classification_task,2021.2.3,Win32,60.0060006,60fc0722f872d38b39a82c8d,626b377229c10585ec392f89,626b3b0f327281b47670ba1f,,,,,,,,,,,,,,,,,,,,,,,,,,,,,,,,,,,,,,,,,,,,,,,,,,,,,I trust the aid,,0.7,0,5,1295.4145,0,0,0,0,1,0,,,,
,One,001,2022-04-29_03h15.01.961,classification_task,2021.2.3,Win32,60.0060006,60fc0722f872d38b39a82c8d,626b377229c10585ec392f89,626b3b0f327281b47670ba1f,,,,,,,,,,,,,,,,,,,,,,,,,,,,,,,,,,,,,,,,,,,,,,,,,,,,,I have confidence in the advice given by the aid,,0.7,0,5,1296.1299,0,0,0,0,1,0,,,,
,One,001,2022-04-29_03h15.01.961,classification_task,2021.2.3,Win32,60.0060006,60fc0722f872d38b39a82c8d,626b377229c10585ec392f89,626b3b0f327281b47670ba1f,,,,,,,,,,,,,,,,,,,,,,,,,,,,,,,,,,,,,,,,,,,,,,,,,,,,,I can depend on the aid,,0.7,0,5,1298.6638,0,0,0,0,1,0,,,,
,One,001,2022-04-29_03h15.01.961,classification_task,2021.2.3,Win32,60.0060006,60fc0722f872d38b39a82c8d,626b377229c10585ec392f89,626b3b0f327281b47670ba1f,,,,,,,,,,,,,,,,,,,,,,,,,,,,,,,,,,,,,,,,,,,,,,,,,,,,,I can rely on the aid to behave in consistent ways,,0.7,0,5,1307.3171,0,0,0,0,1,0,,,,
,One,001,2022-04-29_03h15.01.961,classification_task,2021.2.3,Win32,60.0060006,60fc0722f872d38b39a82c8d,626b377229c10585ec392f89,626b3b0f327281b47670ba1f,,,,,,,,,,,,,,,,,,,,,,,,,,,,,,,,,,,,,,,,,,,,,,,,,,,,,I can rely on the aid to do its best every time I take its advice,,0.7,0,5,1311.5151,0,0,0,0,1,0,,,,
,One,001,2022-04-29_03h15.01.961,classification_task,2021.2.3,Win32,60.0060006,60fc0722f872d38b39a82c8d,626b377229c10585ec392f89,626b3b0f327281b47670ba1f,,,,,,,,,,,,,,,,,,,,,,,,,,,,,,,,,,,,,,,,,,,,,,,,,,,,,"On trials you completed with assistance from the aid, how frequently did you think the aid was correct?",,0.7,0,100%,,0,0,0,0,1,0,,,,
,One,001,2022-04-29_03h15.01.961,classification_task,2021.2.3,Win32,60.0060006,60fc0722f872d38b39a82c8d,626b377229c10585ec392f89,626b3b0f327281b47670ba1f,,,,,,,,,,,,,,,,,,,,,,,,,,,,,,,,,,,,,,,,,,,,,,,,,,,,,"On trials you completed without the aid, how frequently did you think you were correct?",,0.7,0,70%,,0,0,0,0,1,0,,,,
,One,001,2022-04-29_03h15.01.961,classification_task,2021.2.3,Win32,60.0060006,60fc0722f872d38b39a82c8d,626b377229c10585ec392f89,626b3b0f327281b47670ba1f,,,,,,,,,,,,,,,,,,,,,,,,,,,,,,,,,,,,,,,,,,,,,,,,,,,,,,,,,,,0,0,0,0,1,,,,,
,One,001,2022-04-29_03h15.01.961,classification_task,2021.2.3,Win32,60.0060006,60fc0722f872d38b39a82c8d,626b377229c10585ec392f89,626b3b0f327281b47670ba1f,,,,,,,,,,,,,,,,,,,,,,,,,,,,,,,,,,,,,,,,,,,,,,,,,,,,,,,,,,,,,,,,,space,15.9619,1351.1884,
,One,001,2022-04-29_03h15.01.961,classification_task,2021.2.3,Win32,60.0060006,60fc0722f872d38b39a82c8d,626b377229c10585ec392f89,626b3b0f327281b47670ba1f,,,,,,,,,,,,,,,,,,,,,,,,,,,,,,,,,,,,,,,,,,,,,,,,,,,,,,,,,,,,,,,,,,,,"Mozilla/5.0 (Windows NT 10.0; Win64; x64) AppleWebKit/537.36 (KHTML, like Gecko) Chrome/100.0.4896.127 Safari/537.36"
