usingWebGL,participant,session,date,expName,psychopyVersion,OS,frameRate,PROLIFIC_PID,STUDY_ID,SESSION_ID,signatures_friend,signatures_foe,band_ranges_top,band_ranges_bottom,formitemText,formtype,formundefined,formitemWidth,formindex,formresponse,formrt,key_resp_2.keys,key_resp_2.rt,tute_resp.keys,tute_resp.rt,tutorial.thisRepN,tutorial.thisTrialN,tutorial.thisN,tutorial.thisIndex,tutorial.ran,key_resp_4.keys,key_resp_4.rt,key_resp.keys,key_resp.corr,lines_presented,is_signal_presented,trials.thisRepN,trials.thisTrialN,trials.thisN,trials.thisIndex,trials.ran,vessel,active_band,lines,is_signal,supported_pos,catch_trial,key_resp.rt,debrief_formindex,debrief_formitemText,debrief_formtype,debrief_formitemWidth,debrief_formresponse,debrief_formrt,phases.thisRepN,phases.thisTrialN,phases.thisN,phases.thisIndex,phases.ran,phases.order,phase,key_resp_3.keys,trustitemText,trusttype,trustitemWidth,trustindex,trustresponse,trustrt,support_status.thisRepN,support_status.thisTrialN,support_status.thisN,support_status.thisIndex,support_status.ran,support_status.order,key_resp_5.keys,key_resp_5.rt,globalClockTime,userAgent
TRUE,,001,2022-04-29_03h07.22.212,classification_task,2021.2.3,Win32,59.89817311,5e74ab90a8712c41d2b2afae,626b377229c10585ec392f89,626b3a3e0a38f015d191452e,,,,,,,,,,,,,,,,,,,,,,,,,,,,,,,,,,,,,,,,,,,,,,,,,,,,,,,,,,,,,,,,,,,,
,,001,2022-04-29_03h07.22.212,classification_task,2021.2.3,Win32,59.89817311,5e74ab90a8712c41d2b2afae,626b377229c10585ec392f89,626b3a3e0a38f015d191452e,"[[""0.292"",""0.332"",""0.801"",""0.946""],[""0.172"",""0.434"",""0.689"",""0.890""]]","[[""0.072"",""0.121"",""0.507"",""0.838""],[""0.028"",""0.223"",""0.470"",""0.741""]]","[1,10]","[100,1000]",Video game experience,,,0.7,0,,,,,,,,,,,,,,,,,,,,,,,,,,,,,,,,,,,,,,,,,,,,,,,,,,,,,,,,,,,
,,001,2022-04-29_03h07.22.212,classification_task,2021.2.3,Win32,59.89817311,5e74ab90a8712c41d2b2afae,626b377229c10585ec392f89,626b3a3e0a38f015d191452e,,,,,Approximately how many hours did you spend playing video games in the last week?,,,0.7,0,18,,,,,,,,,,,,,,,,,,,,,,,,,,,,,,,,,,,,,,,,,,,,,,,,,,,,,,,,,,
,,001,2022-04-29_03h07.22.212,classification_task,2021.2.3,Win32,59.89817311,5e74ab90a8712c41d2b2afae,626b377229c10585ec392f89,626b3a3e0a38f015d191452e,,,,,"Which game did you play the most this year? (Enter ""None"" if you didn't play any)",,,0.7,0,Fortnite,,,,,,,,,,,,,,,,,,,,,,,,,,,,,,,,,,,,,,,,,,,,,,,,,,,,,,,,,,
,,001,2022-04-29_03h07.22.212,classification_task,2021.2.3,Win32,59.89817311,5e74ab90a8712c41d2b2afae,626b377229c10585ec392f89,626b3a3e0a38f015d191452e,,,,,Visual perception,,,0.7,0,,,,,,,,,,,,,,,,,,,,,,,,,,,,,,,,,,,,,,,,,,,,,,,,,,,,,,,,,,,
,,001,2022-04-29_03h07.22.212,classification_task,2021.2.3,Win32,59.89817311,5e74ab90a8712c41d2b2afae,626b377229c10585ec392f89,626b3a3e0a38f015d191452e,,,,,Do you have any form of color blindness?,,,0.7,0,No,19.5174,,,,,,,,,,,,,,,,,,,,,,,,,,,,,,,,,,,,,,,,,,,,,,,,,,,,,,,,,
,,001,2022-04-29_03h07.22.212,classification_task,2021.2.3,Win32,59.89817311,5e74ab90a8712c41d2b2afae,626b377229c10585ec392f89,626b3a3e0a38f015d191452e,,,,,Do you use software to change the colour temperature of your screen (e.g. f.lux)?,,,0.7,0,No,21.6302,,,,,,,,,,,,,,,,,,,,,,,,,,,,,,,,,,,,,,,,,,,,,,,,,,,,,,,,,
,,001,2022-04-29_03h07.22.212,classification_task,2021.2.3,Win32,59.89817311,5e74ab90a8712c41d2b2afae,626b377229c10585ec392f89,626b3a3e0a38f015d191452e,,,,,,,,,,,,space,8.356,space,8.054,0,0,0,0,1,,,,,,,,,,,,,,,,,,,,,,,,,,,,,,,,,,,,,,,,,,,,,,,,
,,001,2022-04-29_03h07.22.212,classification_task,2021.2.3,Win32,59.89817311,5e74ab90a8712c41d2b2afae,626b377229c10585ec392f89,626b3a3e0a38f015d191452e,,,,,,,,,,,,,,space,7.567,1,0,1,0,1,,,,,,,,,,,,,,,,,,,,,,,,,,,,,,,,,,,,,,,,,,,,,,,,
,,001,2022-04-29_03h07.22.212,classification_task,2021.2.3,Win32,59.89817311,5e74ab90a8712c41d2b2afae,626b377229c10585ec392f89,626b3a3e0a38f015d191452e,,,,,,,,,,,,,,space,22.6676,2,0,2,0,1,,,,,,,,,,,,,,,,,,,,,,,,,,,,,,,,,,,,,,,,,,,,,,,,
,,001,2022-04-29_03h07.22.212,classification_task,2021.2.3,Win32,59.89817311,5e74ab90a8712c41d2b2afae,626b377229c10585ec392f89,626b3a3e0a38f015d191452e,,,,,,,,,,,,,,space,3.7167,3,0,3,0,1,,,,,,,,,,,,,,,,,,,,,,,,,,,,,,,,,,,,,,,,,,,,,,,,
,,001,2022-04-29_03h07.22.212,classification_task,2021.2.3,Win32,59.89817311,5e74ab90a8712c41d2b2afae,626b377229c10585ec392f89,626b3a3e0a38f015d191452e,,,,,,,,,,,,,,space,11.355,4,0,4,0,1,,,,,,,,,,,,,,,,,,,,,,,,,,,,,,,,,,,,,,,,,,,,,,,,
,,001,2022-04-29_03h07.22.212,classification_task,2021.2.3,Win32,59.89817311,5e74ab90a8712c41d2b2afae,626b377229c10585ec392f89,626b3a3e0a38f015d191452e,,,,,,,,,,,,,,,,,,,,,space,6.4543,,0,"[""0.292"",""0.332"",""0.801"",""0.620""]","[1,1,1,0]",0,0,0,0,1,0,0,,,1,FALSE,,,,,,,,,,,,,,,,,,,,,,,,,,,,,,,
,,001,2022-04-29_03h07.22.212,classification_task,2021.2.3,Win32,59.89817311,5e74ab90a8712c41d2b2afae,626b377229c10585ec392f89,626b3a3e0a38f015d191452e,,,,,,,,,,,,,,,,,,,,,,,a,1,"[""0.567"",""0.332"",""0.801"",""0.946""]","[0,1,1,1]",0,1,1,1,1,0,0,,,1,FALSE,5.9528,,,,,,,,,,,,,,,,,,,,,,,,,,,,,,
,,001,2022-04-29_03h07.22.212,classification_task,2021.2.3,Win32,59.89817311,5e74ab90a8712c41d2b2afae,626b377229c10585ec392f89,626b3a3e0a38f015d191452e,,,,,,,,,,,,,,,,,,,,,,,a,1,"[""0.172"",""0.645"",""0.689"",""0.890""]","[1,0,1,1]",0,2,2,2,1,0,1,,,1,FALSE,4.2455,,,,,,,,,,,,,,,,,,,,,,,,,,,,,,
,,001,2022-04-29_03h07.22.212,classification_task,2021.2.3,Win32,59.89817311,5e74ab90a8712c41d2b2afae,626b377229c10585ec392f89,626b3a3e0a38f015d191452e,,,,,,,,,,,,,,,,,,,,,,,l,1,"[""0.028"",""0.223"",""0.470"",""0.545""]","[1,1,1,0]",0,3,3,3,1,1,1,,,1,FALSE,2.4339,,,,,,,,,,,,,,,,,,,,,,,,,,,,,,
,,001,2022-04-29_03h07.22.212,classification_task,2021.2.3,Win32,59.89817311,5e74ab90a8712c41d2b2afae,626b377229c10585ec392f89,626b3a3e0a38f015d191452e,,,,,,,,,,,,,,,,,,,,,,,l,1,"[""0.072"",""0.121"",""0.385"",""0.838""]","[1,1,0,1]",0,4,4,4,1,1,0,,,1,FALSE,2.0166,,,,,,,,,,,,,,,,,,,,,,,,,,,,,,
,,001,2022-04-29_03h07.22.212,classification_task,2021.2.3,Win32,59.89817311,5e74ab90a8712c41d2b2afae,626b377229c10585ec392f89,626b3a3e0a38f015d191452e,,,,,,,,,,,,,,,,,,,,,,,l,1,"[""0.072"",""0.121"",""0.507"",""0.620""]","[1,1,1,0]",0,5,5,5,1,1,0,,,1,FALSE,1.6493,,,,,,,,,,,,,,,,,,,,,,,,,,,,,,
,,001,2022-04-29_03h07.22.212,classification_task,2021.2.3,Win32,59.89817311,5e74ab90a8712c41d2b2afae,626b377229c10585ec392f89,626b3a3e0a38f015d191452e,,,,,,,,,,,,,,,,,,,,,,,a,1,"[""0.172"",""0.434"",""0.543"",""0.890""]","[1,1,0,1]",0,6,6,6,1,0,1,,,1,FALSE,2.267,,,,,,,,,,,,,,,,,,,,,,,,,,,,,,
,,001,2022-04-29_03h07.22.212,classification_task,2021.2.3,Win32,59.89817311,5e74ab90a8712c41d2b2afae,626b377229c10585ec392f89,626b3a3e0a38f015d191452e,,,,,,,,,,,,,,,,,,,,,,,a,1,"[""0.172"",""0.434"",""0.689"",""0.591""]","[1,1,1,0]",0,7,7,7,1,0,1,,,1,FALSE,2.2527,,,,,,,,,,,,,,,,,,,,,,,,,,,,,,
,,001,2022-04-29_03h07.22.212,classification_task,2021.2.3,Win32,59.89817311,5e74ab90a8712c41d2b2afae,626b377229c10585ec392f89,626b3a3e0a38f015d191452e,,,,,,,,,,,,,,,,,,,,,,,a,1,"[""0.292"",""0.332"",""0.545"",""0.946""]","[1,1,0,1]",0,8,8,8,1,0,0,,,1,FALSE,2.2258,,,,,,,,,,,,,,,,,,,,,,,,,,,,,,
,,001,2022-04-29_03h07.22.212,classification_task,2021.2.3,Win32,59.89817311,5e74ab90a8712c41d2b2afae,626b377229c10585ec392f89,626b3a3e0a38f015d191452e,,,,,,,,,,,,,,,,,,,,,,,a,0,"[""0.591"",""0.223"",""0.470"",""0.741""]","[0,1,1,1]",0,9,9,9,1,1,1,,,1,FALSE,3.5135,,,,,,,,,,,,,,,,,,,,,,,,,,,,,,
,,001,2022-04-29_03h07.22.212,classification_task,2021.2.3,Win32,59.89817311,5e74ab90a8712c41d2b2afae,626b377229c10585ec392f89,626b3a3e0a38f015d191452e,,,,,,,,,,,,,,,,,,,,,,,l,1,"[""0.028"",""0.223"",""0.543"",""0.741""]","[1,1,0,1]",0,10,10,10,1,1,1,,,1,FALSE,1.9453,,,,,,,,,,,,,,,,,,,,,,,,,,,,,,
,,001,2022-04-29_03h07.22.212,classification_task,2021.2.3,Win32,59.89817311,5e74ab90a8712c41d2b2afae,626b377229c10585ec392f89,626b3a3e0a38f015d191452e,,,,,,,,,,,,,,,,,,,,,,,l,1,"[""0.072"",""0.620"",""0.507"",""0.838""]","[1,0,1,1]",0,11,11,11,1,1,0,,,1,FALSE,2.6708,,,,,,,,,,,,,,,,,,,,,,,,,,,,,,
,,001,2022-04-29_03h07.22.212,classification_task,2021.2.3,Win32,59.89817311,5e74ab90a8712c41d2b2afae,626b377229c10585ec392f89,626b3a3e0a38f015d191452e,,,,,,,,,,,,,,,,,,,,,,,l,1,"[""0.028"",""0.572"",""0.470"",""0.741""]","[1,0,1,1]",0,12,12,12,1,1,1,,,1,FALSE,1.8097,,,,,,,,,,,,,,,,,,,,,,,,,,,,,,
,,001,2022-04-29_03h07.22.212,classification_task,2021.2.3,Win32,59.89817311,5e74ab90a8712c41d2b2afae,626b377229c10585ec392f89,626b3a3e0a38f015d191452e,,,,,,,,,,,,,,,,,,,,,,,l,0,"[""0.583"",""0.434"",""0.689"",""0.890""]","[0,1,1,1]",0,13,13,13,1,0,1,,,1,FALSE,3.2559,,,,,,,,,,,,,,,,,,,,,,,,,,,,,,
,,001,2022-04-29_03h07.22.212,classification_task,2021.2.3,Win32,59.89817311,5e74ab90a8712c41d2b2afae,626b377229c10585ec392f89,626b3a3e0a38f015d191452e,,,,,,,,,,,,,,,,,,,,,,,a,1,"[""0.292"",""0.620"",""0.801"",""0.946""]","[1,0,1,1]",0,14,14,14,1,0,0,,,1,FALSE,2.0225,,,,,,,,,,,,,,,,,,,,,,,,,,,,,,
,,001,2022-04-29_03h07.22.212,classification_task,2021.2.3,Win32,59.89817311,5e74ab90a8712c41d2b2afae,626b377229c10585ec392f89,626b3a3e0a38f015d191452e,,,,,,,,,,,,,,,,,,,,,,,l,1,"[""0.567"",""0.121"",""0.507"",""0.838""]","[0,1,1,1]",0,15,15,15,1,1,0,,,1,FALSE,1.9368,,,,,,,,,,,,,,,,,,,,,,,,,,,,,,
,,001,2022-04-29_03h07.22.212,classification_task,2021.2.3,Win32,59.89817311,5e74ab90a8712c41d2b2afae,626b377229c10585ec392f89,626b3a3e0a38f015d191452e,,,,,,,,,,,,,,,,,,,,,,,a,1,"[""0.543"",""0.434"",""0.689"",""0.890""]","[0,1,1,1]",0,16,16,16,1,0,1,,,1,FALSE,6.1215,,,,,,,,,,,,,,,,,,,,,,,,,,,,,,
,,001,2022-04-29_03h07.22.212,classification_task,2021.2.3,Win32,59.89817311,5e74ab90a8712c41d2b2afae,626b377229c10585ec392f89,626b3a3e0a38f015d191452e,,,,,,,,,,,,,,,,,,,,,,,a,1,"[""0.292"",""0.548"",""0.801"",""0.946""]","[1,0,1,1]",0,17,17,17,1,0,0,,,1,FALSE,2.5525,,,,,,,,,,,,,,,,,,,,,,,,,,,,,,
,,001,2022-04-29_03h07.22.212,classification_task,2021.2.3,Win32,59.89817311,5e74ab90a8712c41d2b2afae,626b377229c10585ec392f89,626b3a3e0a38f015d191452e,,,,,,,,,,,,,,,,,,,,,,,l,1,"[""0.645"",""0.223"",""0.470"",""0.741""]","[0,1,1,1]",0,18,18,18,1,1,1,,,1,FALSE,2.5222,,,,,,,,,,,,,,,,,,,,,,,,,,,,,,
,,001,2022-04-29_03h07.22.212,classification_task,2021.2.3,Win32,59.89817311,5e74ab90a8712c41d2b2afae,626b377229c10585ec392f89,626b3a3e0a38f015d191452e,,,,,,,,,,,,,,,,,,,,,,,l,1,"[""0.072"",""0.121"",""0.507"",""0.583""]","[1,1,1,0]",0,19,19,19,1,1,0,,,1,FALSE,1.8864,,,,,,,,,,,,,,,,,,,,,,,,,,,,,,
,,001,2022-04-29_03h07.22.212,classification_task,2021.2.3,Win32,59.89817311,5e74ab90a8712c41d2b2afae,626b377229c10585ec392f89,626b3a3e0a38f015d191452e,,,,,,,,,,,,,,,,,,,,,,,a,1,"[""0.172"",""0.434"",""0.689"",""0.548""]","[1,1,1,0]",0,20,20,20,1,0,1,,,1,FALSE,2.3648,,,,,,,,,,,,,,,,,,,,,,,,,,,,,,
,,001,2022-04-29_03h07.22.212,classification_task,2021.2.3,Win32,59.89817311,5e74ab90a8712c41d2b2afae,626b377229c10585ec392f89,626b3a3e0a38f015d191452e,,,,,,,,,,,,,,,,,,,,,,,a,1,"[""0.172"",""0.434"",""0.385"",""0.890""]","[1,1,0,1]",0,21,21,21,1,0,1,,,1,FALSE,2.1035,,,,,,,,,,,,,,,,,,,,,,,,,,,,,,
,,001,2022-04-29_03h07.22.212,classification_task,2021.2.3,Win32,59.89817311,5e74ab90a8712c41d2b2afae,626b377229c10585ec392f89,626b3a3e0a38f015d191452e,,,,,,,,,,,,,,,,,,,,,,,l,1,"[""0.028"",""0.548"",""0.470"",""0.741""]","[1,0,1,1]",0,22,22,22,1,1,1,,,1,FALSE,1.0361,,,,,,,,,,,,,,,,,,,,,,,,,,,,,,
,,001,2022-04-29_03h07.22.212,classification_task,2021.2.3,Win32,59.89817311,5e74ab90a8712c41d2b2afae,626b377229c10585ec392f89,626b3a3e0a38f015d191452e,,,,,,,,,,,,,,,,,,,,,,,l,1,"[""0.072"",""0.121"",""0.591"",""0.838""]","[1,1,0,1]",0,23,23,23,1,1,0,,,1,FALSE,1.4981,,,,,,,,,,,,,,,,,,,,,,,,,,,,,,
,,001,2022-04-29_03h07.22.212,classification_task,2021.2.3,Win32,59.89817311,5e74ab90a8712c41d2b2afae,626b377229c10585ec392f89,626b3a3e0a38f015d191452e,,,,,,,,,,,,,,,,,,,,,,,a,1,"[""0.292"",""0.332"",""0.620"",""0.946""]","[1,1,0,1]",0,24,24,24,1,0,0,,,1,FALSE,1.7735,,,,,,,,,,,,,,,,,,,,,,,,,,,,,,
,,001,2022-04-29_03h07.22.212,classification_task,2021.2.3,Win32,59.89817311,5e74ab90a8712c41d2b2afae,626b377229c10585ec392f89,626b3a3e0a38f015d191452e,,,,,,,,,,,,,,,,,,,,,,,l,1,"[""0.072"",""0.548"",""0.507"",""0.838""]","[1,0,1,1]",0,25,25,25,1,1,0,,,1,FALSE,1.1703,,,,,,,,,,,,,,,,,,,,,,,,,,,,,,
,,001,2022-04-29_03h07.22.212,classification_task,2021.2.3,Win32,59.89817311,5e74ab90a8712c41d2b2afae,626b377229c10585ec392f89,626b3a3e0a38f015d191452e,,,,,,,,,,,,,,,,,,,,,,,a,1,"[""0.548"",""0.332"",""0.801"",""0.946""]","[0,1,1,1]",0,26,26,26,1,0,0,,,1,FALSE,1.7236,,,,,,,,,,,,,,,,,,,,,,,,,,,,,,
,,001,2022-04-29_03h07.22.212,classification_task,2021.2.3,Win32,59.89817311,5e74ab90a8712c41d2b2afae,626b377229c10585ec392f89,626b3a3e0a38f015d191452e,,,,,,,,,,,,,,,,,,,,,,,l,1,"[""0.385"",""0.121"",""0.507"",""0.838""]","[0,1,1,1]",0,27,27,27,1,1,0,,,1,FALSE,1.4324,,,,,,,,,,,,,,,,,,,,,,,,,,,,,,
,,001,2022-04-29_03h07.22.212,classification_task,2021.2.3,Win32,59.89817311,5e74ab90a8712c41d2b2afae,626b377229c10585ec392f89,626b3a3e0a38f015d191452e,,,,,,,,,,,,,,,,,,,,,,,l,1,"[""0.028"",""0.223"",""0.470"",""0.573""]","[1,1,1,0]",0,28,28,28,1,1,1,,,1,FALSE,1.2138,,,,,,,,,,,,,,,,,,,,,,,,,,,,,,
,,001,2022-04-29_03h07.22.212,classification_task,2021.2.3,Win32,59.89817311,5e74ab90a8712c41d2b2afae,626b377229c10585ec392f89,626b3a3e0a38f015d191452e,,,,,,,,,,,,,,,,,,,,,,,a,1,"[""0.292"",""0.332"",""0.801"",""0.567""]","[1,1,1,0]",0,29,29,29,1,0,0,,,1,FALSE,1.3506,,,,,,,,,,,,,,,,,,,,,,,,,,,,,,
,,001,2022-04-29_03h07.22.212,classification_task,2021.2.3,Win32,59.89817311,5e74ab90a8712c41d2b2afae,626b377229c10585ec392f89,626b3a3e0a38f015d191452e,,,,,,,,,,,,,,,,,,,,,,,a,1,"[""0.172"",""0.599"",""0.689"",""0.890""]","[1,0,1,1]",0,30,30,30,1,0,1,,,1,FALSE,1.8983,,,,,,,,,,,,,,,,,,,,,,,,,,,,,,
,,001,2022-04-29_03h07.22.212,classification_task,2021.2.3,Win32,59.89817311,5e74ab90a8712c41d2b2afae,626b377229c10585ec392f89,626b3a3e0a38f015d191452e,,,,,,,,,,,,,,,,,,,,,,,l,1,"[""0.028"",""0.223"",""0.567"",""0.741""]","[1,1,0,1]",0,31,31,31,1,1,1,,,1,FALSE,1.2763,,,,,,,,,,,,,,,,,,,,,,,,,,,,,,
,,001,2022-04-29_03h07.22.212,classification_task,2021.2.3,Win32,59.89817311,5e74ab90a8712c41d2b2afae,626b377229c10585ec392f89,626b3a3e0a38f015d191452e,,,,,,,,,,,,,,,,,,,,,,,l,0,"[""0.292"",""0.332"",""0.637"",""0.946""]","[1,1,0,1]",0,32,32,32,1,0,0,,,1,FALSE,4.7963,,,,,,,,,,,,,,,,,,,,,,,,,,,,,,
,,001,2022-04-29_03h07.22.212,classification_task,2021.2.3,Win32,59.89817311,5e74ab90a8712c41d2b2afae,626b377229c10585ec392f89,626b3a3e0a38f015d191452e,,,,,,,,,,,,,,,,,,,,,,,l,1,"[""0.028"",""0.223"",""0.548"",""0.741""]","[1,1,0,1]",0,33,33,33,1,1,1,,,1,FALSE,2.6728,,,,,,,,,,,,,,,,,,,,,,,,,,,,,,
,,001,2022-04-29_03h07.22.212,classification_task,2021.2.3,Win32,59.89817311,5e74ab90a8712c41d2b2afae,626b377229c10585ec392f89,626b3a3e0a38f015d191452e,,,,,,,,,,,,,,,,,,,,,,,a,1,"[""0.292"",""0.332"",""0.801"",""0.543""]","[1,1,1,0]",0,34,34,34,1,0,0,,,1,FALSE,1.4287,,,,,,,,,,,,,,,,,,,,,,,,,,,,,,
,,001,2022-04-29_03h07.22.212,classification_task,2021.2.3,Win32,59.89817311,5e74ab90a8712c41d2b2afae,626b377229c10585ec392f89,626b3a3e0a38f015d191452e,,,,,,,,,,,,,,,,,,,,,,,a,1,"[""0.567"",""0.332"",""0.801"",""0.946""]","[0,1,1,1]",0,35,35,35,1,0,0,,,1,FALSE,1.3829,,,,,,,,,,,,,,,,,,,,,,,,,,,,,,
,,001,2022-04-29_03h07.22.212,classification_task,2021.2.3,Win32,59.89817311,5e74ab90a8712c41d2b2afae,626b377229c10585ec392f89,626b3a3e0a38f015d191452e,,,,,,,,,,,,,,,,,,,,,,,l,1,"[""0.072"",""0.366"",""0.507"",""0.838""]","[1,0,1,1]",0,36,36,36,1,1,0,,,1,FALSE,0.6673,,,,,,,,,,,,,,,,,,,,,,,,,,,,,,
,,001,2022-04-29_03h07.22.212,classification_task,2021.2.3,Win32,59.89817311,5e74ab90a8712c41d2b2afae,626b377229c10585ec392f89,626b3a3e0a38f015d191452e,,,,,,,,,,,,,,,,,,,,,,,l,1,"[""0.567"",""0.121"",""0.507"",""0.838""]","[0,1,1,1]",0,37,37,37,1,1,0,,,1,FALSE,2.6062,,,,,,,,,,,,,,,,,,,,,,,,,,,,,,
,,001,2022-04-29_03h07.22.212,classification_task,2021.2.3,Win32,59.89817311,5e74ab90a8712c41d2b2afae,626b377229c10585ec392f89,626b3a3e0a38f015d191452e,,,,,,,,,,,,,,,,,,,,,,,a,1,"[""0.568"",""0.434"",""0.689"",""0.890""]","[0,1,1,1]",0,38,38,38,1,0,1,,,1,FALSE,2.1186,,,,,,,,,,,,,,,,,,,,,,,,,,,,,,
,,001,2022-04-29_03h07.22.212,classification_task,2021.2.3,Win32,59.89817311,5e74ab90a8712c41d2b2afae,626b377229c10585ec392f89,626b3a3e0a38f015d191452e,,,,,,,,,,,,,,,,,,,,,,,l,1,"[""0.072"",""0.121"",""0.507"",""0.599""]","[1,1,1,0]",0,39,39,39,1,1,0,,,1,FALSE,2.1076,,,,,,,,,,,,,,,,,,,,,,,,,,,,,,
,,001,2022-04-29_03h07.22.212,classification_task,2021.2.3,Win32,59.89817311,5e74ab90a8712c41d2b2afae,626b377229c10585ec392f89,626b3a3e0a38f015d191452e,,,,,,,,,,,,,,,,,,,,,,,a,1,"[""0.172"",""0.620"",""0.689"",""0.890""]","[1,0,1,1]",0,40,40,40,1,0,1,,,1,FALSE,2.0576,,,,,,,,,,,,,,,,,,,,,,,,,,,,,,
,,001,2022-04-29_03h07.22.212,classification_task,2021.2.3,Win32,59.89817311,5e74ab90a8712c41d2b2afae,626b377229c10585ec392f89,626b3a3e0a38f015d191452e,,,,,,,,,,,,,,,,,,,,,,,l,1,"[""0.028"",""0.548"",""0.470"",""0.741""]","[1,0,1,1]",0,41,41,41,1,1,1,,,1,FALSE,1.1039,,,,,,,,,,,,,,,,,,,,,,,,,,,,,,
,,001,2022-04-29_03h07.22.212,classification_task,2021.2.3,Win32,59.89817311,5e74ab90a8712c41d2b2afae,626b377229c10585ec392f89,626b3a3e0a38f015d191452e,,,,,,,,,,,,,,,,,,,,,,,a,1,"[""0.292"",""0.567"",""0.801"",""0.946""]","[1,0,1,1]",0,42,42,42,1,0,0,,,1,FALSE,1.7985,,,,,,,,,,,,,,,,,,,,,,,,,,,,,,
,,001,2022-04-29_03h07.22.212,classification_task,2021.2.3,Win32,59.89817311,5e74ab90a8712c41d2b2afae,626b377229c10585ec392f89,626b3a3e0a38f015d191452e,,,,,,,,,,,,,,,,,,,,,,,l,1,"[""0.028"",""0.223"",""0.470"",""0.543""]","[1,1,1,0]",0,43,43,43,1,1,1,,,1,FALSE,1.0034,,,,,,,,,,,,,,,,,,,,,,,,,,,,,,
,,001,2022-04-29_03h07.22.212,classification_task,2021.2.3,Win32,59.89817311,5e74ab90a8712c41d2b2afae,626b377229c10585ec392f89,626b3a3e0a38f015d191452e,,,,,,,,,,,,,,,,,,,,,,,l,1,"[""0.072"",""0.121"",""0.543"",""0.838""]","[1,1,0,1]",0,44,44,44,1,1,0,,,1,FALSE,1.1179,,,,,,,,,,,,,,,,,,,,,,,,,,,,,,
,,001,2022-04-29_03h07.22.212,classification_task,2021.2.3,Win32,59.89817311,5e74ab90a8712c41d2b2afae,626b377229c10585ec392f89,626b3a3e0a38f015d191452e,,,,,,,,,,,,,,,,,,,,,,,a,1,"[""0.172"",""0.434"",""0.689"",""0.591""]","[1,1,1,0]",0,45,45,45,1,0,1,,,1,FALSE,1.1912,,,,,,,,,,,,,,,,,,,,,,,,,,,,,,
,,001,2022-04-29_03h07.22.212,classification_task,2021.2.3,Win32,59.89817311,5e74ab90a8712c41d2b2afae,626b377229c10585ec392f89,626b3a3e0a38f015d191452e,,,,,,,,,,,,,,,,,,,,,,,l,1,"[""0.543"",""0.223"",""0.470"",""0.741""]","[0,1,1,1]",0,46,46,46,1,1,1,,,1,FALSE,1.9846,,,,,,,,,,,,,,,,,,,,,,,,,,,,,,
,,001,2022-04-29_03h07.22.212,classification_task,2021.2.3,Win32,59.89817311,5e74ab90a8712c41d2b2afae,626b377229c10585ec392f89,626b3a3e0a38f015d191452e,,,,,,,,,,,,,,,,,,,,,,,a,1,"[""0.172"",""0.434"",""0.645"",""0.890""]","[1,1,0,1]",0,47,47,47,1,0,1,,,1,FALSE,0.9839,,,,,,,,,,,,,,,,,,,,,,,,,,,,,,
,,001,2022-04-29_03h07.22.212,classification_task,2021.2.3,Win32,59.89817311,5e74ab90a8712c41d2b2afae,626b377229c10585ec392f89,626b3a3e0a38f015d191452e,,,,,,,,,,,,,,,,,,,,,,,a,1,"[""0.172"",""0.434"",""0.543"",""0.890""]","[1,1,0,1]",0,48,48,48,1,0,1,,,1,FALSE,1.039,,,,,,,,,,,,,,,,,,,,,,,,,,,,,,
,,001,2022-04-29_03h07.22.212,classification_task,2021.2.3,Win32,59.89817311,5e74ab90a8712c41d2b2afae,626b377229c10585ec392f89,626b3a3e0a38f015d191452e,,,,,,,,,,,,,,,,,,,,,,,a,1,"[""0.172"",""0.548"",""0.689"",""0.890""]","[1,0,1,1]",0,49,49,49,1,0,1,,,1,FALSE,0.8793,,,,,,,,,,,,,,,,,,,,,,,,,,,,,,
,,001,2022-04-29_03h07.22.212,classification_task,2021.2.3,Win32,59.89817311,5e74ab90a8712c41d2b2afae,626b377229c10585ec392f89,626b3a3e0a38f015d191452e,,,,,,,,,,,,,,,,,,,,,,,l,0,"[""0.292"",""0.332"",""0.801"",""0.366""]","[1,1,1,0]",0,50,50,50,1,0,0,,,1,FALSE,1.7337,,,,,,,,,,,,,,,,,,,,,,,,,,,,,,
,,001,2022-04-29_03h07.22.212,classification_task,2021.2.3,Win32,59.89817311,5e74ab90a8712c41d2b2afae,626b377229c10585ec392f89,626b3a3e0a38f015d191452e,,,,,,,,,,,,,,,,,,,,,,,a,1,"[""0.292"",""0.568"",""0.801"",""0.946""]","[1,0,1,1]",0,51,51,51,1,0,0,,,1,FALSE,1.623,,,,,,,,,,,,,,,,,,,,,,,,,,,,,,
,,001,2022-04-29_03h07.22.212,classification_task,2021.2.3,Win32,59.89817311,5e74ab90a8712c41d2b2afae,626b377229c10585ec392f89,626b3a3e0a38f015d191452e,,,,,,,,,,,,,,,,,,,,,,,l,0,"[""0.385"",""0.434"",""0.689"",""0.890""]","[0,1,1,1]",0,52,52,52,1,0,1,,,1,FALSE,1.2855,,,,,,,,,,,,,,,,,,,,,,,,,,,,,,
,,001,2022-04-29_03h07.22.212,classification_task,2021.2.3,Win32,59.89817311,5e74ab90a8712c41d2b2afae,626b377229c10585ec392f89,626b3a3e0a38f015d191452e,,,,,,,,,,,,,,,,,,,,,,,l,1,"[""0.028"",""0.223"",""0.470"",""0.392""]","[1,1,1,0]",0,53,53,53,1,1,1,,,1,FALSE,1.1226,,,,,,,,,,,,,,,,,,,,,,,,,,,,,,
,,001,2022-04-29_03h07.22.212,classification_task,2021.2.3,Win32,59.89817311,5e74ab90a8712c41d2b2afae,626b377229c10585ec392f89,626b3a3e0a38f015d191452e,,,,,,,,,,,,,,,,,,,,,,,l,1,"[""0.567"",""0.121"",""0.507"",""0.838""]","[0,1,1,1]",0,54,54,54,1,1,0,,,1,FALSE,2.5338,,,,,,,,,,,,,,,,,,,,,,,,,,,,,,
,,001,2022-04-29_03h07.22.212,classification_task,2021.2.3,Win32,59.89817311,5e74ab90a8712c41d2b2afae,626b377229c10585ec392f89,626b3a3e0a38f015d191452e,,,,,,,,,,,,,,,,,,,,,,,a,0,"[""0.583"",""0.223"",""0.470"",""0.741""]","[0,1,1,1]",0,55,55,55,1,1,1,,,1,FALSE,1.3343,,,,,,,,,,,,,,,,,,,,,,,,,,,,,,
,,001,2022-04-29_03h07.22.212,classification_task,2021.2.3,Win32,59.89817311,5e74ab90a8712c41d2b2afae,626b377229c10585ec392f89,626b3a3e0a38f015d191452e,,,,,,,,,,,,,,,,,,,,,,,l,1,"[""0.072"",""0.121"",""0.507"",""0.599""]","[1,1,1,0]",0,56,56,56,1,1,0,,,1,FALSE,1.4005,,,,,,,,,,,,,,,,,,,,,,,,,,,,,,
,,001,2022-04-29_03h07.22.212,classification_task,2021.2.3,Win32,59.89817311,5e74ab90a8712c41d2b2afae,626b377229c10585ec392f89,626b3a3e0a38f015d191452e,,,,,,,,,,,,,,,,,,,,,,,l,1,"[""0.028"",""0.573"",""0.470"",""0.741""]","[1,0,1,1]",0,57,57,57,1,1,1,,,1,FALSE,0.9526,,,,,,,,,,,,,,,,,,,,,,,,,,,,,,
,,001,2022-04-29_03h07.22.212,classification_task,2021.2.3,Win32,59.89817311,5e74ab90a8712c41d2b2afae,626b377229c10585ec392f89,626b3a3e0a38f015d191452e,,,,,,,,,,,,,,,,,,,,,,,l,1,"[""0.072"",""0.121"",""0.573"",""0.838""]","[1,1,0,1]",0,58,58,58,1,1,0,,,1,FALSE,1.1169,,,,,,,,,,,,,,,,,,,,,,,,,,,,,,
,,001,2022-04-29_03h07.22.212,classification_task,2021.2.3,Win32,59.89817311,5e74ab90a8712c41d2b2afae,626b377229c10585ec392f89,626b3a3e0a38f015d191452e,,,,,,,,,,,,,,,,,,,,,,,a,1,"[""0.172"",""0.434"",""0.689"",""0.572""]","[1,1,1,0]",0,59,59,59,1,0,1,,,1,FALSE,1.151,,,,,,,,,,,,,,,,,,,,,,,,,,,,,,
,,001,2022-04-29_03h07.22.212,classification_task,2021.2.3,Win32,59.89817311,5e74ab90a8712c41d2b2afae,626b377229c10585ec392f89,626b3a3e0a38f015d191452e,,,,,,,,,,,,,,,,,,,,,,,l,1,"[""0.072"",""0.392"",""0.507"",""0.838""]","[1,0,1,1]",0,60,60,60,1,1,0,,,1,FALSE,1.1855,,,,,,,,,,,,,,,,,,,,,,,,,,,,,,
,,001,2022-04-29_03h07.22.212,classification_task,2021.2.3,Win32,59.89817311,5e74ab90a8712c41d2b2afae,626b377229c10585ec392f89,626b3a3e0a38f015d191452e,,,,,,,,,,,,,,,,,,,,,,,l,1,"[""0.028"",""0.223"",""0.591"",""0.741""]","[1,1,0,1]",0,61,61,61,1,1,1,,,1,FALSE,1.017,,,,,,,,,,,,,,,,,,,,,,,,,,,,,,
,,001,2022-04-29_03h07.22.212,classification_task,2021.2.3,Win32,59.89817311,5e74ab90a8712c41d2b2afae,626b377229c10585ec392f89,626b3a3e0a38f015d191452e,,,,,,,,,,,,,,,,,,,,,,,l,0,"[""0.583"",""0.332"",""0.801"",""0.946""]","[0,1,1,1]",0,62,62,62,1,0,0,,,1,FALSE,1.4676,,,,,,,,,,,,,,,,,,,,,,,,,,,,,,
,,001,2022-04-29_03h07.22.212,classification_task,2021.2.3,Win32,59.89817311,5e74ab90a8712c41d2b2afae,626b377229c10585ec392f89,626b3a3e0a38f015d191452e,,,,,,,,,,,,,,,,,,,,,,,l,0,"[""0.292"",""0.332"",""0.385"",""0.946""]","[1,1,0,1]",0,63,63,63,1,0,0,,,1,FALSE,1.8672,,,,,,,,,,,,,,,,,,,,,,,,,,,,,,
,,001,2022-04-29_03h07.22.212,classification_task,2021.2.3,Win32,59.89817311,5e74ab90a8712c41d2b2afae,626b377229c10585ec392f89,626b3a3e0a38f015d191452e,,,,,,,,,,,,,,,,,,,,,,,,,,,,,,,,,,,,,,,0, ,,0,2.317793476,361.2373,0,0,0,0,1,2,1,,,,,,,,,,,,,,,,,
,,001,2022-04-29_03h07.22.212,classification_task,2021.2.3,Win32,59.89817311,5e74ab90a8712c41d2b2afae,626b377229c10585ec392f89,626b3a3e0a38f015d191452e,,,,,,,,,,,,,,,,,,,,,,,,,,,,,,,,,,,,,,,1,  ,,0,6.355220139,369.0703,0,0,0,0,1,2,1,,,,,,,,,,,,,,,,,
,,001,2022-04-29_03h07.22.212,classification_task,2021.2.3,Win32,59.89817311,5e74ab90a8712c41d2b2afae,626b377229c10585ec392f89,626b3a3e0a38f015d191452e,,,,,,,,,,,,,,,,,,,,,,,,,,,,,,,,,,,,,,,2,  ,,0,5.621142564,375.562,0,0,0,0,1,2,1,,,,,,,,,,,,,,,,,
,,001,2022-04-29_03h07.22.212,classification_task,2021.2.3,Win32,59.89817311,5e74ab90a8712c41d2b2afae,626b377229c10585ec392f89,626b3a3e0a38f015d191452e,,,,,,,,,,,,,,,,,,,,,,,,,,,,,,,,,,,,,,,,,,,,,0,0,0,0,1,,1,,,,,,,,,,,,,,,,,
,,001,2022-04-29_03h07.22.212,classification_task,2021.2.3,Win32,59.89817311,5e74ab90a8712c41d2b2afae,626b377229c10585ec392f89,626b3a3e0a38f015d191452e,,,,,,,,,,,,,,,,,,,,,space,4.9269,a,1,"[""0.292"",""0.332"",""0.572"",""0.946""]","[1,1,0,1]",0,0,0,0,1,0,0,,,1,FALSE,3.5666,,,,,,,,,,,,,,,,,,,,,,,,,,,,,,
,,001,2022-04-29_03h07.22.212,classification_task,2021.2.3,Win32,59.89817311,5e74ab90a8712c41d2b2afae,626b377229c10585ec392f89,626b3a3e0a38f015d191452e,,,,,,,,,,,,,,,,,,,,,,,l,1,"[""0.028"",""0.223"",""0.470"",""0.591""]","[1,1,1,0]",0,1,1,1,1,1,1,,,1,FALSE,5.1502,,,,,,,,,,,,,,,,,,,,,,,,,,,,,,
,,001,2022-04-29_03h07.22.212,classification_task,2021.2.3,Win32,59.89817311,5e74ab90a8712c41d2b2afae,626b377229c10585ec392f89,626b3a3e0a38f015d191452e,,,,,,,,,,,,,,,,,,,,,,,l,1,"[""0.072"",""0.121"",""0.507"",""0.545""]","[1,1,1,0]",0,2,2,2,1,1,0,,,1,FALSE,1.0613,,,,,,,,,,,,,,,,,,,,,,,,,,,,,,
,,001,2022-04-29_03h07.22.212,classification_task,2021.2.3,Win32,59.89817311,5e74ab90a8712c41d2b2afae,626b377229c10585ec392f89,626b3a3e0a38f015d191452e,,,,,,,,,,,,,,,,,,,,,,,l,0,"[""0.567"",""0.434"",""0.689"",""0.890""]","[0,1,1,1]",0,3,3,3,1,0,1,,,1,FALSE,2.1169,,,,,,,,,,,,,,,,,,,,,,,,,,,,,,
,,001,2022-04-29_03h07.22.212,classification_task,2021.2.3,Win32,59.89817311,5e74ab90a8712c41d2b2afae,626b377229c10585ec392f89,626b3a3e0a38f015d191452e,,,,,,,,,,,,,,,,,,,,,,,l,1,"[""0.072"",""0.121"",""0.392"",""0.838""]","[1,1,0,1]",0,4,4,4,1,1,0,,,1,FALSE,1.6684,,,,,,,,,,,,,,,,,,,,,,,,,,,,,,
,,001,2022-04-29_03h07.22.212,classification_task,2021.2.3,Win32,59.89817311,5e74ab90a8712c41d2b2afae,626b377229c10585ec392f89,626b3a3e0a38f015d191452e,,,,,,,,,,,,,,,,,,,,,,,l,1,"[""0.028"",""0.223"",""0.545"",""0.741""]","[1,1,0,1]",0,5,5,5,1,1,1,,,1,FALSE,1.017,,,,,,,,,,,,,,,,,,,,,,,,,,,,,,
,,001,2022-04-29_03h07.22.212,classification_task,2021.2.3,Win32,59.89817311,5e74ab90a8712c41d2b2afae,626b377229c10585ec392f89,626b3a3e0a38f015d191452e,,,,,,,,,,,,,,,,,,,,,,,l,1,"[""0.072"",""0.548"",""0.507"",""0.838""]","[1,0,1,1]",0,6,6,6,1,1,0,,,1,FALSE,1.1643,,,,,,,,,,,,,,,,,,,,,,,,,,,,,,
,,001,2022-04-29_03h07.22.212,classification_task,2021.2.3,Win32,59.89817311,5e74ab90a8712c41d2b2afae,626b377229c10585ec392f89,626b3a3e0a38f015d191452e,,,,,,,,,,,,,,,,,,,,,,,a,1,"[""0.172"",""0.434"",""0.366"",""0.890""]","[1,1,0,1]",0,7,7,7,1,0,1,,,1,FALSE,0.9341,,,,,,,,,,,,,,,,,,,,,,,,,,,,,,
,,001,2022-04-29_03h07.22.212,classification_task,2021.2.3,Win32,59.89817311,5e74ab90a8712c41d2b2afae,626b377229c10585ec392f89,626b3a3e0a38f015d191452e,,,,,,,,,,,,,,,,,,,,,,,a,1,"[""0.292"",""0.583"",""0.801"",""0.946""]","[1,0,1,1]",0,8,8,8,1,0,0,,,1,FALSE,1.1836,,,,,,,,,,,,,,,,,,,,,,,,,,,,,,
,,001,2022-04-29_03h07.22.212,classification_task,2021.2.3,Win32,59.89817311,5e74ab90a8712c41d2b2afae,626b377229c10585ec392f89,626b3a3e0a38f015d191452e,,,,,,,,,,,,,,,,,,,,,,,l,1,"[""0.637"",""0.223"",""0.470"",""0.741""]","[0,1,1,1]",0,9,9,9,1,1,1,,,1,FALSE,1.7342,,,,,,,,,,,,,,,,,,,,,,,,,,,,,,
,,001,2022-04-29_03h07.22.212,classification_task,2021.2.3,Win32,59.89817311,5e74ab90a8712c41d2b2afae,626b377229c10585ec392f89,626b3a3e0a38f015d191452e,,,,,,,,,,,,,,,,,,,,,,,l,0,"[""0.172"",""0.545"",""0.689"",""0.890""]","[1,0,1,1]",0,10,10,10,1,0,1,,,1,FALSE,1.5335,,,,,,,,,,,,,,,,,,,,,,,,,,,,,,
,,001,2022-04-29_03h07.22.212,classification_task,2021.2.3,Win32,59.89817311,5e74ab90a8712c41d2b2afae,626b377229c10585ec392f89,626b3a3e0a38f015d191452e,,,,,,,,,,,,,,,,,,,,,,,l,0,"[""0.573"",""0.332"",""0.801"",""0.946""]","[0,1,1,1]",0,11,11,11,1,0,0,,,1,FALSE,0.9492,,,,,,,,,,,,,,,,,,,,,,,,,,,,,,
,,001,2022-04-29_03h07.22.212,classification_task,2021.2.3,Win32,59.89817311,5e74ab90a8712c41d2b2afae,626b377229c10585ec392f89,626b3a3e0a38f015d191452e,,,,,,,,,,,,,,,,,,,,,,,l,1,"[""0.385"",""0.121"",""0.507"",""0.838""]","[0,1,1,1]",0,12,12,12,1,1,0,,,1,FALSE,1.1338,,,,,,,,,,,,,,,,,,,,,,,,,,,,,,
,,001,2022-04-29_03h07.22.212,classification_task,2021.2.3,Win32,59.89817311,5e74ab90a8712c41d2b2afae,626b377229c10585ec392f89,626b3a3e0a38f015d191452e,,,,,,,,,,,,,,,,,,,,,,,l,1,"[""0.028"",""0.620"",""0.470"",""0.741""]","[1,0,1,1]",0,13,13,13,1,1,1,,,1,FALSE,2.0325,,,,,,,,,,,,,,,,,,,,,,,,,,,,,,
,,001,2022-04-29_03h07.22.212,classification_task,2021.2.3,Win32,59.89817311,5e74ab90a8712c41d2b2afae,626b377229c10585ec392f89,626b3a3e0a38f015d191452e,,,,,,,,,,,,,,,,,,,,,,,a,1,"[""0.292"",""0.332"",""0.801"",""0.545""]","[1,1,1,0]",0,14,14,14,1,0,0,,,1,FALSE,1.0341,,,,,,,,,,,,,,,,,,,,,,,,,,,,,,
,,001,2022-04-29_03h07.22.212,classification_task,2021.2.3,Win32,59.89817311,5e74ab90a8712c41d2b2afae,626b377229c10585ec392f89,626b3a3e0a38f015d191452e,,,,,,,,,,,,,,,,,,,,,,,l,0,"[""0.172"",""0.434"",""0.689"",""0.392""]","[1,1,1,0]",0,15,15,15,1,0,1,,,1,FALSE,1.5508,,,,,,,,,,,,,,,,,,,,,,,,,,,,,,
,,001,2022-04-29_03h07.22.212,classification_task,2021.2.3,Win32,59.89817311,5e74ab90a8712c41d2b2afae,626b377229c10585ec392f89,626b3a3e0a38f015d191452e,,,,,,,,,,,,,,,,,,,,,,,l,0,"[""0.292"",""0.332"",""0.801"",""0.583""]","[1,1,1,0]",0,16,16,16,1,0,0,,,1,FALSE,1.0505,,,,,,,,,,,,,,,,,,,,,,,,,,,,,,
,,001,2022-04-29_03h07.22.212,classification_task,2021.2.3,Win32,59.89817311,5e74ab90a8712c41d2b2afae,626b377229c10585ec392f89,626b3a3e0a38f015d191452e,,,,,,,,,,,,,,,,,,,,,,,l,1,"[""0.072"",""0.121"",""0.507"",""0.543""]","[1,1,1,0]",0,17,17,17,1,1,0,,,1,FALSE,1.5838,,,,,,,,,,,,,,,,,,,,,,,,,,,,,,
,,001,2022-04-29_03h07.22.212,classification_task,2021.2.3,Win32,59.89817311,5e74ab90a8712c41d2b2afae,626b377229c10585ec392f89,626b3a3e0a38f015d191452e,,,,,,,,,,,,,,,,,,,,,,,l,1,"[""0.028"",""0.223"",""0.568"",""0.741""]","[1,1,0,1]",0,18,18,18,1,1,1,,,1,FALSE,1.2004,,,,,,,,,,,,,,,,,,,,,,,,,,,,,,
,,001,2022-04-29_03h07.22.212,classification_task,2021.2.3,Win32,59.89817311,5e74ab90a8712c41d2b2afae,626b377229c10585ec392f89,626b3a3e0a38f015d191452e,,,,,,,,,,,,,,,,,,,,,,,a,0,"[""0.072"",""0.385"",""0.507"",""0.838""]","[1,0,1,1]",0,19,19,19,1,1,0,,,1,FALSE,1.1335,,,,,,,,,,,,,,,,,,,,,,,,,,,,,,
,,001,2022-04-29_03h07.22.212,classification_task,2021.2.3,Win32,59.89817311,5e74ab90a8712c41d2b2afae,626b377229c10585ec392f89,626b3a3e0a38f015d191452e,,,,,,,,,,,,,,,,,,,,,,,l,1,"[""0.028"",""0.567"",""0.470"",""0.741""]","[1,0,1,1]",0,20,20,20,1,1,1,,,1,FALSE,1.2172,,,,,,,,,,,,,,,,,,,,,,,,,,,,,,
,,001,2022-04-29_03h07.22.212,classification_task,2021.2.3,Win32,59.89817311,5e74ab90a8712c41d2b2afae,626b377229c10585ec392f89,626b3a3e0a38f015d191452e,,,,,,,,,,,,,,,,,,,,,,,a,1,"[""0.172"",""0.573"",""0.689"",""0.890""]","[1,0,1,1]",0,21,21,21,1,0,1,,,1,FALSE,1.0004,,,,,,,,,,,,,,,,,,,,,,,,,,,,,,
,,001,2022-04-29_03h07.22.212,classification_task,2021.2.3,Win32,59.89817311,5e74ab90a8712c41d2b2afae,626b377229c10585ec392f89,626b3a3e0a38f015d191452e,,,,,,,,,,,,,,,,,,,,,,,l,1,"[""0.072"",""0.121"",""0.543"",""0.838""]","[1,1,0,1]",0,22,22,22,1,1,0,,,1,FALSE,0.9003,,,,,,,,,,,,,,,,,,,,,,,,,,,,,,
,,001,2022-04-29_03h07.22.212,classification_task,2021.2.3,Win32,59.89817311,5e74ab90a8712c41d2b2afae,626b377229c10585ec392f89,626b3a3e0a38f015d191452e,,,,,,,,,,,,,,,,,,,,,,,l,1,"[""0.028"",""0.223"",""0.470"",""0.591""]","[1,1,1,0]",0,23,23,23,1,1,1,,,1,FALSE,1.0171,,,,,,,,,,,,,,,,,,,,,,,,,,,,,,
,,001,2022-04-29_03h07.22.212,classification_task,2021.2.3,Win32,59.89817311,5e74ab90a8712c41d2b2afae,626b377229c10585ec392f89,626b3a3e0a38f015d191452e,,,,,,,,,,,,,,,,,,,,,,,a,1,"[""0.620"",""0.434"",""0.689"",""0.890""]","[0,1,1,1]",0,24,24,24,1,0,1,,,1,FALSE,0.9833,,,,,,,,,,,,,,,,,,,,,,,,,,,,,,
,,001,2022-04-29_03h07.22.212,classification_task,2021.2.3,Win32,59.89817311,5e74ab90a8712c41d2b2afae,626b377229c10585ec392f89,626b3a3e0a38f015d191452e,,,,,,,,,,,,,,,,,,,,,,,a,1,"[""0.172"",""0.434"",""0.689"",""0.573""]","[1,1,1,0]",0,25,25,25,1,0,1,,,1,FALSE,1.067,,,,,,,,,,,,,,,,,,,,,,,,,,,,,,
,,001,2022-04-29_03h07.22.212,classification_task,2021.2.3,Win32,59.89817311,5e74ab90a8712c41d2b2afae,626b377229c10585ec392f89,626b3a3e0a38f015d191452e,,,,,,,,,,,,,,,,,,,,,,,l,1,"[""0.573"",""0.223"",""0.470"",""0.741""]","[0,1,1,1]",0,26,26,26,1,1,1,,,1,FALSE,1.601,,,,,,,,,,,,,,,,,,,,,,,,,,,,,,
,,001,2022-04-29_03h07.22.212,classification_task,2021.2.3,Win32,59.89817311,5e74ab90a8712c41d2b2afae,626b377229c10585ec392f89,626b3a3e0a38f015d191452e,,,,,,,,,,,,,,,,,,,,,,,l,0,"[""0.292"",""0.583"",""0.801"",""0.946""]","[1,0,1,1]",0,27,27,27,1,0,0,,,1,FALSE,2.5259,,,,,,,,,,,,,,,,,,,,,,,,,,,,,,
,,001,2022-04-29_03h07.22.212,classification_task,2021.2.3,Win32,59.89817311,5e74ab90a8712c41d2b2afae,626b377229c10585ec392f89,626b3a3e0a38f015d191452e,,,,,,,,,,,,,,,,,,,,,,,a,1,"[""0.172"",""0.434"",""0.645"",""0.890""]","[1,1,0,1]",0,28,28,28,1,0,1,,,1,FALSE,2.1632,,,,,,,,,,,,,,,,,,,,,,,,,,,,,,
,,001,2022-04-29_03h07.22.212,classification_task,2021.2.3,Win32,59.89817311,5e74ab90a8712c41d2b2afae,626b377229c10585ec392f89,626b3a3e0a38f015d191452e,,,,,,,,,,,,,,,,,,,,,,,l,0,"[""0.568"",""0.332"",""0.801"",""0.946""]","[0,1,1,1]",0,29,29,29,1,0,0,,,1,FALSE,1.032,,,,,,,,,,,,,,,,,,,,,,,,,,,,,,
,,001,2022-04-29_03h07.22.212,classification_task,2021.2.3,Win32,59.89817311,5e74ab90a8712c41d2b2afae,626b377229c10585ec392f89,626b3a3e0a38f015d191452e,,,,,,,,,,,,,,,,,,,,,,,l,0,"[""0.292"",""0.332"",""0.620"",""0.946""]","[1,1,0,1]",0,30,30,30,1,0,0,,,1,FALSE,1.2714,,,,,,,,,,,,,,,,,,,,,,,,,,,,,,
,,001,2022-04-29_03h07.22.212,classification_task,2021.2.3,Win32,59.89817311,5e74ab90a8712c41d2b2afae,626b377229c10585ec392f89,626b3a3e0a38f015d191452e,,,,,,,,,,,,,,,,,,,,,,,a,0,"[""0.645"",""0.121"",""0.507"",""0.838""]","[0,1,1,1]",0,31,31,31,1,1,0,,,1,FALSE,1.8674,,,,,,,,,,,,,,,,,,,,,,,,,,,,,,
,,001,2022-04-29_03h07.22.212,classification_task,2021.2.3,Win32,59.89817311,5e74ab90a8712c41d2b2afae,626b377229c10585ec392f89,626b3a3e0a38f015d191452e,,,,,,,,,,,,,,,,,,,,,,,a,1,"[""0.292"",""0.332"",""0.392"",""0.946""]","[1,1,0,1]",0,32,32,32,1,0,0,,,1,FALSE,1.0173,,,,,,,,,,,,,,,,,,,,,,,,,,,,,,
,,001,2022-04-29_03h07.22.212,classification_task,2021.2.3,Win32,59.89817311,5e74ab90a8712c41d2b2afae,626b377229c10585ec392f89,626b3a3e0a38f015d191452e,,,,,,,,,,,,,,,,,,,,,,,l,1,"[""0.072"",""0.121"",""0.507"",""0.385""]","[1,1,1,0]",0,33,33,33,1,1,0,,,1,FALSE,2.5168,,,,,,,,,,,,,,,,,,,,,,,,,,,,,,
,,001,2022-04-29_03h07.22.212,classification_task,2021.2.3,Win32,59.89817311,5e74ab90a8712c41d2b2afae,626b377229c10585ec392f89,626b3a3e0a38f015d191452e,,,,,,,,,,,,,,,,,,,,,,,l,0,"[""0.385"",""0.434"",""0.689"",""0.890""]","[0,1,1,1]",0,34,34,34,1,0,1,,,1,FALSE,2.4427,,,,,,,,,,,,,,,,,,,,,,,,,,,,,,
,,001,2022-04-29_03h07.22.212,classification_task,2021.2.3,Win32,59.89817311,5e74ab90a8712c41d2b2afae,626b377229c10585ec392f89,626b3a3e0a38f015d191452e,,,,,,,,,,,,,,,,,,,,,,,l,0,"[""0.292"",""0.543"",""0.801"",""0.946""]","[1,0,1,1]",0,35,35,35,1,0,0,,,1,FALSE,1.5761,,,,,,,,,,,,,,,,,,,,,,,,,,,,,,
,,001,2022-04-29_03h07.22.212,classification_task,2021.2.3,Win32,59.89817311,5e74ab90a8712c41d2b2afae,626b377229c10585ec392f89,626b3a3e0a38f015d191452e,,,,,,,,,,,,,,,,,,,,,,,a,0,"[""0.072"",""0.392"",""0.507"",""0.838""]","[1,0,1,1]",0,36,36,36,1,1,0,,,1,FALSE,1.2446,,,,,,,,,,,,,,,,,,,,,,,,,,,,,,
,,001,2022-04-29_03h07.22.212,classification_task,2021.2.3,Win32,59.89817311,5e74ab90a8712c41d2b2afae,626b377229c10585ec392f89,626b3a3e0a38f015d191452e,,,,,,,,,,,,,,,,,,,,,,,l,1,"[""0.028"",""0.223"",""0.470"",""0.543""]","[1,1,1,0]",0,37,37,37,1,1,1,,,1,FALSE,1.5662,,,,,,,,,,,,,,,,,,,,,,,,,,,,,,
,,001,2022-04-29_03h07.22.212,classification_task,2021.2.3,Win32,59.89817311,5e74ab90a8712c41d2b2afae,626b377229c10585ec392f89,626b3a3e0a38f015d191452e,,,,,,,,,,,,,,,,,,,,,,,l,0,"[""0.172"",""0.434"",""0.689"",""0.573""]","[1,1,1,0]",0,38,38,38,1,0,1,,,1,FALSE,1.4173,,,,,,,,,,,,,,,,,,,,,,,,,,,,,,
,,001,2022-04-29_03h07.22.212,classification_task,2021.2.3,Win32,59.89817311,5e74ab90a8712c41d2b2afae,626b377229c10585ec392f89,626b3a3e0a38f015d191452e,,,,,,,,,,,,,,,,,,,,,,,a,1,"[""0.548"",""0.332"",""0.801"",""0.946""]","[0,1,1,1]",0,39,39,39,1,0,0,,,1,FALSE,1.5974,,,,,,,,,,,,,,,,,,,,,,,,,,,,,,
,,001,2022-04-29_03h07.22.212,classification_task,2021.2.3,Win32,59.89817311,5e74ab90a8712c41d2b2afae,626b377229c10585ec392f89,626b3a3e0a38f015d191452e,,,,,,,,,,,,,,,,,,,,,,,a,0,"[""0.620"",""0.223"",""0.470"",""0.741""]","[0,1,1,1]",0,40,40,40,1,1,1,,,1,FALSE,1.2359,,,,,,,,,,,,,,,,,,,,,,,,,,,,,,
,,001,2022-04-29_03h07.22.212,classification_task,2021.2.3,Win32,59.89817311,5e74ab90a8712c41d2b2afae,626b377229c10585ec392f89,626b3a3e0a38f015d191452e,,,,,,,,,,,,,,,,,,,,,,,a,0,"[""0.637"",""0.121"",""0.507"",""0.838""]","[0,1,1,1]",0,41,41,41,1,1,0,,,1,FALSE,1.9991,,,,,,,,,,,,,,,,,,,,,,,,,,,,,,
,,001,2022-04-29_03h07.22.212,classification_task,2021.2.3,Win32,59.89817311,5e74ab90a8712c41d2b2afae,626b377229c10585ec392f89,626b3a3e0a38f015d191452e,,,,,,,,,,,,,,,,,,,,,,,a,1,"[""0.172"",""0.434"",""0.573"",""0.890""]","[1,1,0,1]",0,42,42,42,1,0,1,,,1,FALSE,1.3485,,,,,,,,,,,,,,,,,,,,,,,,,,,,,,
,,001,2022-04-29_03h07.22.212,classification_task,2021.2.3,Win32,59.89817311,5e74ab90a8712c41d2b2afae,626b377229c10585ec392f89,626b3a3e0a38f015d191452e,,,,,,,,,,,,,,,,,,,,,,,l,1,"[""0.028"",""0.543"",""0.470"",""0.741""]","[1,0,1,1]",0,43,43,43,1,1,1,,,1,FALSE,0.9341,,,,,,,,,,,,,,,,,,,,,,,,,,,,,,
,,001,2022-04-29_03h07.22.212,classification_task,2021.2.3,Win32,59.89817311,5e74ab90a8712c41d2b2afae,626b377229c10585ec392f89,626b3a3e0a38f015d191452e,,,,,,,,,,,,,,,,,,,,,,,l,0,"[""0.172"",""0.385"",""0.689"",""0.890""]","[1,0,1,1]",0,44,44,44,1,0,1,,,1,FALSE,1.8988,,,,,,,,,,,,,,,,,,,,,,,,,,,,,,
,,001,2022-04-29_03h07.22.212,classification_task,2021.2.3,Win32,59.89817311,5e74ab90a8712c41d2b2afae,626b377229c10585ec392f89,626b3a3e0a38f015d191452e,,,,,,,,,,,,,,,,,,,,,,,l,1,"[""0.072"",""0.121"",""0.385"",""0.838""]","[1,1,0,1]",0,45,45,45,1,1,0,,,1,FALSE,1.3015,,,,,,,,,,,,,,,,,,,,,,,,,,,,,,
,,001,2022-04-29_03h07.22.212,classification_task,2021.2.3,Win32,59.89817311,5e74ab90a8712c41d2b2afae,626b377229c10585ec392f89,626b3a3e0a38f015d191452e,,,,,,,,,,,,,,,,,,,,,,,l,1,"[""0.028"",""0.223"",""0.637"",""0.741""]","[1,1,0,1]",0,46,46,46,1,1,1,,,1,FALSE,0.8526,,,,,,,,,,,,,,,,,,,,,,,,,,,,,,
,,001,2022-04-29_03h07.22.212,classification_task,2021.2.3,Win32,59.89817311,5e74ab90a8712c41d2b2afae,626b377229c10585ec392f89,626b3a3e0a38f015d191452e,,,,,,,,,,,,,,,,,,,,,,,a,1,"[""0.292"",""0.332"",""0.801"",""0.620""]","[1,1,1,0]",0,47,47,47,1,0,0,,,1,FALSE,1.1494,,,,,,,,,,,,,,,,,,,,,,,,,,,,,,
,,001,2022-04-29_03h07.22.212,classification_task,2021.2.3,Win32,59.89817311,5e74ab90a8712c41d2b2afae,626b377229c10585ec392f89,626b3a3e0a38f015d191452e,,,,,,,,,,,,,,,,,,,,,,,a,1,"[""0.292"",""0.543"",""0.801"",""0.946""]","[1,0,1,1]",0,48,48,48,1,0,0,,,1,FALSE,0.7057,,,,,,,,,,,,,,,,,,,,,,,,,,,,,,
,,001,2022-04-29_03h07.22.212,classification_task,2021.2.3,Win32,59.89817311,5e74ab90a8712c41d2b2afae,626b377229c10585ec392f89,626b3a3e0a38f015d191452e,,,,,,,,,,,,,,,,,,,,,,,a,0,"[""0.385"",""0.223"",""0.470"",""0.741""]","[0,1,1,1]",0,49,49,49,1,1,1,,,1,FALSE,1.6749,,,,,,,,,,,,,,,,,,,,,,,,,,,,,,
,,001,2022-04-29_03h07.22.212,classification_task,2021.2.3,Win32,59.89817311,5e74ab90a8712c41d2b2afae,626b377229c10585ec392f89,626b3a3e0a38f015d191452e,,,,,,,,,,,,,,,,,,,,,,,l,0,"[""0.385"",""0.434"",""0.689"",""0.890""]","[0,1,1,1]",0,50,50,50,1,0,1,,,1,FALSE,1.0338,,,,,,,,,,,,,,,,,,,,,,,,,,,,,,
,,001,2022-04-29_03h07.22.212,classification_task,2021.2.3,Win32,59.89817311,5e74ab90a8712c41d2b2afae,626b377229c10585ec392f89,626b3a3e0a38f015d191452e,,,,,,,,,,,,,,,,,,,,,,,l,0,"[""0.172"",""0.385"",""0.689"",""0.890""]","[1,0,1,1]",0,51,51,51,1,0,1,,,1,FALSE,1.6986,,,,,,,,,,,,,,,,,,,,,,,,,,,,,,
,,001,2022-04-29_03h07.22.212,classification_task,2021.2.3,Win32,59.89817311,5e74ab90a8712c41d2b2afae,626b377229c10585ec392f89,626b3a3e0a38f015d191452e,,,,,,,,,,,,,,,,,,,,,,,l,1,"[""0.072"",""0.121"",""0.583"",""0.838""]","[1,1,0,1]",0,52,52,52,1,1,0,,,1,FALSE,1.0951,,,,,,,,,,,,,,,,,,,,,,,,,,,,,,
,,001,2022-04-29_03h07.22.212,classification_task,2021.2.3,Win32,59.89817311,5e74ab90a8712c41d2b2afae,626b377229c10585ec392f89,626b3a3e0a38f015d191452e,,,,,,,,,,,,,,,,,,,,,,,l,1,"[""0.028"",""0.645"",""0.470"",""0.741""]","[1,0,1,1]",0,53,53,53,1,1,1,,,1,FALSE,0.8765,,,,,,,,,,,,,,,,,,,,,,,,,,,,,,
,,001,2022-04-29_03h07.22.212,classification_task,2021.2.3,Win32,59.89817311,5e74ab90a8712c41d2b2afae,626b377229c10585ec392f89,626b3a3e0a38f015d191452e,,,,,,,,,,,,,,,,,,,,,,,l,1,"[""0.028"",""0.223"",""0.470"",""0.392""]","[1,1,1,0]",0,54,54,54,1,1,1,,,1,FALSE,0.9007,,,,,,,,,,,,,,,,,,,,,,,,,,,,,,
,,001,2022-04-29_03h07.22.212,classification_task,2021.2.3,Win32,59.89817311,5e74ab90a8712c41d2b2afae,626b377229c10585ec392f89,626b3a3e0a38f015d191452e,,,,,,,,,,,,,,,,,,,,,,,l,1,"[""0.072"",""0.392"",""0.507"",""0.838""]","[1,0,1,1]",0,55,55,55,1,1,0,,,1,FALSE,1.4331,,,,,,,,,,,,,,,,,,,,,,,,,,,,,,
,,001,2022-04-29_03h07.22.212,classification_task,2021.2.3,Win32,59.89817311,5e74ab90a8712c41d2b2afae,626b377229c10585ec392f89,626b3a3e0a38f015d191452e,,,,,,,,,,,,,,,,,,,,,,,a,1,"[""0.172"",""0.434"",""0.620"",""0.890""]","[1,1,0,1]",0,56,56,56,1,0,1,,,1,FALSE,1.3504,,,,,,,,,,,,,,,,,,,,,,,,,,,,,,
,,001,2022-04-29_03h07.22.212,classification_task,2021.2.3,Win32,59.89817311,5e74ab90a8712c41d2b2afae,626b377229c10585ec392f89,626b3a3e0a38f015d191452e,,,,,,,,,,,,,,,,,,,,,,,l,1,"[""0.072"",""0.121"",""0.507"",""0.543""]","[1,1,1,0]",0,57,57,57,1,1,0,,,1,FALSE,0.882,,,,,,,,,,,,,,,,,,,,,,,,,,,,,,
,,001,2022-04-29_03h07.22.212,classification_task,2021.2.3,Win32,59.89817311,5e74ab90a8712c41d2b2afae,626b377229c10585ec392f89,626b3a3e0a38f015d191452e,,,,,,,,,,,,,,,,,,,,,,,a,1,"[""0.292"",""0.332"",""0.545"",""0.946""]","[1,1,0,1]",0,58,58,58,1,0,0,,,1,FALSE,1.186,,,,,,,,,,,,,,,,,,,,,,,,,,,,,,
,,001,2022-04-29_03h07.22.212,classification_task,2021.2.3,Win32,59.89817311,5e74ab90a8712c41d2b2afae,626b377229c10585ec392f89,626b3a3e0a38f015d191452e,,,,,,,,,,,,,,,,,,,,,,,a,1,"[""0.620"",""0.332"",""0.801"",""0.946""]","[0,1,1,1]",0,59,59,59,1,0,0,,,1,FALSE,0.6416,,,,,,,,,,,,,,,,,,,,,,,,,,,,,,
,,001,2022-04-29_03h07.22.212,classification_task,2021.2.3,Win32,59.89817311,5e74ab90a8712c41d2b2afae,626b377229c10585ec392f89,626b3a3e0a38f015d191452e,,,,,,,,,,,,,,,,,,,,,,,l,1,"[""0.028"",""0.223"",""0.567"",""0.741""]","[1,1,0,1]",0,60,60,60,1,1,1,,,1,FALSE,0.8999,,,,,,,,,,,,,,,,,,,,,,,,,,,,,,
,,001,2022-04-29_03h07.22.212,classification_task,2021.2.3,Win32,59.89817311,5e74ab90a8712c41d2b2afae,626b377229c10585ec392f89,626b3a3e0a38f015d191452e,,,,,,,,,,,,,,,,,,,,,,,a,0,"[""0.645"",""0.121"",""0.507"",""0.838""]","[0,1,1,1]",0,61,61,61,1,1,0,,,1,FALSE,1.5653,,,,,,,,,,,,,,,,,,,,,,,,,,,,,,
,,001,2022-04-29_03h07.22.212,classification_task,2021.2.3,Win32,59.89817311,5e74ab90a8712c41d2b2afae,626b377229c10585ec392f89,626b3a3e0a38f015d191452e,,,,,,,,,,,,,,,,,,,,,,,a,1,"[""0.172"",""0.434"",""0.689"",""0.548""]","[1,1,1,0]",0,62,62,62,1,0,1,,,1,FALSE,1.5732,,,,,,,,,,,,,,,,,,,,,,,,,,,,,,
,,001,2022-04-29_03h07.22.212,classification_task,2021.2.3,Win32,59.89817311,5e74ab90a8712c41d2b2afae,626b377229c10585ec392f89,626b3a3e0a38f015d191452e,,,,,,,,,,,,,,,,,,,,,,,a,1,"[""0.292"",""0.332"",""0.801"",""0.620""]","[1,1,1,0]",0,63,63,63,1,0,0,,,1,FALSE,1.1338,,,,,,,,,,,,,,,,,,,,,,,,,,,,,,
,,001,2022-04-29_03h07.22.212,classification_task,2021.2.3,Win32,59.89817311,5e74ab90a8712c41d2b2afae,626b377229c10585ec392f89,626b3a3e0a38f015d191452e,,,,,,,,,,,,,,,,,,,,,,,,,,,,,,,,,,,,,,,0, ,,0,3.447143591,198.3056,0,1,1,1,1,2,2,,,,,,,,,,,,,,,,,
,,001,2022-04-29_03h07.22.212,classification_task,2021.2.3,Win32,59.89817311,5e74ab90a8712c41d2b2afae,626b377229c10585ec392f89,626b3a3e0a38f015d191452e,,,,,,,,,,,,,,,,,,,,,,,,,,,,,,,,,,,,,,,1,  ,,0,8.359816594,206.6053,0,1,1,1,1,2,2,,,,,,,,,,,,,,,,,
,,001,2022-04-29_03h07.22.212,classification_task,2021.2.3,Win32,59.89817311,5e74ab90a8712c41d2b2afae,626b377229c10585ec392f89,626b3a3e0a38f015d191452e,,,,,,,,,,,,,,,,,,,,,,,,,,,,,,,,,,,,,,,2,  ,,0,8.190414076,209.2386,0,1,1,1,1,2,2,,,,,,,,,,,,,,,,,
,,001,2022-04-29_03h07.22.212,classification_task,2021.2.3,Win32,59.89817311,5e74ab90a8712c41d2b2afae,626b377229c10585ec392f89,626b3a3e0a38f015d191452e,,,,,,,,,,,,,,,,,,,,,,,,,,,,,,,,,,,,,,,,,,,,,0,1,1,1,1,,2,,,,,,,,,,,,,,,,,
,,001,2022-04-29_03h07.22.212,classification_task,2021.2.3,Win32,59.89817311,5e74ab90a8712c41d2b2afae,626b377229c10585ec392f89,626b3a3e0a38f015d191452e,,,,,,,,,,,,,,,,,,,,,space,4.9157,a,1,"[""0.292"",""0.332"",""0.801"",""0.599""]","[1,1,1,0]",0,0,0,0,1,0,0,,,1,FALSE,2.6852,,,,,,,,,,,,,,,,,,,,,,,,,,,,,,
,,001,2022-04-29_03h07.22.212,classification_task,2021.2.3,Win32,59.89817311,5e74ab90a8712c41d2b2afae,626b377229c10585ec392f89,626b3a3e0a38f015d191452e,,,,,,,,,,,,,,,,,,,,,,,l,0,"[""0.583"",""0.434"",""0.689"",""0.890""]","[0,1,1,1]",0,1,1,1,1,0,1,,,1,FALSE,1.9897,,,,,,,,,,,,,,,,,,,,,,,,,,,,,,
,,001,2022-04-29_03h07.22.212,classification_task,2021.2.3,Win32,59.89817311,5e74ab90a8712c41d2b2afae,626b377229c10585ec392f89,626b3a3e0a38f015d191452e,,,,,,,,,,,,,,,,,,,,,,,a,1,"[""0.292"",""0.332"",""0.548"",""0.946""]","[1,1,0,1]",0,2,2,2,1,0,0,,,1,FALSE,1.9502,,,,,,,,,,,,,,,,,,,,,,,,,,,,,,
,,001,2022-04-29_03h07.22.212,classification_task,2021.2.3,Win32,59.89817311,5e74ab90a8712c41d2b2afae,626b377229c10585ec392f89,626b3a3e0a38f015d191452e,,,,,,,,,,,,,,,,,,,,,,,l,1,"[""0.028"",""0.223"",""0.637"",""0.741""]","[1,1,0,1]",0,3,3,3,1,1,1,,,1,FALSE,0.9506,,,,,,,,,,,,,,,,,,,,,,,,,,,,,,
,,001,2022-04-29_03h07.22.212,classification_task,2021.2.3,Win32,59.89817311,5e74ab90a8712c41d2b2afae,626b377229c10585ec392f89,626b3a3e0a38f015d191452e,,,,,,,,,,,,,,,,,,,,,,,a,0,"[""0.572"",""0.121"",""0.507"",""0.838""]","[0,1,1,1]",0,4,4,4,1,1,0,,,1,FALSE,1.3675,,,,,,,,,,,,,,,,,,,,,,,,,,,,,,
,,001,2022-04-29_03h07.22.212,classification_task,2021.2.3,Win32,59.89817311,5e74ab90a8712c41d2b2afae,626b377229c10585ec392f89,626b3a3e0a38f015d191452e,,,,,,,,,,,,,,,,,,,,,,,a,1,"[""0.292"",""0.385"",""0.801"",""0.946""]","[1,0,1,1]",0,5,5,5,1,0,0,,,1,FALSE,1.1004,,,,,,,,,,,,,,,,,,,,,,,,,,,,,,
,,001,2022-04-29_03h07.22.212,classification_task,2021.2.3,Win32,59.89817311,5e74ab90a8712c41d2b2afae,626b377229c10585ec392f89,626b3a3e0a38f015d191452e,,,,,,,,,,,,,,,,,,,,,,,a,1,"[""0.567"",""0.332"",""0.801"",""0.946""]","[0,1,1,1]",0,6,6,6,1,0,0,,,1,FALSE,0.8503,,,,,,,,,,,,,,,,,,,,,,,,,,,,,,
,,001,2022-04-29_03h07.22.212,classification_task,2021.2.3,Win32,59.89817311,5e74ab90a8712c41d2b2afae,626b377229c10585ec392f89,626b3a3e0a38f015d191452e,,,,,,,,,,,,,,,,,,,,,,,l,1,"[""0.028"",""0.567"",""0.470"",""0.741""]","[1,0,1,1]",0,7,7,7,1,1,1,,,1,FALSE,0.6331,,,,,,,,,,,,,,,,,,,,,,,,,,,,,,
,,001,2022-04-29_03h07.22.212,classification_task,2021.2.3,Win32,59.89817311,5e74ab90a8712c41d2b2afae,626b377229c10585ec392f89,626b3a3e0a38f015d191452e,,,,,,,,,,,,,,,,,,,,,,,l,1,"[""0.072"",""0.121"",""0.620"",""0.838""]","[1,1,0,1]",0,8,8,8,1,1,0,,,1,FALSE,0.6003,,,,,,,,,,,,,,,,,,,,,,,,,,,,,,
,,001,2022-04-29_03h07.22.212,classification_task,2021.2.3,Win32,59.89817311,5e74ab90a8712c41d2b2afae,626b377229c10585ec392f89,626b3a3e0a38f015d191452e,,,,,,,,,,,,,,,,,,,,,,,l,1,"[""0.072"",""0.121"",""0.507"",""0.583""]","[1,1,1,0]",0,9,9,9,1,1,0,,,1,FALSE,0.5672,,,,,,,,,,,,,,,,,,,,,,,,,,,,,,
,,001,2022-04-29_03h07.22.212,classification_task,2021.2.3,Win32,59.89817311,5e74ab90a8712c41d2b2afae,626b377229c10585ec392f89,626b3a3e0a38f015d191452e,,,,,,,,,,,,,,,,,,,,,,,l,1,"[""0.072"",""0.591"",""0.507"",""0.838""]","[1,0,1,1]",0,10,10,10,1,1,0,,,1,FALSE,0.7315,,,,,,,,,,,,,,,,,,,,,,,,,,,,,,
,,001,2022-04-29_03h07.22.212,classification_task,2021.2.3,Win32,59.89817311,5e74ab90a8712c41d2b2afae,626b377229c10585ec392f89,626b3a3e0a38f015d191452e,,,,,,,,,,,,,,,,,,,,,,,a,1,"[""0.172"",""0.434"",""0.637"",""0.890""]","[1,1,0,1]",0,11,11,11,1,0,1,,,1,FALSE,1.0662,,,,,,,,,,,,,,,,,,,,,,,,,,,,,,
,,001,2022-04-29_03h07.22.212,classification_task,2021.2.3,Win32,59.89817311,5e74ab90a8712c41d2b2afae,626b377229c10585ec392f89,626b3a3e0a38f015d191452e,,,,,,,,,,,,,,,,,,,,,,,a,0,"[""0.637"",""0.223"",""0.470"",""0.741""]","[0,1,1,1]",0,12,12,12,1,1,1,,,1,FALSE,1.1004,,,,,,,,,,,,,,,,,,,,,,,,,,,,,,
,,001,2022-04-29_03h07.22.212,classification_task,2021.2.3,Win32,59.89817311,5e74ab90a8712c41d2b2afae,626b377229c10585ec392f89,626b3a3e0a38f015d191452e,,,,,,,,,,,,,,,,,,,,,,,l,0,"[""0.172"",""0.434"",""0.689"",""0.620""]","[1,1,1,0]",0,13,13,13,1,0,1,,,1,FALSE,2.6339,,,,,,,,,,,,,,,,,,,,,,,,,,,,,,
,,001,2022-04-29_03h07.22.212,classification_task,2021.2.3,Win32,59.89817311,5e74ab90a8712c41d2b2afae,626b377229c10585ec392f89,626b3a3e0a38f015d191452e,,,,,,,,,,,,,,,,,,,,,,,a,1,"[""0.172"",""0.583"",""0.689"",""0.890""]","[1,0,1,1]",0,14,14,14,1,0,1,,,1,FALSE,1.4672,,,,,,,,,,,,,,,,,,,,,,,,,,,,,,
,,001,2022-04-29_03h07.22.212,classification_task,2021.2.3,Win32,59.89817311,5e74ab90a8712c41d2b2afae,626b377229c10585ec392f89,626b3a3e0a38f015d191452e,,,,,,,,,,,,,,,,,,,,,,,l,1,"[""0.028"",""0.223"",""0.470"",""0.645""]","[1,1,1,0]",0,15,15,15,1,1,1,,,1,FALSE,0.8509,,,,,,,,,,,,,,,,,,,,,,,,,,,,,,
,,001,2022-04-29_03h07.22.212,classification_task,2021.2.3,Win32,59.89817311,5e74ab90a8712c41d2b2afae,626b377229c10585ec392f89,626b3a3e0a38f015d191452e,,,,,,,,,,,,,,,,,,,,,,,l,0,"[""0.172"",""0.434"",""0.689"",""0.599""]","[1,1,1,0]",0,16,16,16,1,0,1,,,1,FALSE,1.167,,,,,,,,,,,,,,,,,,,,,,,,,,,,,,
,,001,2022-04-29_03h07.22.212,classification_task,2021.2.3,Win32,59.89817311,5e74ab90a8712c41d2b2afae,626b377229c10585ec392f89,626b3a3e0a38f015d191452e,,,,,,,,,,,,,,,,,,,,,,,l,0,"[""0.292"",""0.366"",""0.801"",""0.946""]","[1,0,1,1]",0,17,17,17,1,0,0,,,1,FALSE,1.2167,,,,,,,,,,,,,,,,,,,,,,,,,,,,,,
,,001,2022-04-29_03h07.22.212,classification_task,2021.2.3,Win32,59.89817311,5e74ab90a8712c41d2b2afae,626b377229c10585ec392f89,626b3a3e0a38f015d191452e,,,,,,,,,,,,,,,,,,,,,,,l,1,"[""0.072"",""0.545"",""0.507"",""0.838""]","[1,0,1,1]",0,18,18,18,1,1,0,,,1,FALSE,1.1329,,,,,,,,,,,,,,,,,,,,,,,,,,,,,,
,,001,2022-04-29_03h07.22.212,classification_task,2021.2.3,Win32,59.89817311,5e74ab90a8712c41d2b2afae,626b377229c10585ec392f89,626b3a3e0a38f015d191452e,,,,,,,,,,,,,,,,,,,,,,,l,0,"[""0.172"",""0.543"",""0.689"",""0.890""]","[1,0,1,1]",0,19,19,19,1,0,1,,,1,FALSE,1.2837,,,,,,,,,,,,,,,,,,,,,,,,,,,,,,
,,001,2022-04-29_03h07.22.212,classification_task,2021.2.3,Win32,59.89817311,5e74ab90a8712c41d2b2afae,626b377229c10585ec392f89,626b3a3e0a38f015d191452e,,,,,,,,,,,,,,,,,,,,,,,a,1,"[""0.385"",""0.332"",""0.801"",""0.946""]","[0,1,1,1]",0,20,20,20,1,0,0,,,1,FALSE,1.1664,,,,,,,,,,,,,,,,,,,,,,,,,,,,,,
,,001,2022-04-29_03h07.22.212,classification_task,2021.2.3,Win32,59.89817311,5e74ab90a8712c41d2b2afae,626b377229c10585ec392f89,626b3a3e0a38f015d191452e,,,,,,,,,,,,,,,,,,,,,,,a,1,"[""0.292"",""0.332"",""0.801"",""0.572""]","[1,1,1,0]",0,21,21,21,1,0,0,,,1,FALSE,0.7501,,,,,,,,,,,,,,,,,,,,,,,,,,,,,,
,,001,2022-04-29_03h07.22.212,classification_task,2021.2.3,Win32,59.89817311,5e74ab90a8712c41d2b2afae,626b377229c10585ec392f89,626b3a3e0a38f015d191452e,,,,,,,,,,,,,,,,,,,,,,,l,1,"[""0.028"",""0.223"",""0.470"",""0.620""]","[1,1,1,0]",0,22,22,22,1,1,1,,,1,FALSE,1.1165,,,,,,,,,,,,,,,,,,,,,,,,,,,,,,
,,001,2022-04-29_03h07.22.212,classification_task,2021.2.3,Win32,59.89817311,5e74ab90a8712c41d2b2afae,626b377229c10585ec392f89,626b3a3e0a38f015d191452e,,,,,,,,,,,,,,,,,,,,,,,a,1,"[""0.172"",""0.434"",""0.573"",""0.890""]","[1,1,0,1]",0,23,23,23,1,0,1,,,1,FALSE,2.9172,,,,,,,,,,,,,,,,,,,,,,,,,,,,,,
,,001,2022-04-29_03h07.22.212,classification_task,2021.2.3,Win32,59.89817311,5e74ab90a8712c41d2b2afae,626b377229c10585ec392f89,626b3a3e0a38f015d191452e,,,,,,,,,,,,,,,,,,,,,,,l,1,"[""0.567"",""0.121"",""0.507"",""0.838""]","[0,1,1,1]",0,24,24,24,1,1,0,,,1,FALSE,2.2507,,,,,,,,,,,,,,,,,,,,,,,,,,,,,,
,,001,2022-04-29_03h07.22.212,classification_task,2021.2.3,Win32,59.89817311,5e74ab90a8712c41d2b2afae,626b377229c10585ec392f89,626b3a3e0a38f015d191452e,,,,,,,,,,,,,,,,,,,,,,,l,1,"[""0.072"",""0.121"",""0.568"",""0.838""]","[1,1,0,1]",0,25,25,25,1,1,0,,,1,FALSE,0.7338,,,,,,,,,,,,,,,,,,,,,,,,,,,,,,
,,001,2022-04-29_03h07.22.212,classification_task,2021.2.3,Win32,59.89817311,5e74ab90a8712c41d2b2afae,626b377229c10585ec392f89,626b3a3e0a38f015d191452e,,,,,,,,,,,,,,,,,,,,,,,a,1,"[""0.548"",""0.434"",""0.689"",""0.890""]","[0,1,1,1]",0,26,26,26,1,0,1,,,1,FALSE,2.3841,,,,,,,,,,,,,,,,,,,,,,,,,,,,,,
,,001,2022-04-29_03h07.22.212,classification_task,2021.2.3,Win32,59.89817311,5e74ab90a8712c41d2b2afae,626b377229c10585ec392f89,626b3a3e0a38f015d191452e,,,,,,,,,,,,,,,,,,,,,,,l,1,"[""0.072"",""0.121"",""0.507"",""0.366""]","[1,1,1,0]",0,27,27,27,1,1,0,,,1,FALSE,2.2178,,,,,,,,,,,,,,,,,,,,,,,,,,,,,,
,,001,2022-04-29_03h07.22.212,classification_task,2021.2.3,Win32,59.89817311,5e74ab90a8712c41d2b2afae,626b377229c10585ec392f89,626b3a3e0a38f015d191452e,,,,,,,,,,,,,,,,,,,,,,,l,1,"[""0.028"",""0.543"",""0.470"",""0.741""]","[1,0,1,1]",0,28,28,28,1,1,1,,,1,FALSE,0.7502,,,,,,,,,,,,,,,,,,,,,,,,,,,,,,
,,001,2022-04-29_03h07.22.212,classification_task,2021.2.3,Win32,59.89817311,5e74ab90a8712c41d2b2afae,626b377229c10585ec392f89,626b3a3e0a38f015d191452e,,,,,,,,,,,,,,,,,,,,,,,a,1,"[""0.292"",""0.332"",""0.567"",""0.946""]","[1,1,0,1]",0,29,29,29,1,0,0,,,1,FALSE,1.4502,,,,,,,,,,,,,,,,,,,,,,,,,,,,,,
,,001,2022-04-29_03h07.22.212,classification_task,2021.2.3,Win32,59.89817311,5e74ab90a8712c41d2b2afae,626b377229c10585ec392f89,626b3a3e0a38f015d191452e,,,,,,,,,,,,,,,,,,,,,,,l,1,"[""0.028"",""0.223"",""0.599"",""0.741""]","[1,1,0,1]",0,30,30,30,1,1,1,,,1,FALSE,0.8336,,,,,,,,,,,,,,,,,,,,,,,,,,,,,,
,,001,2022-04-29_03h07.22.212,classification_task,2021.2.3,Win32,59.89817311,5e74ab90a8712c41d2b2afae,626b377229c10585ec392f89,626b3a3e0a38f015d191452e,,,,,,,,,,,,,,,,,,,,,,,l,1,"[""0.573"",""0.223"",""0.470"",""0.741""]","[0,1,1,1]",0,31,31,31,1,1,1,,,1,FALSE,1.9831,,,,,,,,,,,,,,,,,,,,,,,,,,,,,,
,,001,2022-04-29_03h07.22.212,classification_task,2021.2.3,Win32,59.89817311,5e74ab90a8712c41d2b2afae,626b377229c10585ec392f89,626b3a3e0a38f015d191452e,,,,,,,,,,,,,,,,,,,,,,,l,0,"[""0.172"",""0.434"",""0.689"",""0.637""]","[1,1,1,0]",0,32,32,32,1,0,1,,,1,FALSE,1.4982,,,,,,,,,,,,,,,,,,,,,,,,,,,,,,
,,001,2022-04-29_03h07.22.212,classification_task,2021.2.3,Win32,59.89817311,5e74ab90a8712c41d2b2afae,626b377229c10585ec392f89,626b3a3e0a38f015d191452e,,,,,,,,,,,,,,,,,,,,,,,a,0,"[""0.366"",""0.121"",""0.507"",""0.838""]","[0,1,1,1]",0,33,33,33,1,1,0,,,1,FALSE,1.4835,,,,,,,,,,,,,,,,,,,,,,,,,,,,,,
,,001,2022-04-29_03h07.22.212,classification_task,2021.2.3,Win32,59.89817311,5e74ab90a8712c41d2b2afae,626b377229c10585ec392f89,626b3a3e0a38f015d191452e,,,,,,,,,,,,,,,,,,,,,,,a,1,"[""0.172"",""0.543"",""0.689"",""0.890""]","[1,0,1,1]",0,34,34,34,1,0,1,,,1,FALSE,1.301,,,,,,,,,,,,,,,,,,,,,,,,,,,,,,
,,001,2022-04-29_03h07.22.212,classification_task,2021.2.3,Win32,59.89817311,5e74ab90a8712c41d2b2afae,626b377229c10585ec392f89,626b3a3e0a38f015d191452e,,,,,,,,,,,,,,,,,,,,,,,l,1,"[""0.028"",""0.223"",""0.470"",""0.548""]","[1,1,1,0]",0,35,35,35,1,1,1,,,1,FALSE,0.8832,,,,,,,,,,,,,,,,,,,,,,,,,,,,,,
,,001,2022-04-29_03h07.22.212,classification_task,2021.2.3,Win32,59.89817311,5e74ab90a8712c41d2b2afae,626b377229c10585ec392f89,626b3a3e0a38f015d191452e,,,,,,,,,,,,,,,,,,,,,,,l,1,"[""0.028"",""0.545"",""0.470"",""0.741""]","[1,0,1,1]",0,36,36,36,1,1,1,,,1,FALSE,0.6668,,,,,,,,,,,,,,,,,,,,,,,,,,,,,,
,,001,2022-04-29_03h07.22.212,classification_task,2021.2.3,Win32,59.89817311,5e74ab90a8712c41d2b2afae,626b377229c10585ec392f89,626b3a3e0a38f015d191452e,,,,,,,,,,,,,,,,,,,,,,,l,0,"[""0.637"",""0.332"",""0.801"",""0.946""]","[0,1,1,1]",0,37,37,37,1,0,0,,,1,FALSE,1.4338,,,,,,,,,,,,,,,,,,,,,,,,,,,,,,
,,001,2022-04-29_03h07.22.212,classification_task,2021.2.3,Win32,59.89817311,5e74ab90a8712c41d2b2afae,626b377229c10585ec392f89,626b3a3e0a38f015d191452e,,,,,,,,,,,,,,,,,,,,,,,l,0,"[""0.292"",""0.392"",""0.801"",""0.946""]","[1,0,1,1]",0,38,38,38,1,0,0,,,1,FALSE,2.3501,,,,,,,,,,,,,,,,,,,,,,,,,,,,,,
,,001,2022-04-29_03h07.22.212,classification_task,2021.2.3,Win32,59.89817311,5e74ab90a8712c41d2b2afae,626b377229c10585ec392f89,626b3a3e0a38f015d191452e,,,,,,,,,,,,,,,,,,,,,,,a,0,"[""0.072"",""0.568"",""0.507"",""0.838""]","[1,0,1,1]",0,39,39,39,1,1,0,,,1,FALSE,1.0453,,,,,,,,,,,,,,,,,,,,,,,,,,,,,,
,,001,2022-04-29_03h07.22.212,classification_task,2021.2.3,Win32,59.89817311,5e74ab90a8712c41d2b2afae,626b377229c10585ec392f89,626b3a3e0a38f015d191452e,,,,,,,,,,,,,,,,,,,,,,,l,0,"[""0.292"",""0.332"",""0.572"",""0.946""]","[1,1,0,1]",0,40,40,40,1,0,0,,,1,FALSE,0.6674,,,,,,,,,,,,,,,,,,,,,,,,,,,,,,
,,001,2022-04-29_03h07.22.212,classification_task,2021.2.3,Win32,59.89817311,5e74ab90a8712c41d2b2afae,626b377229c10585ec392f89,626b3a3e0a38f015d191452e,,,,,,,,,,,,,,,,,,,,,,,l,1,"[""0.637"",""0.223"",""0.470"",""0.741""]","[0,1,1,1]",0,41,41,41,1,1,1,,,1,FALSE,0.9001,,,,,,,,,,,,,,,,,,,,,,,,,,,,,,
,,001,2022-04-29_03h07.22.212,classification_task,2021.2.3,Win32,59.89817311,5e74ab90a8712c41d2b2afae,626b377229c10585ec392f89,626b3a3e0a38f015d191452e,,,,,,,,,,,,,,,,,,,,,,,l,0,"[""0.172"",""0.434"",""0.637"",""0.890""]","[1,1,0,1]",0,42,42,42,1,0,1,,,1,FALSE,0.9841,,,,,,,,,,,,,,,,,,,,,,,,,,,,,,
,,001,2022-04-29_03h07.22.212,classification_task,2021.2.3,Win32,59.89817311,5e74ab90a8712c41d2b2afae,626b377229c10585ec392f89,626b3a3e0a38f015d191452e,,,,,,,,,,,,,,,,,,,,,,,l,1,"[""0.072"",""0.121"",""0.507"",""0.645""]","[1,1,1,0]",0,43,43,43,1,1,0,,,1,FALSE,0.85,,,,,,,,,,,,,,,,,,,,,,,,,,,,,,
,,001,2022-04-29_03h07.22.212,classification_task,2021.2.3,Win32,59.89817311,5e74ab90a8712c41d2b2afae,626b377229c10585ec392f89,626b3a3e0a38f015d191452e,,,,,,,,,,,,,,,,,,,,,,,a,1,"[""0.292"",""0.332"",""0.801"",""0.567""]","[1,1,1,0]",0,44,44,44,1,0,0,,,1,FALSE,1.3165,,,,,,,,,,,,,,,,,,,,,,,,,,,,,,
,,001,2022-04-29_03h07.22.212,classification_task,2021.2.3,Win32,59.89817311,5e74ab90a8712c41d2b2afae,626b377229c10585ec392f89,626b3a3e0a38f015d191452e,,,,,,,,,,,,,,,,,,,,,,,a,1,"[""0.583"",""0.434"",""0.689"",""0.890""]","[0,1,1,1]",0,45,45,45,1,0,1,,,1,FALSE,1.0835,,,,,,,,,,,,,,,,,,,,,,,,,,,,,,
,,001,2022-04-29_03h07.22.212,classification_task,2021.2.3,Win32,59.89817311,5e74ab90a8712c41d2b2afae,626b377229c10585ec392f89,626b3a3e0a38f015d191452e,,,,,,,,,,,,,,,,,,,,,,,l,1,"[""0.028"",""0.223"",""0.572"",""0.741""]","[1,1,0,1]",0,46,46,46,1,1,1,,,1,FALSE,1.1836,,,,,,,,,,,,,,,,,,,,,,,,,,,,,,
,,001,2022-04-29_03h07.22.212,classification_task,2021.2.3,Win32,59.89817311,5e74ab90a8712c41d2b2afae,626b377229c10585ec392f89,626b3a3e0a38f015d191452e,,,,,,,,,,,,,,,,,,,,,,,a,0,"[""0.072"",""0.121"",""0.645"",""0.838""]","[1,1,0,1]",0,47,47,47,1,1,0,,,1,FALSE,1.0831,,,,,,,,,,,,,,,,,,,,,,,,,,,,,,
,,001,2022-04-29_03h07.22.212,classification_task,2021.2.3,Win32,59.89817311,5e74ab90a8712c41d2b2afae,626b377229c10585ec392f89,626b3a3e0a38f015d191452e,,,,,,,,,,,,,,,,,,,,,,,l,1,"[""0.072"",""0.121"",""0.507"",""0.591""]","[1,1,1,0]",0,48,48,48,1,1,0,,,1,FALSE,0.7341,,,,,,,,,,,,,,,,,,,,,,,,,,,,,,
,,001,2022-04-29_03h07.22.212,classification_task,2021.2.3,Win32,59.89817311,5e74ab90a8712c41d2b2afae,626b377229c10585ec392f89,626b3a3e0a38f015d191452e,,,,,,,,,,,,,,,,,,,,,,,l,0,"[""0.366"",""0.434"",""0.689"",""0.890""]","[0,1,1,1]",0,49,49,49,1,0,1,,,1,FALSE,1.2672,,,,,,,,,,,,,,,,,,,,,,,,,,,,,,
,,001,2022-04-29_03h07.22.212,classification_task,2021.2.3,Win32,59.89817311,5e74ab90a8712c41d2b2afae,626b377229c10585ec392f89,626b3a3e0a38f015d191452e,,,,,,,,,,,,,,,,,,,,,,,l,1,"[""0.028"",""0.645"",""0.470"",""0.741""]","[1,0,1,1]",0,50,50,50,1,1,1,,,1,FALSE,0.8167,,,,,,,,,,,,,,,,,,,,,,,,,,,,,,
,,001,2022-04-29_03h07.22.212,classification_task,2021.2.3,Win32,59.89817311,5e74ab90a8712c41d2b2afae,626b377229c10585ec392f89,626b3a3e0a38f015d191452e,,,,,,,,,,,,,,,,,,,,,,,l,0,"[""0.172"",""0.434"",""0.568"",""0.890""]","[1,1,0,1]",0,51,51,51,1,0,1,,,1,FALSE,1.4506,,,,,,,,,,,,,,,,,,,,,,,,,,,,,,
,,001,2022-04-29_03h07.22.212,classification_task,2021.2.3,Win32,59.89817311,5e74ab90a8712c41d2b2afae,626b377229c10585ec392f89,626b3a3e0a38f015d191452e,,,,,,,,,,,,,,,,,,,,,,,a,1,"[""0.292"",""0.332"",""0.645"",""0.946""]","[1,1,0,1]",0,52,52,52,1,0,0,,,1,FALSE,1.1684,,,,,,,,,,,,,,,,,,,,,,,,,,,,,,
,,001,2022-04-29_03h07.22.212,classification_task,2021.2.3,Win32,59.89817311,5e74ab90a8712c41d2b2afae,626b377229c10585ec392f89,626b3a3e0a38f015d191452e,,,,,,,,,,,,,,,,,,,,,,,l,1,"[""0.072"",""0.385"",""0.507"",""0.838""]","[1,0,1,1]",0,53,53,53,1,1,0,,,1,FALSE,0.8349,,,,,,,,,,,,,,,,,,,,,,,,,,,,,,
,,001,2022-04-29_03h07.22.212,classification_task,2021.2.3,Win32,59.89817311,5e74ab90a8712c41d2b2afae,626b377229c10585ec392f89,626b3a3e0a38f015d191452e,,,,,,,,,,,,,,,,,,,,,,,a,0,"[""0.620"",""0.223"",""0.470"",""0.741""]","[0,1,1,1]",0,54,54,54,1,1,1,,,1,FALSE,1.4432,,,,,,,,,,,,,,,,,,,,,,,,,,,,,,
,,001,2022-04-29_03h07.22.212,classification_task,2021.2.3,Win32,59.89817311,5e74ab90a8712c41d2b2afae,626b377229c10585ec392f89,626b3a3e0a38f015d191452e,,,,,,,,,,,,,,,,,,,,,,,l,1,"[""0.548"",""0.121"",""0.507"",""0.838""]","[0,1,1,1]",0,55,55,55,1,1,0,,,1,FALSE,0.8786,,,,,,,,,,,,,,,,,,,,,,,,,,,,,,
,,001,2022-04-29_03h07.22.212,classification_task,2021.2.3,Win32,59.89817311,5e74ab90a8712c41d2b2afae,626b377229c10585ec392f89,626b3a3e0a38f015d191452e,,,,,,,,,,,,,,,,,,,,,,,l,1,"[""0.028"",""0.223"",""0.392"",""0.741""]","[1,1,0,1]",0,56,56,56,1,1,1,,,1,FALSE,1.0668,,,,,,,,,,,,,,,,,,,,,,,,,,,,,,
,,001,2022-04-29_03h07.22.212,classification_task,2021.2.3,Win32,59.89817311,5e74ab90a8712c41d2b2afae,626b377229c10585ec392f89,626b3a3e0a38f015d191452e,,,,,,,,,,,,,,,,,,,,,,,l,0,"[""0.172"",""0.366"",""0.689"",""0.890""]","[1,0,1,1]",0,57,57,57,1,0,1,,,1,FALSE,1.1499,,,,,,,,,,,,,,,,,,,,,,,,,,,,,,
,,001,2022-04-29_03h07.22.212,classification_task,2021.2.3,Win32,59.89817311,5e74ab90a8712c41d2b2afae,626b377229c10585ec392f89,626b3a3e0a38f015d191452e,,,,,,,,,,,,,,,,,,,,,,,l,1,"[""0.028"",""0.223"",""0.470"",""0.385""]","[1,1,1,0]",0,58,58,58,1,1,1,,,1,FALSE,0.7749,,,,,,,,,,,,,,,,,,,,,,,,,,,,,,
,,001,2022-04-29_03h07.22.212,classification_task,2021.2.3,Win32,59.89817311,5e74ab90a8712c41d2b2afae,626b377229c10585ec392f89,626b3a3e0a38f015d191452e,,,,,,,,,,,,,,,,,,,,,,,a,1,"[""0.599"",""0.332"",""0.801"",""0.946""]","[0,1,1,1]",0,59,59,59,1,0,0,,,1,FALSE,1.2672,,,,,,,,,,,,,,,,,,,,,,,,,,,,,,
,,001,2022-04-29_03h07.22.212,classification_task,2021.2.3,Win32,59.89817311,5e74ab90a8712c41d2b2afae,626b377229c10585ec392f89,626b3a3e0a38f015d191452e,,,,,,,,,,,,,,,,,,,,,,,l,0,"[""0.172"",""0.434"",""0.689"",""0.645""]","[1,1,1,0]",0,60,60,60,1,0,1,,,1,FALSE,1.0987,,,,,,,,,,,,,,,,,,,,,,,,,,,,,,
,,001,2022-04-29_03h07.22.212,classification_task,2021.2.3,Win32,59.89817311,5e74ab90a8712c41d2b2afae,626b377229c10585ec392f89,626b3a3e0a38f015d191452e,,,,,,,,,,,,,,,,,,,,,,,l,0,"[""0.292"",""0.332"",""0.801"",""0.548""]","[1,1,1,0]",0,61,61,61,1,0,0,,,1,FALSE,7.1317,,,,,,,,,,,,,,,,,,,,,,,,,,,,,,
,,001,2022-04-29_03h07.22.212,classification_task,2021.2.3,Win32,59.89817311,5e74ab90a8712c41d2b2afae,626b377229c10585ec392f89,626b3a3e0a38f015d191452e,,,,,,,,,,,,,,,,,,,,,,,l,0,"[""0.292"",""0.599"",""0.801"",""0.946""]","[1,0,1,1]",0,62,62,62,1,0,0,,,1,FALSE,0.9829,,,,,,,,,,,,,,,,,,,,,,,,,,,,,,
,,001,2022-04-29_03h07.22.212,classification_task,2021.2.3,Win32,59.89817311,5e74ab90a8712c41d2b2afae,626b377229c10585ec392f89,626b3a3e0a38f015d191452e,,,,,,,,,,,,,,,,,,,,,,,l,1,"[""0.072"",""0.121"",""0.572"",""0.838""]","[1,1,0,1]",0,63,63,63,1,1,0,,,1,FALSE,1.0328,,,,,,,,,,,,,,,,,,,,,,,,,,,,,,
,,001,2022-04-29_03h07.22.212,classification_task,2021.2.3,Win32,59.89817311,5e74ab90a8712c41d2b2afae,626b377229c10585ec392f89,626b3a3e0a38f015d191452e,,,,,,,,,,,,,,,,,,,,,,,,,,,,,,,,,,,,,,,0, ,,0,4.294156178,170.0795,0,2,2,2,1,2,3,,,,,,,,,,,,,,,,,
,,001,2022-04-29_03h07.22.212,classification_task,2021.2.3,Win32,59.89817311,5e74ab90a8712c41d2b2afae,626b377229c10585ec392f89,626b3a3e0a38f015d191452e,,,,,,,,,,,,,,,,,,,,,,,,,,,,,,,,,,,,,,,1,  ,,0,10,171.9026,0,2,2,2,1,2,3,,,,,,,,,,,,,,,,,
,,001,2022-04-29_03h07.22.212,classification_task,2021.2.3,Win32,59.89817311,5e74ab90a8712c41d2b2afae,626b377229c10585ec392f89,626b3a3e0a38f015d191452e,,,,,,,,,,,,,,,,,,,,,,,,,,,,,,,,,,,,,,,2,  ,,0,10,172.7795,0,2,2,2,1,2,3,,,,,,,,,,,,,,,,,
,,001,2022-04-29_03h07.22.212,classification_task,2021.2.3,Win32,59.89817311,5e74ab90a8712c41d2b2afae,626b377229c10585ec392f89,626b3a3e0a38f015d191452e,,,,,,,,,,,,,,,,,,,,,,,,,,,,,,,,,,,,,,,,,,,,,0,2,2,2,1,,3,,,,,,,,,,,,,,,,,
,,001,2022-04-29_03h07.22.212,classification_task,2021.2.3,Win32,59.89817311,5e74ab90a8712c41d2b2afae,626b377229c10585ec392f89,626b3a3e0a38f015d191452e,,,,,,,,,,,,,,,,,,,,,,,,,,,,,,,,,,,,,,,,,,,,,,,,,,,,,I believe the aid is a competent performer,,0.7,0,2,922.235,0,0,0,0,1,0,,,,
,,001,2022-04-29_03h07.22.212,classification_task,2021.2.3,Win32,59.89817311,5e74ab90a8712c41d2b2afae,626b377229c10585ec392f89,626b3a3e0a38f015d191452e,,,,,,,,,,,,,,,,,,,,,,,,,,,,,,,,,,,,,,,,,,,,,,,,,,,,,I trust the aid,,0.7,0,2,921.5917,0,0,0,0,1,0,,,,
,,001,2022-04-29_03h07.22.212,classification_task,2021.2.3,Win32,59.89817311,5e74ab90a8712c41d2b2afae,626b377229c10585ec392f89,626b3a3e0a38f015d191452e,,,,,,,,,,,,,,,,,,,,,,,,,,,,,,,,,,,,,,,,,,,,,,,,,,,,,I have confidence in the advice given by the aid,,0.7,0,3,923.8325,0,0,0,0,1,0,,,,
,,001,2022-04-29_03h07.22.212,classification_task,2021.2.3,Win32,59.89817311,5e74ab90a8712c41d2b2afae,626b377229c10585ec392f89,626b3a3e0a38f015d191452e,,,,,,,,,,,,,,,,,,,,,,,,,,,,,,,,,,,,,,,,,,,,,,,,,,,,,I can depend on the aid,,0.7,0,2,926.5377,0,0,0,0,1,0,,,,
,,001,2022-04-29_03h07.22.212,classification_task,2021.2.3,Win32,59.89817311,5e74ab90a8712c41d2b2afae,626b377229c10585ec392f89,626b3a3e0a38f015d191452e,,,,,,,,,,,,,,,,,,,,,,,,,,,,,,,,,,,,,,,,,,,,,,,,,,,,,I can rely on the aid to behave in consistent ways,,0.7,0,3,928.3444,0,0,0,0,1,0,,,,
,,001,2022-04-29_03h07.22.212,classification_task,2021.2.3,Win32,59.89817311,5e74ab90a8712c41d2b2afae,626b377229c10585ec392f89,626b3a3e0a38f015d191452e,,,,,,,,,,,,,,,,,,,,,,,,,,,,,,,,,,,,,,,,,,,,,,,,,,,,,I can rely on the aid to do its best every time I take its advice,,0.7,0,2,930.6934,0,0,0,0,1,0,,,,
,,001,2022-04-29_03h07.22.212,classification_task,2021.2.3,Win32,59.89817311,5e74ab90a8712c41d2b2afae,626b377229c10585ec392f89,626b3a3e0a38f015d191452e,,,,,,,,,,,,,,,,,,,,,,,,,,,,,,,,,,,,,,,,,,,,,,,,,,,,,"On trials you completed with assistance from the aid, how frequently did you think the aid was correct?",,0.7,0,60%,,0,0,0,0,1,0,,,,
,,001,2022-04-29_03h07.22.212,classification_task,2021.2.3,Win32,59.89817311,5e74ab90a8712c41d2b2afae,626b377229c10585ec392f89,626b3a3e0a38f015d191452e,,,,,,,,,,,,,,,,,,,,,,,,,,,,,,,,,,,,,,,,,,,,,,,,,,,,,"On trials you completed without the aid, how frequently did you think you were correct?",,0.7,0,25%,,0,0,0,0,1,0,,,,
,,001,2022-04-29_03h07.22.212,classification_task,2021.2.3,Win32,59.89817311,5e74ab90a8712c41d2b2afae,626b377229c10585ec392f89,626b3a3e0a38f015d191452e,,,,,,,,,,,,,,,,,,,,,,,,,,,,,,,,,,,,,,,,,,,,,,,,,,,,,,,,,,,0,0,0,0,1,,,,,
,,001,2022-04-29_03h07.22.212,classification_task,2021.2.3,Win32,59.89817311,5e74ab90a8712c41d2b2afae,626b377229c10585ec392f89,626b3a3e0a38f015d191452e,,,,,,,,,,,,,,,,,,,,,,,,,,,,,,,,,,,,,,,,,,,,,,,,,,,,,,,,,,,,,,,,,space,4.0845,951.9636,
,,001,2022-04-29_03h07.22.212,classification_task,2021.2.3,Win32,59.89817311,5e74ab90a8712c41d2b2afae,626b377229c10585ec392f89,626b3a3e0a38f015d191452e,,,,,,,,,,,,,,,,,,,,,,,,,,,,,,,,,,,,,,,,,,,,,,,,,,,,,,,,,,,,,,,,,,,,"Mozilla/5.0 (Windows NT 10.0; Win64; x64) AppleWebKit/537.36 (KHTML, like Gecko) Chrome/100.0.4896.127 Safari/537.36"
