usingWebGL,participant,session,date,expName,psychopyVersion,OS,frameRate,PROLIFIC_PID,STUDY_ID,SESSION_ID,signatures_friend,signatures_foe,band_ranges_top,band_ranges_bottom,formitemText,formtype,formundefined,formitemWidth,formindex,formresponse,formrt,key_resp_2.keys,key_resp_2.rt,tute_resp.keys,tute_resp.rt,tutorial.thisRepN,tutorial.thisTrialN,tutorial.thisN,tutorial.thisIndex,tutorial.ran,key_resp_4.keys,key_resp_4.rt,key_resp.keys,key_resp.corr,lines_presented,is_signal_presented,trials.thisRepN,trials.thisTrialN,trials.thisN,trials.thisIndex,trials.ran,vessel,active_band,lines,is_signal,supported_pos,catch_trial,key_resp.rt,debrief_formindex,debrief_formitemText,debrief_formtype,debrief_formitemWidth,debrief_formresponse,debrief_formrt,phases.thisRepN,phases.thisTrialN,phases.thisN,phases.thisIndex,phases.ran,phases.order,phase,key_resp_3.keys,trustitemText,trusttype,trustitemWidth,trustindex,trustresponse,trustrt,support_status.thisRepN,support_status.thisTrialN,support_status.thisN,support_status.thisIndex,support_status.ran,support_status.order,key_resp_5.keys,key_resp_5.rt,globalClockTime,userAgent
TRUE,,001,2022-04-29_03h00.22.867,classification_task,2021.2.3,Win32,144.092219,612ad244a22f81bb9b223500,626b377229c10585ec392f8a,626b387cced737ca75b866ca,,,,,,,,,,,,,,,,,,,,,,,,,,,,,,,,,,,,,,,,,,,,,,,,,,,,,,,,,,,,,,,,,,,,
,,001,2022-04-29_03h00.22.867,classification_task,2021.2.3,Win32,144.092219,612ad244a22f81bb9b223500,626b377229c10585ec392f8a,626b387cced737ca75b866ca,"[[""0.307"",""0.463"",""0.883"",""0.951""],[""0.210"",""0.540"",""0.758"",""0.918""]]","[[""0.044"",""0.247"",""0.499"",""0.805""],[""0.092"",""0.375"",""0.581"",""0.679""]]","[1,10]","[100,1000]",Video game experience,,,0.7,0,,,,,,,,,,,,,,,,,,,,,,,,,,,,,,,,,,,,,,,,,,,,,,,,,,,,,,,,,,,
,,001,2022-04-29_03h00.22.867,classification_task,2021.2.3,Win32,144.092219,612ad244a22f81bb9b223500,626b377229c10585ec392f8a,626b387cced737ca75b866ca,,,,,Approximately how many hours did you spend playing video games in the last week?,,,0.7,0,15,,,,,,,,,,,,,,,,,,,,,,,,,,,,,,,,,,,,,,,,,,,,,,,,,,,,,,,,,,
,,001,2022-04-29_03h00.22.867,classification_task,2021.2.3,Win32,144.092219,612ad244a22f81bb9b223500,626b377229c10585ec392f8a,626b387cced737ca75b866ca,,,,,"Which game did you play the most this year? (Enter ""None"" if you didn't play any)",,,0.7,0,League of Legends,,,,,,,,,,,,,,,,,,,,,,,,,,,,,,,,,,,,,,,,,,,,,,,,,,,,,,,,,,
,,001,2022-04-29_03h00.22.867,classification_task,2021.2.3,Win32,144.092219,612ad244a22f81bb9b223500,626b377229c10585ec392f8a,626b387cced737ca75b866ca,,,,,Visual perception,,,0.7,0,,,,,,,,,,,,,,,,,,,,,,,,,,,,,,,,,,,,,,,,,,,,,,,,,,,,,,,,,,,
,,001,2022-04-29_03h00.22.867,classification_task,2021.2.3,Win32,144.092219,612ad244a22f81bb9b223500,626b377229c10585ec392f8a,626b387cced737ca75b866ca,,,,,Do you have any form of color blindness?,,,0.7,0,No,37.618,,,,,,,,,,,,,,,,,,,,,,,,,,,,,,,,,,,,,,,,,,,,,,,,,,,,,,,,,
,,001,2022-04-29_03h00.22.867,classification_task,2021.2.3,Win32,144.092219,612ad244a22f81bb9b223500,626b377229c10585ec392f8a,626b387cced737ca75b866ca,,,,,Do you use software to change the colour temperature of your screen (e.g. f.lux)?,,,0.7,0,No,41.682,,,,,,,,,,,,,,,,,,,,,,,,,,,,,,,,,,,,,,,,,,,,,,,,,,,,,,,,,
,,001,2022-04-29_03h00.22.867,classification_task,2021.2.3,Win32,144.092219,612ad244a22f81bb9b223500,626b377229c10585ec392f8a,626b387cced737ca75b866ca,,,,,,,,,,,,space,13.402,space,10.459,0,0,0,0,1,,,,,,,,,,,,,,,,,,,,,,,,,,,,,,,,,,,,,,,,,,,,,,,,
,,001,2022-04-29_03h00.22.867,classification_task,2021.2.3,Win32,144.092219,612ad244a22f81bb9b223500,626b377229c10585ec392f8a,626b387cced737ca75b866ca,,,,,,,,,,,,,,space,12.503,1,0,1,0,1,,,,,,,,,,,,,,,,,,,,,,,,,,,,,,,,,,,,,,,,,,,,,,,,
,,001,2022-04-29_03h00.22.867,classification_task,2021.2.3,Win32,144.092219,612ad244a22f81bb9b223500,626b377229c10585ec392f8a,626b387cced737ca75b866ca,,,,,,,,,,,,,,space,15.029,2,0,2,0,1,,,,,,,,,,,,,,,,,,,,,,,,,,,,,,,,,,,,,,,,,,,,,,,,
,,001,2022-04-29_03h00.22.867,classification_task,2021.2.3,Win32,144.092219,612ad244a22f81bb9b223500,626b377229c10585ec392f8a,626b387cced737ca75b866ca,,,,,,,,,,,,,,space,18.844,3,0,3,0,1,,,,,,,,,,,,,,,,,,,,,,,,,,,,,,,,,,,,,,,,,,,,,,,,
,,001,2022-04-29_03h00.22.867,classification_task,2021.2.3,Win32,144.092219,612ad244a22f81bb9b223500,626b377229c10585ec392f8a,626b387cced737ca75b866ca,,,,,,,,,,,,,,space,12.502,4,0,4,0,1,,,,,,,,,,,,,,,,,,,,,,,,,,,,,,,,,,,,,,,,,,,,,,,,
,,001,2022-04-29_03h00.22.867,classification_task,2021.2.3,Win32,144.092219,612ad244a22f81bb9b223500,626b377229c10585ec392f8a,626b387cced737ca75b866ca,,,,,,,,,,,,,,,,,,,,,space,3.454,,0,"[""0.210"",""0.540"",""0.175"",""0.918""]","[1,1,0,1]",0,0,0,0,1,0,1,,,0,FALSE,,,,,,,,,,,,,,,,,,,,,,,,,,,,,,,
,,001,2022-04-29_03h00.22.867,classification_task,2021.2.3,Win32,144.092219,612ad244a22f81bb9b223500,626b377229c10585ec392f8a,626b387cced737ca75b866ca,,,,,,,,,,,,,,,,,,,,,,,a,1,"[""0.161"",""0.463"",""0.883"",""0.951""]","[0,1,1,1]",0,1,1,1,1,0,0,,,0,FALSE,5.216,,,,,,,,,,,,,,,,,,,,,,,,,,,,,,
,,001,2022-04-29_03h00.22.867,classification_task,2021.2.3,Win32,144.092219,612ad244a22f81bb9b223500,626b377229c10585ec392f8a,626b387cced737ca75b866ca,,,,,,,,,,,,,,,,,,,,,,,l,1,"[""0.092"",""0.159"",""0.581"",""0.679""]","[1,0,1,1]",0,2,2,2,1,1,1,,,0,FALSE,5.315,,,,,,,,,,,,,,,,,,,,,,,,,,,,,,
,,001,2022-04-29_03h00.22.867,classification_task,2021.2.3,Win32,144.092219,612ad244a22f81bb9b223500,626b377229c10585ec392f8a,626b387cced737ca75b866ca,,,,,,,,,,,,,,,,,,,,,,,l,1,"[""0.092"",""0.375"",""0.581"",""0.418""]","[1,1,1,0]",0,3,3,3,1,1,1,,,0,FALSE,6.33,,,,,,,,,,,,,,,,,,,,,,,,,,,,,,
,,001,2022-04-29_03h00.22.867,classification_task,2021.2.3,Win32,144.092219,612ad244a22f81bb9b223500,626b377229c10585ec392f8a,626b387cced737ca75b866ca,,,,,,,,,,,,,,,,,,,,,,,l,1,"[""0.846"",""0.247"",""0.499"",""0.805""]","[0,1,1,1]",0,4,4,4,1,1,0,,,0,FALSE,4.569,,,,,,,,,,,,,,,,,,,,,,,,,,,,,,
,,001,2022-04-29_03h00.22.867,classification_task,2021.2.3,Win32,144.092219,612ad244a22f81bb9b223500,626b377229c10585ec392f8a,626b387cced737ca75b866ca,,,,,,,,,,,,,,,,,,,,,,,l,0,"[""0.307"",""0.463"",""0.883"",""0.161""]","[1,1,1,0]",0,5,5,5,1,0,0,,,0,FALSE,8.604,,,,,,,,,,,,,,,,,,,,,,,,,,,,,,
,,001,2022-04-29_03h00.22.867,classification_task,2021.2.3,Win32,144.092219,612ad244a22f81bb9b223500,626b377229c10585ec392f8a,626b387cced737ca75b866ca,,,,,,,,,,,,,,,,,,,,,,,l,1,"[""0.044"",""0.247"",""0.411"",""0.805""]","[1,1,0,1]",0,6,6,6,1,1,0,,,0,FALSE,2.601,,,,,,,,,,,,,,,,,,,,,,,,,,,,,,
,,001,2022-04-29_03h00.22.867,classification_task,2021.2.3,Win32,144.092219,612ad244a22f81bb9b223500,626b377229c10585ec392f8a,626b387cced737ca75b866ca,,,,,,,,,,,,,,,,,,,,,,,l,0,"[""0.307"",""0.463"",""0.159"",""0.951""]","[1,1,0,1]",0,7,7,7,1,0,0,,,0,FALSE,5.695,,,,,,,,,,,,,,,,,,,,,,,,,,,,,,
,,001,2022-04-29_03h00.22.867,classification_task,2021.2.3,Win32,144.092219,612ad244a22f81bb9b223500,626b377229c10585ec392f8a,626b387cced737ca75b866ca,,,,,,,,,,,,,,,,,,,,,,,l,1,"[""0.044"",""0.615"",""0.499"",""0.805""]","[1,0,1,1]",0,8,8,8,1,1,0,,,0,FALSE,7.799,,,,,,,,,,,,,,,,,,,,,,,,,,,,,,
,,001,2022-04-29_03h00.22.867,classification_task,2021.2.3,Win32,144.092219,612ad244a22f81bb9b223500,626b377229c10585ec392f8a,626b387cced737ca75b866ca,,,,,,,,,,,,,,,,,,,,,,,,0,"[""0.149"",""0.540"",""0.758"",""0.918""]","[0,1,1,1]",0,9,9,9,1,0,1,,,0,FALSE,,,,,,,,,,,,,,,,,,,,,,,,,,,,,,,
,,001,2022-04-29_03h00.22.867,classification_task,2021.2.3,Win32,144.092219,612ad244a22f81bb9b223500,626b377229c10585ec392f8a,626b387cced737ca75b866ca,,,,,,,,,,,,,,,,,,,,,,,l,1,"[""0.141"",""0.375"",""0.581"",""0.679""]","[0,1,1,1]",0,10,10,10,1,1,1,,,0,FALSE,1.743,,,,,,,,,,,,,,,,,,,,,,,,,,,,,,
,,001,2022-04-29_03h00.22.867,classification_task,2021.2.3,Win32,144.092219,612ad244a22f81bb9b223500,626b377229c10585ec392f8a,626b387cced737ca75b866ca,,,,,,,,,,,,,,,,,,,,,,,l,1,"[""0.092"",""0.375"",""0.146"",""0.679""]","[1,1,0,1]",0,11,11,11,1,1,1,,,0,FALSE,4.977,,,,,,,,,,,,,,,,,,,,,,,,,,,,,,
,,001,2022-04-29_03h00.22.867,classification_task,2021.2.3,Win32,144.092219,612ad244a22f81bb9b223500,626b377229c10585ec392f8a,626b387cced737ca75b866ca,,,,,,,,,,,,,,,,,,,,,,,a,1,"[""0.210"",""0.411"",""0.758"",""0.918""]","[1,0,1,1]",0,12,12,12,1,0,1,,,0,FALSE,6.639,,,,,,,,,,,,,,,,,,,,,,,,,,,,,,
,,001,2022-04-29_03h00.22.867,classification_task,2021.2.3,Win32,144.092219,612ad244a22f81bb9b223500,626b377229c10585ec392f8a,626b387cced737ca75b866ca,,,,,,,,,,,,,,,,,,,,,,,l,1,"[""0.044"",""0.247"",""0.499"",""0.627""]","[1,1,1,0]",0,13,13,13,1,1,0,,,0,FALSE,3.47,,,,,,,,,,,,,,,,,,,,,,,,,,,,,,
,,001,2022-04-29_03h00.22.867,classification_task,2021.2.3,Win32,144.092219,612ad244a22f81bb9b223500,626b377229c10585ec392f8a,626b387cced737ca75b866ca,,,,,,,,,,,,,,,,,,,,,,,a,1,"[""0.210"",""0.540"",""0.758"",""0.627""]","[1,1,1,0]",0,14,14,14,1,0,1,,,0,FALSE,5.548,,,,,,,,,,,,,,,,,,,,,,,,,,,,,,
,,001,2022-04-29_03h00.22.867,classification_task,2021.2.3,Win32,144.092219,612ad244a22f81bb9b223500,626b377229c10585ec392f8a,626b387cced737ca75b866ca,,,,,,,,,,,,,,,,,,,,,,,a,1,"[""0.307"",""0.641"",""0.883"",""0.951""]","[1,0,1,1]",0,15,15,15,1,0,0,,,0,FALSE,5.986,,,,,,,,,,,,,,,,,,,,,,,,,,,,,,
,,001,2022-04-29_03h00.22.867,classification_task,2021.2.3,Win32,144.092219,612ad244a22f81bb9b223500,626b377229c10585ec392f8a,626b387cced737ca75b866ca,,,,,,,,,,,,,,,,,,,,,,,l,0,"[""0.210"",""0.540"",""0.154"",""0.918""]","[1,1,0,1]",0,16,16,16,1,0,1,,,0,FALSE,6.356,,,,,,,,,,,,,,,,,,,,,,,,,,,,,,
,,001,2022-04-29_03h00.22.867,classification_task,2021.2.3,Win32,144.092219,612ad244a22f81bb9b223500,626b377229c10585ec392f8a,626b387cced737ca75b866ca,,,,,,,,,,,,,,,,,,,,,,,l,1,"[""0.092"",""0.375"",""0.581"",""0.846""]","[1,1,1,0]",0,17,17,17,1,1,1,,,0,FALSE,4.576,,,,,,,,,,,,,,,,,,,,,,,,,,,,,,
,,001,2022-04-29_03h00.22.867,classification_task,2021.2.3,Win32,144.092219,612ad244a22f81bb9b223500,626b377229c10585ec392f8a,626b387cced737ca75b866ca,,,,,,,,,,,,,,,,,,,,,,,l,1,"[""0.092"",""0.146"",""0.581"",""0.679""]","[1,0,1,1]",0,18,18,18,1,1,1,,,0,FALSE,3.141,,,,,,,,,,,,,,,,,,,,,,,,,,,,,,
,,001,2022-04-29_03h00.22.867,classification_task,2021.2.3,Win32,144.092219,612ad244a22f81bb9b223500,626b377229c10585ec392f8a,626b387cced737ca75b866ca,,,,,,,,,,,,,,,,,,,,,,,l,1,"[""0.092"",""0.375"",""0.146"",""0.679""]","[1,1,0,1]",0,19,19,19,1,1,1,,,0,FALSE,1.879,,,,,,,,,,,,,,,,,,,,,,,,,,,,,,
,,001,2022-04-29_03h00.22.867,classification_task,2021.2.3,Win32,144.092219,612ad244a22f81bb9b223500,626b377229c10585ec392f8a,626b387cced737ca75b866ca,,,,,,,,,,,,,,,,,,,,,,,a,1,"[""0.411"",""0.540"",""0.758"",""0.918""]","[0,1,1,1]",0,20,20,20,1,0,1,,,0,FALSE,4.697,,,,,,,,,,,,,,,,,,,,,,,,,,,,,,
,,001,2022-04-29_03h00.22.867,classification_task,2021.2.3,Win32,144.092219,612ad244a22f81bb9b223500,626b377229c10585ec392f8a,626b387cced737ca75b866ca,,,,,,,,,,,,,,,,,,,,,,,a,0,"[""0.044"",""0.247"",""0.499"",""0.149""]","[1,1,1,0]",0,21,21,21,1,1,0,,,0,FALSE,5.847,,,,,,,,,,,,,,,,,,,,,,,,,,,,,,
,,001,2022-04-29_03h00.22.867,classification_task,2021.2.3,Win32,144.092219,612ad244a22f81bb9b223500,626b377229c10585ec392f8a,626b387cced737ca75b866ca,,,,,,,,,,,,,,,,,,,,,,,a,1,"[""0.307"",""0.463"",""0.883"",""0.627""]","[1,1,1,0]",0,22,22,22,1,0,0,,,0,FALSE,5.401,,,,,,,,,,,,,,,,,,,,,,,,,,,,,,
,,001,2022-04-29_03h00.22.867,classification_task,2021.2.3,Win32,144.092219,612ad244a22f81bb9b223500,626b377229c10585ec392f8a,626b387cced737ca75b866ca,,,,,,,,,,,,,,,,,,,,,,,l,0,"[""0.159"",""0.463"",""0.883"",""0.951""]","[0,1,1,1]",0,23,23,23,1,0,0,,,0,FALSE,2.802,,,,,,,,,,,,,,,,,,,,,,,,,,,,,,
,,001,2022-04-29_03h00.22.867,classification_task,2021.2.3,Win32,144.092219,612ad244a22f81bb9b223500,626b377229c10585ec392f8a,626b387cced737ca75b866ca,,,,,,,,,,,,,,,,,,,,,,,l,0,"[""0.210"",""0.540"",""0.758"",""0.627""]","[1,1,1,0]",0,24,24,24,1,0,1,,,0,FALSE,5.002,,,,,,,,,,,,,,,,,,,,,,,,,,,,,,
,,001,2022-04-29_03h00.22.867,classification_task,2021.2.3,Win32,144.092219,612ad244a22f81bb9b223500,626b377229c10585ec392f8a,626b387cced737ca75b866ca,,,,,,,,,,,,,,,,,,,,,,,l,0,"[""0.210"",""0.159"",""0.758"",""0.918""]","[1,0,1,1]",0,25,25,25,1,0,1,,,0,FALSE,5.788,,,,,,,,,,,,,,,,,,,,,,,,,,,,,,
,,001,2022-04-29_03h00.22.867,classification_task,2021.2.3,Win32,144.092219,612ad244a22f81bb9b223500,626b377229c10585ec392f8a,626b387cced737ca75b866ca,,,,,,,,,,,,,,,,,,,,,,,l,1,"[""0.044"",""0.247"",""0.411"",""0.805""]","[1,1,0,1]",0,26,26,26,1,1,0,,,0,FALSE,4.197,,,,,,,,,,,,,,,,,,,,,,,,,,,,,,
,,001,2022-04-29_03h00.22.867,classification_task,2021.2.3,Win32,144.092219,612ad244a22f81bb9b223500,626b377229c10585ec392f8a,626b387cced737ca75b866ca,,,,,,,,,,,,,,,,,,,,,,,l,1,"[""0.149"",""0.375"",""0.581"",""0.679""]","[0,1,1,1]",0,27,27,27,1,1,1,,,0,FALSE,8.455,,,,,,,,,,,,,,,,,,,,,,,,,,,,,,
,,001,2022-04-29_03h00.22.867,classification_task,2021.2.3,Win32,144.092219,612ad244a22f81bb9b223500,626b377229c10585ec392f8a,626b387cced737ca75b866ca,,,,,,,,,,,,,,,,,,,,,,,l,1,"[""0.641"",""0.247"",""0.499"",""0.805""]","[0,1,1,1]",0,28,28,28,1,1,0,,,0,FALSE,4.791,,,,,,,,,,,,,,,,,,,,,,,,,,,,,,
,,001,2022-04-29_03h00.22.867,classification_task,2021.2.3,Win32,144.092219,612ad244a22f81bb9b223500,626b377229c10585ec392f8a,626b387cced737ca75b866ca,,,,,,,,,,,,,,,,,,,,,,,l,1,"[""0.044"",""0.165"",""0.499"",""0.805""]","[1,0,1,1]",0,29,29,29,1,1,0,,,0,FALSE,7.717,,,,,,,,,,,,,,,,,,,,,,,,,,,,,,
,,001,2022-04-29_03h00.22.867,classification_task,2021.2.3,Win32,144.092219,612ad244a22f81bb9b223500,626b377229c10585ec392f8a,626b387cced737ca75b866ca,,,,,,,,,,,,,,,,,,,,,,,a,1,"[""0.307"",""0.463"",""0.846"",""0.951""]","[1,1,0,1]",0,30,30,30,1,0,0,,,0,FALSE,3.062,,,,,,,,,,,,,,,,,,,,,,,,,,,,,,
,,001,2022-04-29_03h00.22.867,classification_task,2021.2.3,Win32,144.092219,612ad244a22f81bb9b223500,626b377229c10585ec392f8a,626b387cced737ca75b866ca,,,,,,,,,,,,,,,,,,,,,,,a,1,"[""0.307"",""0.418"",""0.883"",""0.951""]","[1,0,1,1]",0,31,31,31,1,0,0,,,0,FALSE,7.011,,,,,,,,,,,,,,,,,,,,,,,,,,,,,,
,,001,2022-04-29_03h00.22.867,classification_task,2021.2.3,Win32,144.092219,612ad244a22f81bb9b223500,626b377229c10585ec392f8a,626b387cced737ca75b866ca,,,,,,,,,,,,,,,,,,,,,,,l,0,"[""0.641"",""0.463"",""0.883"",""0.951""]","[0,1,1,1]",0,32,32,32,1,0,0,,,0,FALSE,4.319,,,,,,,,,,,,,,,,,,,,,,,,,,,,,,
,,001,2022-04-29_03h00.22.867,classification_task,2021.2.3,Win32,144.092219,612ad244a22f81bb9b223500,626b377229c10585ec392f8a,626b387cced737ca75b866ca,,,,,,,,,,,,,,,,,,,,,,,l,1,"[""0.044"",""0.247"",""0.499"",""0.641""]","[1,1,1,0]",0,33,33,33,1,1,0,,,0,FALSE,1.417,,,,,,,,,,,,,,,,,,,,,,,,,,,,,,
,,001,2022-04-29_03h00.22.867,classification_task,2021.2.3,Win32,144.092219,612ad244a22f81bb9b223500,626b377229c10585ec392f8a,626b387cced737ca75b866ca,,,,,,,,,,,,,,,,,,,,,,,l,1,"[""0.411"",""0.375"",""0.581"",""0.679""]","[0,1,1,1]",0,34,34,34,1,1,1,,,0,FALSE,2.673,,,,,,,,,,,,,,,,,,,,,,,,,,,,,,
,,001,2022-04-29_03h00.22.867,classification_task,2021.2.3,Win32,144.092219,612ad244a22f81bb9b223500,626b377229c10585ec392f8a,626b387cced737ca75b866ca,,,,,,,,,,,,,,,,,,,,,,,l,1,"[""0.092"",""0.375"",""0.581"",""0.418""]","[1,1,1,0]",0,35,35,35,1,1,1,,,0,FALSE,1.467,,,,,,,,,,,,,,,,,,,,,,,,,,,,,,
,,001,2022-04-29_03h00.22.867,classification_task,2021.2.3,Win32,144.092219,612ad244a22f81bb9b223500,626b377229c10585ec392f8a,626b387cced737ca75b866ca,,,,,,,,,,,,,,,,,,,,,,,a,1,"[""0.210"",""0.540"",""0.146"",""0.918""]","[1,1,0,1]",0,36,36,36,1,0,1,,,0,FALSE,1.857,,,,,,,,,,,,,,,,,,,,,,,,,,,,,,
,,001,2022-04-29_03h00.22.867,classification_task,2021.2.3,Win32,144.092219,612ad244a22f81bb9b223500,626b377229c10585ec392f8a,626b387cced737ca75b866ca,,,,,,,,,,,,,,,,,,,,,,,a,1,"[""0.307"",""0.463"",""0.627"",""0.951""]","[1,1,0,1]",0,37,37,37,1,0,0,,,0,FALSE,2.056,,,,,,,,,,,,,,,,,,,,,,,,,,,,,,
,,001,2022-04-29_03h00.22.867,classification_task,2021.2.3,Win32,144.092219,612ad244a22f81bb9b223500,626b377229c10585ec392f8a,626b387cced737ca75b866ca,,,,,,,,,,,,,,,,,,,,,,,a,0,"[""0.092"",""0.154"",""0.581"",""0.679""]","[1,0,1,1]",0,38,38,38,1,1,1,,,0,FALSE,1.61,,,,,,,,,,,,,,,,,,,,,,,,,,,,,,
,,001,2022-04-29_03h00.22.867,classification_task,2021.2.3,Win32,144.092219,612ad244a22f81bb9b223500,626b377229c10585ec392f8a,626b387cced737ca75b866ca,,,,,,,,,,,,,,,,,,,,,,,l,0,"[""0.846"",""0.540"",""0.758"",""0.918""]","[0,1,1,1]",0,39,39,39,1,0,1,,,0,FALSE,1.494,,,,,,,,,,,,,,,,,,,,,,,,,,,,,,
,,001,2022-04-29_03h00.22.867,classification_task,2021.2.3,Win32,144.092219,612ad244a22f81bb9b223500,626b377229c10585ec392f8a,626b387cced737ca75b866ca,,,,,,,,,,,,,,,,,,,,,,,a,1,"[""0.307"",""0.615"",""0.883"",""0.951""]","[1,0,1,1]",0,40,40,40,1,0,0,,,0,FALSE,1.62,,,,,,,,,,,,,,,,,,,,,,,,,,,,,,
,,001,2022-04-29_03h00.22.867,classification_task,2021.2.3,Win32,144.092219,612ad244a22f81bb9b223500,626b377229c10585ec392f8a,626b387cced737ca75b866ca,,,,,,,,,,,,,,,,,,,,,,,l,0,"[""0.210"",""0.154"",""0.758"",""0.918""]","[1,0,1,1]",0,41,41,41,1,0,1,,,0,FALSE,2.61,,,,,,,,,,,,,,,,,,,,,,,,,,,,,,
,,001,2022-04-29_03h00.22.867,classification_task,2021.2.3,Win32,144.092219,612ad244a22f81bb9b223500,626b377229c10585ec392f8a,626b387cced737ca75b866ca,,,,,,,,,,,,,,,,,,,,,,,l,0,"[""0.307"",""0.463"",""0.883"",""0.150""]","[1,1,1,0]",0,42,42,42,1,0,0,,,0,FALSE,1.604,,,,,,,,,,,,,,,,,,,,,,,,,,,,,,
,,001,2022-04-29_03h00.22.867,classification_task,2021.2.3,Win32,144.092219,612ad244a22f81bb9b223500,626b377229c10585ec392f8a,626b387cced737ca75b866ca,,,,,,,,,,,,,,,,,,,,,,,a,0,"[""0.044"",""0.149"",""0.499"",""0.805""]","[1,0,1,1]",0,43,43,43,1,1,0,,,0,FALSE,1.845,,,,,,,,,,,,,,,,,,,,,,,,,,,,,,
,,001,2022-04-29_03h00.22.867,classification_task,2021.2.3,Win32,144.092219,612ad244a22f81bb9b223500,626b377229c10585ec392f8a,626b387cced737ca75b866ca,,,,,,,,,,,,,,,,,,,,,,,l,1,"[""0.846"",""0.247"",""0.499"",""0.805""]","[0,1,1,1]",0,44,44,44,1,1,0,,,0,FALSE,1.055,,,,,,,,,,,,,,,,,,,,,,,,,,,,,,
,,001,2022-04-29_03h00.22.867,classification_task,2021.2.3,Win32,144.092219,612ad244a22f81bb9b223500,626b377229c10585ec392f8a,626b387cced737ca75b866ca,,,,,,,,,,,,,,,,,,,,,,,l,1,"[""0.092"",""0.375"",""0.615"",""0.679""]","[1,1,0,1]",0,45,45,45,1,1,1,,,0,FALSE,0.881,,,,,,,,,,,,,,,,,,,,,,,,,,,,,,
,,001,2022-04-29_03h00.22.867,classification_task,2021.2.3,Win32,144.092219,612ad244a22f81bb9b223500,626b377229c10585ec392f8a,626b387cced737ca75b866ca,,,,,,,,,,,,,,,,,,,,,,,l,0,"[""0.210"",""0.540"",""0.758"",""0.141""]","[1,1,1,0]",0,46,46,46,1,0,1,,,0,FALSE,0.765,,,,,,,,,,,,,,,,,,,,,,,,,,,,,,
,,001,2022-04-29_03h00.22.867,classification_task,2021.2.3,Win32,144.092219,612ad244a22f81bb9b223500,626b377229c10585ec392f8a,626b387cced737ca75b866ca,,,,,,,,,,,,,,,,,,,,,,,l,1,"[""0.044"",""0.247"",""0.165"",""0.805""]","[1,1,0,1]",0,47,47,47,1,1,0,,,0,FALSE,2.064,,,,,,,,,,,,,,,,,,,,,,,,,,,,,,
,,001,2022-04-29_03h00.22.867,classification_task,2021.2.3,Win32,144.092219,612ad244a22f81bb9b223500,626b377229c10585ec392f8a,626b387cced737ca75b866ca,,,,,,,,,,,,,,,,,,,,,,,l,1,"[""0.092"",""0.375"",""0.581"",""0.149""]","[1,1,1,0]",0,48,48,48,1,1,1,,,0,FALSE,2.14,,,,,,,,,,,,,,,,,,,,,,,,,,,,,,
,,001,2022-04-29_03h00.22.867,classification_task,2021.2.3,Win32,144.092219,612ad244a22f81bb9b223500,626b377229c10585ec392f8a,626b387cced737ca75b866ca,,,,,,,,,,,,,,,,,,,,,,,a,0,"[""0.044"",""0.411"",""0.499"",""0.805""]","[1,0,1,1]",0,49,49,49,1,1,0,,,0,FALSE,1.605,,,,,,,,,,,,,,,,,,,,,,,,,,,,,,
,,001,2022-04-29_03h00.22.867,classification_task,2021.2.3,Win32,144.092219,612ad244a22f81bb9b223500,626b377229c10585ec392f8a,626b387cced737ca75b866ca,,,,,,,,,,,,,,,,,,,,,,,a,1,"[""0.210"",""0.540"",""0.161"",""0.918""]","[1,1,0,1]",0,50,50,50,1,0,1,,,0,FALSE,2.146,,,,,,,,,,,,,,,,,,,,,,,,,,,,,,
,,001,2022-04-29_03h00.22.867,classification_task,2021.2.3,Win32,144.092219,612ad244a22f81bb9b223500,626b377229c10585ec392f8a,626b387cced737ca75b866ca,,,,,,,,,,,,,,,,,,,,,,,a,1,"[""0.175"",""0.540"",""0.758"",""0.918""]","[0,1,1,1]",0,51,51,51,1,0,1,,,0,FALSE,1.653,,,,,,,,,,,,,,,,,,,,,,,,,,,,,,
,,001,2022-04-29_03h00.22.867,classification_task,2021.2.3,Win32,144.092219,612ad244a22f81bb9b223500,626b377229c10585ec392f8a,626b387cced737ca75b866ca,,,,,,,,,,,,,,,,,,,,,,,l,0,"[""0.210"",""0.540"",""0.758"",""0.627""]","[1,1,1,0]",0,52,52,52,1,0,1,,,0,FALSE,1.39,,,,,,,,,,,,,,,,,,,,,,,,,,,,,,
,,001,2022-04-29_03h00.22.867,classification_task,2021.2.3,Win32,144.092219,612ad244a22f81bb9b223500,626b377229c10585ec392f8a,626b387cced737ca75b866ca,,,,,,,,,,,,,,,,,,,,,,,l,0,"[""0.307"",""0.463"",""0.883"",""0.161""]","[1,1,1,0]",0,53,53,53,1,0,0,,,0,FALSE,1.084,,,,,,,,,,,,,,,,,,,,,,,,,,,,,,
,,001,2022-04-29_03h00.22.867,classification_task,2021.2.3,Win32,144.092219,612ad244a22f81bb9b223500,626b377229c10585ec392f8a,626b387cced737ca75b866ca,,,,,,,,,,,,,,,,,,,,,,,l,1,"[""0.418"",""0.375"",""0.581"",""0.679""]","[0,1,1,1]",0,54,54,54,1,1,1,,,0,FALSE,0.835,,,,,,,,,,,,,,,,,,,,,,,,,,,,,,
,,001,2022-04-29_03h00.22.867,classification_task,2021.2.3,Win32,144.092219,612ad244a22f81bb9b223500,626b377229c10585ec392f8a,626b387cced737ca75b866ca,,,,,,,,,,,,,,,,,,,,,,,a,0,"[""0.161"",""0.247"",""0.499"",""0.805""]","[0,1,1,1]",0,55,55,55,1,1,0,,,0,FALSE,1.4,,,,,,,,,,,,,,,,,,,,,,,,,,,,,,
,,001,2022-04-29_03h00.22.867,classification_task,2021.2.3,Win32,144.092219,612ad244a22f81bb9b223500,626b377229c10585ec392f8a,626b387cced737ca75b866ca,,,,,,,,,,,,,,,,,,,,,,,l,0,"[""0.210"",""0.150"",""0.758"",""0.918""]","[1,0,1,1]",0,56,56,56,1,0,1,,,0,FALSE,1.703,,,,,,,,,,,,,,,,,,,,,,,,,,,,,,
,,001,2022-04-29_03h00.22.867,classification_task,2021.2.3,Win32,144.092219,612ad244a22f81bb9b223500,626b377229c10585ec392f8a,626b387cced737ca75b866ca,,,,,,,,,,,,,,,,,,,,,,,a,0,"[""0.044"",""0.247"",""0.499"",""0.627""]","[1,1,1,0]",0,57,57,57,1,1,0,,,0,FALSE,1.926,,,,,,,,,,,,,,,,,,,,,,,,,,,,,,
,,001,2022-04-29_03h00.22.867,classification_task,2021.2.3,Win32,144.092219,612ad244a22f81bb9b223500,626b377229c10585ec392f8a,626b387cced737ca75b866ca,,,,,,,,,,,,,,,,,,,,,,,a,1,"[""0.307"",""0.463"",""0.150"",""0.951""]","[1,1,0,1]",0,58,58,58,1,0,0,,,0,FALSE,1.537,,,,,,,,,,,,,,,,,,,,,,,,,,,,,,
,,001,2022-04-29_03h00.22.867,classification_task,2021.2.3,Win32,144.092219,612ad244a22f81bb9b223500,626b377229c10585ec392f8a,626b387cced737ca75b866ca,,,,,,,,,,,,,,,,,,,,,,,l,0,"[""0.161"",""0.463"",""0.883"",""0.951""]","[0,1,1,1]",0,59,59,59,1,0,0,,,0,FALSE,1.823,,,,,,,,,,,,,,,,,,,,,,,,,,,,,,
,,001,2022-04-29_03h00.22.867,classification_task,2021.2.3,Win32,144.092219,612ad244a22f81bb9b223500,626b377229c10585ec392f8a,626b387cced737ca75b866ca,,,,,,,,,,,,,,,,,,,,,,,l,1,"[""0.092"",""0.615"",""0.581"",""0.679""]","[1,0,1,1]",0,60,60,60,1,1,1,,,0,FALSE,1.032,,,,,,,,,,,,,,,,,,,,,,,,,,,,,,
,,001,2022-04-29_03h00.22.867,classification_task,2021.2.3,Win32,144.092219,612ad244a22f81bb9b223500,626b377229c10585ec392f8a,626b387cced737ca75b866ca,,,,,,,,,,,,,,,,,,,,,,,l,1,"[""0.044"",""0.247"",""0.146"",""0.805""]","[1,1,0,1]",0,61,61,61,1,1,0,,,0,FALSE,2.522,,,,,,,,,,,,,,,,,,,,,,,,,,,,,,
,,001,2022-04-29_03h00.22.867,classification_task,2021.2.3,Win32,144.092219,612ad244a22f81bb9b223500,626b377229c10585ec392f8a,626b387cced737ca75b866ca,,,,,,,,,,,,,,,,,,,,,,,a,1,"[""0.307"",""0.161"",""0.883"",""0.951""]","[1,0,1,1]",0,62,62,62,1,0,0,,,0,FALSE,1.606,,,,,,,,,,,,,,,,,,,,,,,,,,,,,,
,,001,2022-04-29_03h00.22.867,classification_task,2021.2.3,Win32,144.092219,612ad244a22f81bb9b223500,626b377229c10585ec392f8a,626b387cced737ca75b866ca,,,,,,,,,,,,,,,,,,,,,,,l,1,"[""0.092"",""0.375"",""0.165"",""0.679""]","[1,1,0,1]",0,63,63,63,1,1,1,,,0,FALSE,1.786,,,,,,,,,,,,,,,,,,,,,,,,,,,,,,
,,001,2022-04-29_03h00.22.867,classification_task,2021.2.3,Win32,144.092219,612ad244a22f81bb9b223500,626b377229c10585ec392f8a,626b387cced737ca75b866ca,,,,,,,,,,,,,,,,,,,,,,,,,,,,,,,,,,,,,,,0, ,,0,1.32569077,454.683,0,0,0,0,1,2,1,,,,,,,,,,,,,,,,,
,,001,2022-04-29_03h00.22.867,classification_task,2021.2.3,Win32,144.092219,612ad244a22f81bb9b223500,626b377229c10585ec392f8a,626b387cced737ca75b866ca,,,,,,,,,,,,,,,,,,,,,,,,,,,,,,,,,,,,,,,1,  ,,0,0.860278268,472.083,0,0,0,0,1,2,1,,,,,,,,,,,,,,,,,
,,001,2022-04-29_03h00.22.867,classification_task,2021.2.3,Win32,144.092219,612ad244a22f81bb9b223500,626b377229c10585ec392f8a,626b387cced737ca75b866ca,,,,,,,,,,,,,,,,,,,,,,,,,,,,,,,,,,,,,,,2,  ,,0,4.436605918,479.623,0,0,0,0,1,2,1,,,,,,,,,,,,,,,,,
,,001,2022-04-29_03h00.22.867,classification_task,2021.2.3,Win32,144.092219,612ad244a22f81bb9b223500,626b377229c10585ec392f8a,626b387cced737ca75b866ca,,,,,,,,,,,,,,,,,,,,,,,,,,,,,,,,,,,,,,,,,,,,,0,0,0,0,1,,1,,,,,,,,,,,,,,,,,
,,001,2022-04-29_03h00.22.867,classification_task,2021.2.3,Win32,144.092219,612ad244a22f81bb9b223500,626b377229c10585ec392f8a,626b387cced737ca75b866ca,,,,,,,,,,,,,,,,,,,,,space,14.282,l,0,"[""0.210"",""0.540"",""0.150"",""0.918""]","[1,1,0,1]",0,0,0,0,1,0,1,,,0,FALSE,3.34,,,,,,,,,,,,,,,,,,,,,,,,,,,,,,
,,001,2022-04-29_03h00.22.867,classification_task,2021.2.3,Win32,144.092219,612ad244a22f81bb9b223500,626b377229c10585ec392f8a,626b387cced737ca75b866ca,,,,,,,,,,,,,,,,,,,,,,,l,1,"[""0.044"",""0.641"",""0.499"",""0.805""]","[1,0,1,1]",0,1,1,1,1,1,0,,,0,FALSE,1.223,,,,,,,,,,,,,,,,,,,,,,,,,,,,,,
,,001,2022-04-29_03h00.22.867,classification_task,2021.2.3,Win32,144.092219,612ad244a22f81bb9b223500,626b377229c10585ec392f8a,626b387cced737ca75b866ca,,,,,,,,,,,,,,,,,,,,,,,l,1,"[""0.044"",""0.247"",""0.499"",""0.641""]","[1,1,1,0]",0,2,2,2,1,1,0,,,0,FALSE,0.561,,,,,,,,,,,,,,,,,,,,,,,,,,,,,,
,,001,2022-04-29_03h00.22.867,classification_task,2021.2.3,Win32,144.092219,612ad244a22f81bb9b223500,626b377229c10585ec392f8a,626b387cced737ca75b866ca,,,,,,,,,,,,,,,,,,,,,,,a,1,"[""0.146"",""0.540"",""0.758"",""0.918""]","[0,1,1,1]",0,3,3,3,1,0,1,,,0,FALSE,1.372,,,,,,,,,,,,,,,,,,,,,,,,,,,,,,
,,001,2022-04-29_03h00.22.867,classification_task,2021.2.3,Win32,144.092219,612ad244a22f81bb9b223500,626b377229c10585ec392f8a,626b387cced737ca75b866ca,,,,,,,,,,,,,,,,,,,,,,,a,1,"[""0.307"",""0.154"",""0.883"",""0.951""]","[1,0,1,1]",0,4,4,4,1,0,0,,,0,FALSE,4.792,,,,,,,,,,,,,,,,,,,,,,,,,,,,,,
,,001,2022-04-29_03h00.22.867,classification_task,2021.2.3,Win32,144.092219,612ad244a22f81bb9b223500,626b377229c10585ec392f8a,626b387cced737ca75b866ca,,,,,,,,,,,,,,,,,,,,,,,l,0,"[""0.210"",""0.540"",""0.758"",""0.615""]","[1,1,1,0]",0,5,5,5,1,0,1,,,0,FALSE,3.721,,,,,,,,,,,,,,,,,,,,,,,,,,,,,,
,,001,2022-04-29_03h00.22.867,classification_task,2021.2.3,Win32,144.092219,612ad244a22f81bb9b223500,626b377229c10585ec392f8a,626b387cced737ca75b866ca,,,,,,,,,,,,,,,,,,,,,,,l,1,"[""0.092"",""0.375"",""0.149"",""0.679""]","[1,1,0,1]",0,6,6,6,1,1,1,,,0,FALSE,1.876,,,,,,,,,,,,,,,,,,,,,,,,,,,,,,
,,001,2022-04-29_03h00.22.867,classification_task,2021.2.3,Win32,144.092219,612ad244a22f81bb9b223500,626b377229c10585ec392f8a,626b387cced737ca75b866ca,,,,,,,,,,,,,,,,,,,,,,,l,1,"[""0.149"",""0.247"",""0.499"",""0.805""]","[0,1,1,1]",0,7,7,7,1,1,0,,,0,FALSE,1.223,,,,,,,,,,,,,,,,,,,,,,,,,,,,,,
,,001,2022-04-29_03h00.22.867,classification_task,2021.2.3,Win32,144.092219,612ad244a22f81bb9b223500,626b377229c10585ec392f8a,626b387cced737ca75b866ca,,,,,,,,,,,,,,,,,,,,,,,a,1,"[""0.307"",""0.463"",""0.883"",""0.175""]","[1,1,1,0]",0,8,8,8,1,0,0,,,0,FALSE,1.264,,,,,,,,,,,,,,,,,,,,,,,,,,,,,,
,,001,2022-04-29_03h00.22.867,classification_task,2021.2.3,Win32,144.092219,612ad244a22f81bb9b223500,626b377229c10585ec392f8a,626b387cced737ca75b866ca,,,,,,,,,,,,,,,,,,,,,,,l,1,"[""0.149"",""0.375"",""0.581"",""0.679""]","[0,1,1,1]",0,9,9,9,1,1,1,,,0,FALSE,1.474,,,,,,,,,,,,,,,,,,,,,,,,,,,,,,
,,001,2022-04-29_03h00.22.867,classification_task,2021.2.3,Win32,144.092219,612ad244a22f81bb9b223500,626b377229c10585ec392f8a,626b387cced737ca75b866ca,,,,,,,,,,,,,,,,,,,,,,,a,1,"[""0.307"",""0.463"",""0.146"",""0.951""]","[1,1,0,1]",0,10,10,10,1,0,0,,,0,FALSE,1.182,,,,,,,,,,,,,,,,,,,,,,,,,,,,,,
,,001,2022-04-29_03h00.22.867,classification_task,2021.2.3,Win32,144.092219,612ad244a22f81bb9b223500,626b377229c10585ec392f8a,626b387cced737ca75b866ca,,,,,,,,,,,,,,,,,,,,,,,l,0,"[""0.210"",""0.165"",""0.758"",""0.918""]","[1,0,1,1]",0,11,11,11,1,0,1,,,0,FALSE,1.881,,,,,,,,,,,,,,,,,,,,,,,,,,,,,,
,,001,2022-04-29_03h00.22.867,classification_task,2021.2.3,Win32,144.092219,612ad244a22f81bb9b223500,626b377229c10585ec392f8a,626b387cced737ca75b866ca,,,,,,,,,,,,,,,,,,,,,,,l,1,"[""0.092"",""0.846"",""0.581"",""0.679""]","[1,0,1,1]",0,12,12,12,1,1,1,,,0,FALSE,0.731,,,,,,,,,,,,,,,,,,,,,,,,,,,,,,
,,001,2022-04-29_03h00.22.867,classification_task,2021.2.3,Win32,144.092219,612ad244a22f81bb9b223500,626b377229c10585ec392f8a,626b387cced737ca75b866ca,,,,,,,,,,,,,,,,,,,,,,,a,1,"[""0.627"",""0.463"",""0.883"",""0.951""]","[0,1,1,1]",0,13,13,13,1,0,0,,,0,FALSE,1.16,,,,,,,,,,,,,,,,,,,,,,,,,,,,,,
,,001,2022-04-29_03h00.22.867,classification_task,2021.2.3,Win32,144.092219,612ad244a22f81bb9b223500,626b377229c10585ec392f8a,626b387cced737ca75b866ca,,,,,,,,,,,,,,,,,,,,,,,a,0,"[""0.092"",""0.375"",""0.581"",""0.154""]","[1,1,1,0]",0,14,14,14,1,1,1,,,0,FALSE,1.671,,,,,,,,,,,,,,,,,,,,,,,,,,,,,,
,,001,2022-04-29_03h00.22.867,classification_task,2021.2.3,Win32,144.092219,612ad244a22f81bb9b223500,626b377229c10585ec392f8a,626b387cced737ca75b866ca,,,,,,,,,,,,,,,,,,,,,,,l,1,"[""0.044"",""0.247"",""0.149"",""0.805""]","[1,1,0,1]",0,15,15,15,1,1,0,,,0,FALSE,1.833,,,,,,,,,,,,,,,,,,,,,,,,,,,,,,
,,001,2022-04-29_03h00.22.867,classification_task,2021.2.3,Win32,144.092219,612ad244a22f81bb9b223500,626b377229c10585ec392f8a,626b387cced737ca75b866ca,,,,,,,,,,,,,,,,,,,,,,,a,1,"[""0.418"",""0.463"",""0.883"",""0.951""]","[0,1,1,1]",0,16,16,16,1,0,0,,,0,FALSE,1.051,,,,,,,,,,,,,,,,,,,,,,,,,,,,,,
,,001,2022-04-29_03h00.22.867,classification_task,2021.2.3,Win32,144.092219,612ad244a22f81bb9b223500,626b377229c10585ec392f8a,626b387cced737ca75b866ca,,,,,,,,,,,,,,,,,,,,,,,l,1,"[""0.092"",""0.615"",""0.581"",""0.679""]","[1,0,1,1]",0,17,17,17,1,1,1,,,0,FALSE,1.194,,,,,,,,,,,,,,,,,,,,,,,,,,,,,,
,,001,2022-04-29_03h00.22.867,classification_task,2021.2.3,Win32,144.092219,612ad244a22f81bb9b223500,626b377229c10585ec392f8a,626b387cced737ca75b866ca,,,,,,,,,,,,,,,,,,,,,,,l,0,"[""0.210"",""0.540"",""0.758"",""0.149""]","[1,1,1,0]",0,18,18,18,1,0,1,,,0,FALSE,1.091,,,,,,,,,,,,,,,,,,,,,,,,,,,,,,
,,001,2022-04-29_03h00.22.867,classification_task,2021.2.3,Win32,144.092219,612ad244a22f81bb9b223500,626b377229c10585ec392f8a,626b387cced737ca75b866ca,,,,,,,,,,,,,,,,,,,,,,,a,1,"[""0.307"",""0.154"",""0.883"",""0.951""]","[1,0,1,1]",0,19,19,19,1,0,0,,,0,FALSE,1.17,,,,,,,,,,,,,,,,,,,,,,,,,,,,,,
,,001,2022-04-29_03h00.22.867,classification_task,2021.2.3,Win32,144.092219,612ad244a22f81bb9b223500,626b377229c10585ec392f8a,626b387cced737ca75b866ca,,,,,,,,,,,,,,,,,,,,,,,a,1,"[""0.307"",""0.463"",""0.883"",""0.615""]","[1,1,1,0]",0,20,20,20,1,0,0,,,0,FALSE,1.102,,,,,,,,,,,,,,,,,,,,,,,,,,,,,,
,,001,2022-04-29_03h00.22.867,classification_task,2021.2.3,Win32,144.092219,612ad244a22f81bb9b223500,626b377229c10585ec392f8a,626b387cced737ca75b866ca,,,,,,,,,,,,,,,,,,,,,,,a,1,"[""0.165"",""0.540"",""0.758"",""0.918""]","[0,1,1,1]",0,21,21,21,1,0,1,,,0,FALSE,1.463,,,,,,,,,,,,,,,,,,,,,,,,,,,,,,
,,001,2022-04-29_03h00.22.867,classification_task,2021.2.3,Win32,144.092219,612ad244a22f81bb9b223500,626b377229c10585ec392f8a,626b387cced737ca75b866ca,,,,,,,,,,,,,,,,,,,,,,,l,1,"[""0.092"",""0.375"",""0.581"",""0.154""]","[1,1,1,0]",0,22,22,22,1,1,1,,,0,FALSE,1.86,,,,,,,,,,,,,,,,,,,,,,,,,,,,,,
,,001,2022-04-29_03h00.22.867,classification_task,2021.2.3,Win32,144.092219,612ad244a22f81bb9b223500,626b377229c10585ec392f8a,626b387cced737ca75b866ca,,,,,,,,,,,,,,,,,,,,,,,l,1,"[""0.411"",""0.375"",""0.581"",""0.679""]","[0,1,1,1]",0,23,23,23,1,1,1,,,0,FALSE,0.811,,,,,,,,,,,,,,,,,,,,,,,,,,,,,,
,,001,2022-04-29_03h00.22.867,classification_task,2021.2.3,Win32,144.092219,612ad244a22f81bb9b223500,626b377229c10585ec392f8a,626b387cced737ca75b866ca,,,,,,,,,,,,,,,,,,,,,,,a,1,"[""0.210"",""0.411"",""0.758"",""0.918""]","[1,0,1,1]",0,24,24,24,1,0,1,,,0,FALSE,1.557,,,,,,,,,,,,,,,,,,,,,,,,,,,,,,
,,001,2022-04-29_03h00.22.867,classification_task,2021.2.3,Win32,144.092219,612ad244a22f81bb9b223500,626b377229c10585ec392f8a,626b387cced737ca75b866ca,,,,,,,,,,,,,,,,,,,,,,,l,1,"[""0.044"",""0.149"",""0.499"",""0.805""]","[1,0,1,1]",0,25,25,25,1,1,0,,,0,FALSE,1.322,,,,,,,,,,,,,,,,,,,,,,,,,,,,,,
,,001,2022-04-29_03h00.22.867,classification_task,2021.2.3,Win32,144.092219,612ad244a22f81bb9b223500,626b377229c10585ec392f8a,626b387cced737ca75b866ca,,,,,,,,,,,,,,,,,,,,,,,l,0,"[""0.210"",""0.540"",""0.627"",""0.918""]","[1,1,0,1]",0,26,26,26,1,0,1,,,0,FALSE,2.762,,,,,,,,,,,,,,,,,,,,,,,,,,,,,,
,,001,2022-04-29_03h00.22.867,classification_task,2021.2.3,Win32,144.092219,612ad244a22f81bb9b223500,626b377229c10585ec392f8a,626b387cced737ca75b866ca,,,,,,,,,,,,,,,,,,,,,,,l,1,"[""0.044"",""0.247"",""0.499"",""0.627""]","[1,1,1,0]",0,27,27,27,1,1,0,,,0,FALSE,0.871,,,,,,,,,,,,,,,,,,,,,,,,,,,,,,
,,001,2022-04-29_03h00.22.867,classification_task,2021.2.3,Win32,144.092219,612ad244a22f81bb9b223500,626b377229c10585ec392f8a,626b387cced737ca75b866ca,,,,,,,,,,,,,,,,,,,,,,,l,1,"[""0.044"",""0.247"",""0.418"",""0.805""]","[1,1,0,1]",0,28,28,28,1,1,0,,,0,FALSE,0.568,,,,,,,,,,,,,,,,,,,,,,,,,,,,,,
,,001,2022-04-29_03h00.22.867,classification_task,2021.2.3,Win32,144.092219,612ad244a22f81bb9b223500,626b377229c10585ec392f8a,626b387cced737ca75b866ca,,,,,,,,,,,,,,,,,,,,,,,l,1,"[""0.615"",""0.247"",""0.499"",""0.805""]","[0,1,1,1]",0,29,29,29,1,1,0,,,0,FALSE,0.468,,,,,,,,,,,,,,,,,,,,,,,,,,,,,,
,,001,2022-04-29_03h00.22.867,classification_task,2021.2.3,Win32,144.092219,612ad244a22f81bb9b223500,626b377229c10585ec392f8a,626b387cced737ca75b866ca,,,,,,,,,,,,,,,,,,,,,,,a,0,"[""0.092"",""0.375"",""0.615"",""0.679""]","[1,1,0,1]",0,30,30,30,1,1,1,,,0,FALSE,2.026,,,,,,,,,,,,,,,,,,,,,,,,,,,,,,
,,001,2022-04-29_03h00.22.867,classification_task,2021.2.3,Win32,144.092219,612ad244a22f81bb9b223500,626b377229c10585ec392f8a,626b387cced737ca75b866ca,,,,,,,,,,,,,,,,,,,,,,,a,1,"[""0.307"",""0.463"",""0.150"",""0.951""]","[1,1,0,1]",0,31,31,31,1,0,0,,,0,FALSE,1.576,,,,,,,,,,,,,,,,,,,,,,,,,,,,,,
,,001,2022-04-29_03h00.22.867,classification_task,2021.2.3,Win32,144.092219,612ad244a22f81bb9b223500,626b377229c10585ec392f8a,626b387cced737ca75b866ca,,,,,,,,,,,,,,,,,,,,,,,a,1,"[""0.307"",""0.463"",""0.615"",""0.951""]","[1,1,0,1]",0,32,32,32,1,0,0,,,0,FALSE,0.605,,,,,,,,,,,,,,,,,,,,,,,,,,,,,,
,,001,2022-04-29_03h00.22.867,classification_task,2021.2.3,Win32,144.092219,612ad244a22f81bb9b223500,626b377229c10585ec392f8a,626b387cced737ca75b866ca,,,,,,,,,,,,,,,,,,,,,,,l,1,"[""0.092"",""0.375"",""0.150"",""0.679""]","[1,1,0,1]",0,33,33,33,1,1,1,,,0,FALSE,1.476,,,,,,,,,,,,,,,,,,,,,,,,,,,,,,
,,001,2022-04-29_03h00.22.867,classification_task,2021.2.3,Win32,144.092219,612ad244a22f81bb9b223500,626b377229c10585ec392f8a,626b387cced737ca75b866ca,,,,,,,,,,,,,,,,,,,,,,,l,1,"[""0.092"",""0.375"",""0.581"",""0.146""]","[1,1,1,0]",0,34,34,34,1,1,1,,,0,FALSE,0.534,,,,,,,,,,,,,,,,,,,,,,,,,,,,,,
,,001,2022-04-29_03h00.22.867,classification_task,2021.2.3,Win32,144.092219,612ad244a22f81bb9b223500,626b377229c10585ec392f8a,626b387cced737ca75b866ca,,,,,,,,,,,,,,,,,,,,,,,a,1,"[""0.150"",""0.463"",""0.883"",""0.951""]","[0,1,1,1]",0,35,35,35,1,0,0,,,0,FALSE,0.997,,,,,,,,,,,,,,,,,,,,,,,,,,,,,,
,,001,2022-04-29_03h00.22.867,classification_task,2021.2.3,Win32,144.092219,612ad244a22f81bb9b223500,626b377229c10585ec392f8a,626b387cced737ca75b866ca,,,,,,,,,,,,,,,,,,,,,,,l,1,"[""0.044"",""0.247"",""0.615"",""0.805""]","[1,1,0,1]",0,36,36,36,1,1,0,,,0,FALSE,1.047,,,,,,,,,,,,,,,,,,,,,,,,,,,,,,
,,001,2022-04-29_03h00.22.867,classification_task,2021.2.3,Win32,144.092219,612ad244a22f81bb9b223500,626b377229c10585ec392f8a,626b387cced737ca75b866ca,,,,,,,,,,,,,,,,,,,,,,,l,1,"[""0.044"",""0.247"",""0.499"",""0.165""]","[1,1,1,0]",0,37,37,37,1,1,0,,,0,FALSE,0.467,,,,,,,,,,,,,,,,,,,,,,,,,,,,,,
,,001,2022-04-29_03h00.22.867,classification_task,2021.2.3,Win32,144.092219,612ad244a22f81bb9b223500,626b377229c10585ec392f8a,626b387cced737ca75b866ca,,,,,,,,,,,,,,,,,,,,,,,a,1,"[""0.159"",""0.540"",""0.758"",""0.918""]","[0,1,1,1]",0,38,38,38,1,0,1,,,0,FALSE,1.489,,,,,,,,,,,,,,,,,,,,,,,,,,,,,,
,,001,2022-04-29_03h00.22.867,classification_task,2021.2.3,Win32,144.092219,612ad244a22f81bb9b223500,626b377229c10585ec392f8a,626b387cced737ca75b866ca,,,,,,,,,,,,,,,,,,,,,,,a,1,"[""0.210"",""0.627"",""0.758"",""0.918""]","[1,0,1,1]",0,39,39,39,1,0,1,,,0,FALSE,1.209,,,,,,,,,,,,,,,,,,,,,,,,,,,,,,
,,001,2022-04-29_03h00.22.867,classification_task,2021.2.3,Win32,144.092219,612ad244a22f81bb9b223500,626b377229c10585ec392f8a,626b387cced737ca75b866ca,,,,,,,,,,,,,,,,,,,,,,,l,1,"[""0.411"",""0.375"",""0.581"",""0.679""]","[0,1,1,1]",0,40,40,40,1,1,1,,,0,FALSE,1.097,,,,,,,,,,,,,,,,,,,,,,,,,,,,,,
,,001,2022-04-29_03h00.22.867,classification_task,2021.2.3,Win32,144.092219,612ad244a22f81bb9b223500,626b377229c10585ec392f8a,626b387cced737ca75b866ca,,,,,,,,,,,,,,,,,,,,,,,a,1,"[""0.307"",""0.175"",""0.883"",""0.951""]","[1,0,1,1]",0,41,41,41,1,0,0,,,0,FALSE,1.177,,,,,,,,,,,,,,,,,,,,,,,,,,,,,,
,,001,2022-04-29_03h00.22.867,classification_task,2021.2.3,Win32,144.092219,612ad244a22f81bb9b223500,626b377229c10585ec392f8a,626b387cced737ca75b866ca,,,,,,,,,,,,,,,,,,,,,,,l,0,"[""0.210"",""0.540"",""0.758"",""0.165""]","[1,1,1,0]",0,42,42,42,1,0,1,,,0,FALSE,1.443,,,,,,,,,,,,,,,,,,,,,,,,,,,,,,
,,001,2022-04-29_03h00.22.867,classification_task,2021.2.3,Win32,144.092219,612ad244a22f81bb9b223500,626b377229c10585ec392f8a,626b387cced737ca75b866ca,,,,,,,,,,,,,,,,,,,,,,,l,1,"[""0.141"",""0.247"",""0.499"",""0.805""]","[0,1,1,1]",0,43,43,43,1,1,0,,,0,FALSE,0.893,,,,,,,,,,,,,,,,,,,,,,,,,,,,,,
,,001,2022-04-29_03h00.22.867,classification_task,2021.2.3,Win32,144.092219,612ad244a22f81bb9b223500,626b377229c10585ec392f8a,626b387cced737ca75b866ca,,,,,,,,,,,,,,,,,,,,,,,l,0,"[""0.210"",""0.540"",""0.175"",""0.918""]","[1,1,0,1]",0,44,44,44,1,0,1,,,0,FALSE,0.879,,,,,,,,,,,,,,,,,,,,,,,,,,,,,,
,,001,2022-04-29_03h00.22.867,classification_task,2021.2.3,Win32,144.092219,612ad244a22f81bb9b223500,626b377229c10585ec392f8a,626b387cced737ca75b866ca,,,,,,,,,,,,,,,,,,,,,,,l,1,"[""0.092"",""0.141"",""0.581"",""0.679""]","[1,0,1,1]",0,45,45,45,1,1,1,,,0,FALSE,0.961,,,,,,,,,,,,,,,,,,,,,,,,,,,,,,
,,001,2022-04-29_03h00.22.867,classification_task,2021.2.3,Win32,144.092219,612ad244a22f81bb9b223500,626b377229c10585ec392f8a,626b387cced737ca75b866ca,,,,,,,,,,,,,,,,,,,,,,,a,1,"[""0.307"",""0.463"",""0.883"",""0.149""]","[1,1,1,0]",0,46,46,46,1,0,0,,,0,FALSE,1.015,,,,,,,,,,,,,,,,,,,,,,,,,,,,,,
,,001,2022-04-29_03h00.22.867,classification_task,2021.2.3,Win32,144.092219,612ad244a22f81bb9b223500,626b377229c10585ec392f8a,626b387cced737ca75b866ca,,,,,,,,,,,,,,,,,,,,,,,l,1,"[""0.044"",""0.149"",""0.499"",""0.805""]","[1,0,1,1]",0,47,47,47,1,1,0,,,0,FALSE,1.543,,,,,,,,,,,,,,,,,,,,,,,,,,,,,,
,,001,2022-04-29_03h00.22.867,classification_task,2021.2.3,Win32,144.092219,612ad244a22f81bb9b223500,626b377229c10585ec392f8a,626b387cced737ca75b866ca,,,,,,,,,,,,,,,,,,,,,,,l,1,"[""0.092"",""0.375"",""0.154"",""0.679""]","[1,1,0,1]",0,48,48,48,1,1,1,,,0,FALSE,1.379,,,,,,,,,,,,,,,,,,,,,,,,,,,,,,
,,001,2022-04-29_03h00.22.867,classification_task,2021.2.3,Win32,144.092219,612ad244a22f81bb9b223500,626b377229c10585ec392f8a,626b387cced737ca75b866ca,,,,,,,,,,,,,,,,,,,,,,,l,0,"[""0.210"",""0.540"",""0.175"",""0.918""]","[1,1,0,1]",0,49,49,49,1,0,1,,,0,FALSE,0.767,,,,,,,,,,,,,,,,,,,,,,,,,,,,,,
,,001,2022-04-29_03h00.22.867,classification_task,2021.2.3,Win32,144.092219,612ad244a22f81bb9b223500,626b377229c10585ec392f8a,626b387cced737ca75b866ca,,,,,,,,,,,,,,,,,,,,,,,a,1,"[""0.210"",""0.641"",""0.758"",""0.918""]","[1,0,1,1]",0,50,50,50,1,0,1,,,0,FALSE,2.086,,,,,,,,,,,,,,,,,,,,,,,,,,,,,,
,,001,2022-04-29_03h00.22.867,classification_task,2021.2.3,Win32,144.092219,612ad244a22f81bb9b223500,626b377229c10585ec392f8a,626b387cced737ca75b866ca,,,,,,,,,,,,,,,,,,,,,,,l,1,"[""0.092"",""0.375"",""0.581"",""0.615""]","[1,1,1,0]",0,51,51,51,1,1,1,,,0,FALSE,0.934,,,,,,,,,,,,,,,,,,,,,,,,,,,,,,
,,001,2022-04-29_03h00.22.867,classification_task,2021.2.3,Win32,144.092219,612ad244a22f81bb9b223500,626b377229c10585ec392f8a,626b387cced737ca75b866ca,,,,,,,,,,,,,,,,,,,,,,,l,1,"[""0.044"",""0.641"",""0.499"",""0.805""]","[1,0,1,1]",0,52,52,52,1,1,0,,,0,FALSE,0.747,,,,,,,,,,,,,,,,,,,,,,,,,,,,,,
,,001,2022-04-29_03h00.22.867,classification_task,2021.2.3,Win32,144.092219,612ad244a22f81bb9b223500,626b377229c10585ec392f8a,626b387cced737ca75b866ca,,,,,,,,,,,,,,,,,,,,,,,a,1,"[""0.210"",""0.540"",""0.758"",""0.641""]","[1,1,1,0]",0,53,53,53,1,0,1,,,0,FALSE,1.681,,,,,,,,,,,,,,,,,,,,,,,,,,,,,,
,,001,2022-04-29_03h00.22.867,classification_task,2021.2.3,Win32,144.092219,612ad244a22f81bb9b223500,626b377229c10585ec392f8a,626b387cced737ca75b866ca,,,,,,,,,,,,,,,,,,,,,,,a,1,"[""0.161"",""0.540"",""0.758"",""0.918""]","[0,1,1,1]",0,54,54,54,1,0,1,,,0,FALSE,1.247,,,,,,,,,,,,,,,,,,,,,,,,,,,,,,
,,001,2022-04-29_03h00.22.867,classification_task,2021.2.3,Win32,144.092219,612ad244a22f81bb9b223500,626b377229c10585ec392f8a,626b387cced737ca75b866ca,,,,,,,,,,,,,,,,,,,,,,,l,1,"[""0.092"",""0.627"",""0.581"",""0.679""]","[1,0,1,1]",0,55,55,55,1,1,1,,,0,FALSE,0.733,,,,,,,,,,,,,,,,,,,,,,,,,,,,,,
,,001,2022-04-29_03h00.22.867,classification_task,2021.2.3,Win32,144.092219,612ad244a22f81bb9b223500,626b377229c10585ec392f8a,626b387cced737ca75b866ca,,,,,,,,,,,,,,,,,,,,,,,a,1,"[""0.307"",""0.418"",""0.883"",""0.951""]","[1,0,1,1]",0,56,56,56,1,0,0,,,0,FALSE,1.034,,,,,,,,,,,,,,,,,,,,,,,,,,,,,,
,,001,2022-04-29_03h00.22.867,classification_task,2021.2.3,Win32,144.092219,612ad244a22f81bb9b223500,626b377229c10585ec392f8a,626b387cced737ca75b866ca,,,,,,,,,,,,,,,,,,,,,,,a,1,"[""0.307"",""0.463"",""0.883"",""0.175""]","[1,1,1,0]",0,57,57,57,1,0,0,,,0,FALSE,1.069,,,,,,,,,,,,,,,,,,,,,,,,,,,,,,
,,001,2022-04-29_03h00.22.867,classification_task,2021.2.3,Win32,144.092219,612ad244a22f81bb9b223500,626b377229c10585ec392f8a,626b387cced737ca75b866ca,,,,,,,,,,,,,,,,,,,,,,,l,1,"[""0.044"",""0.247"",""0.499"",""0.641""]","[1,1,1,0]",0,58,58,58,1,1,0,,,0,FALSE,0.918,,,,,,,,,,,,,,,,,,,,,,,,,,,,,,
,,001,2022-04-29_03h00.22.867,classification_task,2021.2.3,Win32,144.092219,612ad244a22f81bb9b223500,626b377229c10585ec392f8a,626b387cced737ca75b866ca,,,,,,,,,,,,,,,,,,,,,,,a,0,"[""0.149"",""0.375"",""0.581"",""0.679""]","[0,1,1,1]",0,59,59,59,1,1,1,,,0,FALSE,1.51,,,,,,,,,,,,,,,,,,,,,,,,,,,,,,
,,001,2022-04-29_03h00.22.867,classification_task,2021.2.3,Win32,144.092219,612ad244a22f81bb9b223500,626b377229c10585ec392f8a,626b387cced737ca75b866ca,,,,,,,,,,,,,,,,,,,,,,,l,1,"[""0.154"",""0.247"",""0.499"",""0.805""]","[0,1,1,1]",0,60,60,60,1,1,0,,,0,FALSE,1.469,,,,,,,,,,,,,,,,,,,,,,,,,,,,,,
,,001,2022-04-29_03h00.22.867,classification_task,2021.2.3,Win32,144.092219,612ad244a22f81bb9b223500,626b377229c10585ec392f8a,626b387cced737ca75b866ca,,,,,,,,,,,,,,,,,,,,,,,a,1,"[""0.146"",""0.463"",""0.883"",""0.951""]","[0,1,1,1]",0,61,61,61,1,0,0,,,0,FALSE,1.306,,,,,,,,,,,,,,,,,,,,,,,,,,,,,,
,,001,2022-04-29_03h00.22.867,classification_task,2021.2.3,Win32,144.092219,612ad244a22f81bb9b223500,626b377229c10585ec392f8a,626b387cced737ca75b866ca,,,,,,,,,,,,,,,,,,,,,,,l,1,"[""0.044"",""0.247"",""0.146"",""0.805""]","[1,1,0,1]",0,62,62,62,1,1,0,,,0,FALSE,1.008,,,,,,,,,,,,,,,,,,,,,,,,,,,,,,
,,001,2022-04-29_03h00.22.867,classification_task,2021.2.3,Win32,144.092219,612ad244a22f81bb9b223500,626b377229c10585ec392f8a,626b387cced737ca75b866ca,,,,,,,,,,,,,,,,,,,,,,,a,1,"[""0.307"",""0.463"",""0.165"",""0.951""]","[1,1,0,1]",0,63,63,63,1,0,0,,,0,FALSE,1.165,,,,,,,,,,,,,,,,,,,,,,,,,,,,,,
,,001,2022-04-29_03h00.22.867,classification_task,2021.2.3,Win32,144.092219,612ad244a22f81bb9b223500,626b377229c10585ec392f8a,626b387cced737ca75b866ca,,,,,,,,,,,,,,,,,,,,,,,,,,,,,,,,,,,,,,,0, ,,0,1.27669998,170.669,0,1,1,1,1,2,2,,,,,,,,,,,,,,,,,
,,001,2022-04-29_03h00.22.867,classification_task,2021.2.3,Win32,144.092219,612ad244a22f81bb9b223500,626b377229c10585ec392f8a,626b387cced737ca75b866ca,,,,,,,,,,,,,,,,,,,,,,,,,,,,,,,,,,,,,,,1,  ,,0,1.203213796,174.297,0,1,1,1,1,2,2,,,,,,,,,,,,,,,,,
,,001,2022-04-29_03h00.22.867,classification_task,2021.2.3,Win32,144.092219,612ad244a22f81bb9b223500,626b377229c10585ec392f8a,626b387cced737ca75b866ca,,,,,,,,,,,,,,,,,,,,,,,,,,,,,,,,,,,,,,,2,  ,,0,0,178.002,0,1,1,1,1,2,2,,,,,,,,,,,,,,,,,
,,001,2022-04-29_03h00.22.867,classification_task,2021.2.3,Win32,144.092219,612ad244a22f81bb9b223500,626b377229c10585ec392f8a,626b387cced737ca75b866ca,,,,,,,,,,,,,,,,,,,,,,,,,,,,,,,,,,,,,,,,,,,,,0,1,1,1,1,,2,,,,,,,,,,,,,,,,,
,,001,2022-04-29_03h00.22.867,classification_task,2021.2.3,Win32,144.092219,612ad244a22f81bb9b223500,626b377229c10585ec392f8a,626b387cced737ca75b866ca,,,,,,,,,,,,,,,,,,,,,space,11.427,a,0,"[""0.044"",""0.247"",""0.141"",""0.805""]","[1,1,0,1]",0,0,0,0,1,1,0,,,0,FALSE,3.571,,,,,,,,,,,,,,,,,,,,,,,,,,,,,,
,,001,2022-04-29_03h00.22.867,classification_task,2021.2.3,Win32,144.092219,612ad244a22f81bb9b223500,626b377229c10585ec392f8a,626b387cced737ca75b866ca,,,,,,,,,,,,,,,,,,,,,,,l,1,"[""0.092"",""0.375"",""0.581"",""0.627""]","[1,1,1,0]",0,1,1,1,1,1,1,,,0,FALSE,2.742,,,,,,,,,,,,,,,,,,,,,,,,,,,,,,
,,001,2022-04-29_03h00.22.867,classification_task,2021.2.3,Win32,144.092219,612ad244a22f81bb9b223500,626b377229c10585ec392f8a,626b387cced737ca75b866ca,,,,,,,,,,,,,,,,,,,,,,,l,1,"[""0.044"",""0.846"",""0.499"",""0.805""]","[1,0,1,1]",0,2,2,2,1,1,0,,,0,FALSE,1.51,,,,,,,,,,,,,,,,,,,,,,,,,,,,,,
,,001,2022-04-29_03h00.22.867,classification_task,2021.2.3,Win32,144.092219,612ad244a22f81bb9b223500,626b377229c10585ec392f8a,626b387cced737ca75b866ca,,,,,,,,,,,,,,,,,,,,,,,l,0,"[""0.210"",""0.540"",""0.141"",""0.918""]","[1,1,0,1]",0,3,3,3,1,0,1,,,0,FALSE,1.528,,,,,,,,,,,,,,,,,,,,,,,,,,,,,,
,,001,2022-04-29_03h00.22.867,classification_task,2021.2.3,Win32,144.092219,612ad244a22f81bb9b223500,626b377229c10585ec392f8a,626b387cced737ca75b866ca,,,,,,,,,,,,,,,,,,,,,,,l,1,"[""0.092"",""0.149"",""0.581"",""0.679""]","[1,0,1,1]",0,4,4,4,1,1,1,,,0,FALSE,1.398,,,,,,,,,,,,,,,,,,,,,,,,,,,,,,
,,001,2022-04-29_03h00.22.867,classification_task,2021.2.3,Win32,144.092219,612ad244a22f81bb9b223500,626b377229c10585ec392f8a,626b387cced737ca75b866ca,,,,,,,,,,,,,,,,,,,,,,,a,1,"[""0.307"",""0.146"",""0.883"",""0.951""]","[1,0,1,1]",0,5,5,5,1,0,0,,,0,FALSE,1.476,,,,,,,,,,,,,,,,,,,,,,,,,,,,,,
,,001,2022-04-29_03h00.22.867,classification_task,2021.2.3,Win32,144.092219,612ad244a22f81bb9b223500,626b377229c10585ec392f8a,626b387cced737ca75b866ca,,,,,,,,,,,,,,,,,,,,,,,a,0,"[""0.846"",""0.375"",""0.581"",""0.679""]","[0,1,1,1]",0,6,6,6,1,1,1,,,0,FALSE,0.841,,,,,,,,,,,,,,,,,,,,,,,,,,,,,,
,,001,2022-04-29_03h00.22.867,classification_task,2021.2.3,Win32,144.092219,612ad244a22f81bb9b223500,626b377229c10585ec392f8a,626b387cced737ca75b866ca,,,,,,,,,,,,,,,,,,,,,,,a,0,"[""0.044"",""0.247"",""0.499"",""0.627""]","[1,1,1,0]",0,7,7,7,1,1,0,,,0,FALSE,0.629,,,,,,,,,,,,,,,,,,,,,,,,,,,,,,
,,001,2022-04-29_03h00.22.867,classification_task,2021.2.3,Win32,144.092219,612ad244a22f81bb9b223500,626b377229c10585ec392f8a,626b387cced737ca75b866ca,,,,,,,,,,,,,,,,,,,,,,,l,0,"[""0.161"",""0.463"",""0.883"",""0.951""]","[0,1,1,1]",0,8,8,8,1,0,0,,,0,FALSE,1.597,,,,,,,,,,,,,,,,,,,,,,,,,,,,,,
,,001,2022-04-29_03h00.22.867,classification_task,2021.2.3,Win32,144.092219,612ad244a22f81bb9b223500,626b377229c10585ec392f8a,626b387cced737ca75b866ca,,,,,,,,,,,,,,,,,,,,,,,l,0,"[""0.307"",""0.463"",""0.883"",""0.846""]","[1,1,1,0]",0,9,9,9,1,0,0,,,0,FALSE,1.189,,,,,,,,,,,,,,,,,,,,,,,,,,,,,,
,,001,2022-04-29_03h00.22.867,classification_task,2021.2.3,Win32,144.092219,612ad244a22f81bb9b223500,626b377229c10585ec392f8a,626b387cced737ca75b866ca,,,,,,,,,,,,,,,,,,,,,,,a,1,"[""0.175"",""0.540"",""0.758"",""0.918""]","[0,1,1,1]",0,10,10,10,1,0,1,,,0,FALSE,1.294,,,,,,,,,,,,,,,,,,,,,,,,,,,,,,
,,001,2022-04-29_03h00.22.867,classification_task,2021.2.3,Win32,144.092219,612ad244a22f81bb9b223500,626b377229c10585ec392f8a,626b387cced737ca75b866ca,,,,,,,,,,,,,,,,,,,,,,,a,0,"[""0.146"",""0.247"",""0.499"",""0.805""]","[0,1,1,1]",0,11,11,11,1,1,0,,,0,FALSE,1.188,,,,,,,,,,,,,,,,,,,,,,,,,,,,,,
,,001,2022-04-29_03h00.22.867,classification_task,2021.2.3,Win32,144.092219,612ad244a22f81bb9b223500,626b377229c10585ec392f8a,626b387cced737ca75b866ca,,,,,,,,,,,,,,,,,,,,,,,a,1,"[""0.307"",""0.463"",""0.150"",""0.951""]","[1,1,0,1]",0,12,12,12,1,0,0,,,0,FALSE,1.167,,,,,,,,,,,,,,,,,,,,,,,,,,,,,,
,,001,2022-04-29_03h00.22.867,classification_task,2021.2.3,Win32,144.092219,612ad244a22f81bb9b223500,626b377229c10585ec392f8a,626b387cced737ca75b866ca,,,,,,,,,,,,,,,,,,,,,,,l,1,"[""0.092"",""0.375"",""0.418"",""0.679""]","[1,1,0,1]",0,13,13,13,1,1,1,,,0,FALSE,1.215,,,,,,,,,,,,,,,,,,,,,,,,,,,,,,
,,001,2022-04-29_03h00.22.867,classification_task,2021.2.3,Win32,144.092219,612ad244a22f81bb9b223500,626b377229c10585ec392f8a,626b387cced737ca75b866ca,,,,,,,,,,,,,,,,,,,,,,,a,1,"[""0.210"",""0.540"",""0.758"",""0.846""]","[1,1,1,0]",0,14,14,14,1,0,1,,,0,FALSE,1.27,,,,,,,,,,,,,,,,,,,,,,,,,,,,,,
,,001,2022-04-29_03h00.22.867,classification_task,2021.2.3,Win32,144.092219,612ad244a22f81bb9b223500,626b377229c10585ec392f8a,626b387cced737ca75b866ca,,,,,,,,,,,,,,,,,,,,,,,l,0,"[""0.210"",""0.846"",""0.758"",""0.918""]","[1,0,1,1]",0,15,15,15,1,0,1,,,0,FALSE,1.085,,,,,,,,,,,,,,,,,,,,,,,,,,,,,,
,,001,2022-04-29_03h00.22.867,classification_task,2021.2.3,Win32,144.092219,612ad244a22f81bb9b223500,626b377229c10585ec392f8a,626b387cced737ca75b866ca,,,,,,,,,,,,,,,,,,,,,,,a,1,"[""0.627"",""0.463"",""0.883"",""0.951""]","[0,1,1,1]",0,16,16,16,1,0,0,,,0,FALSE,1.567,,,,,,,,,,,,,,,,,,,,,,,,,,,,,,
,,001,2022-04-29_03h00.22.867,classification_task,2021.2.3,Win32,144.092219,612ad244a22f81bb9b223500,626b377229c10585ec392f8a,626b387cced737ca75b866ca,,,,,,,,,,,,,,,,,,,,,,,a,0,"[""0.627"",""0.247"",""0.499"",""0.805""]","[0,1,1,1]",0,17,17,17,1,1,0,,,0,FALSE,0.66,,,,,,,,,,,,,,,,,,,,,,,,,,,,,,
,,001,2022-04-29_03h00.22.867,classification_task,2021.2.3,Win32,144.092219,612ad244a22f81bb9b223500,626b377229c10585ec392f8a,626b387cced737ca75b866ca,,,,,,,,,,,,,,,,,,,,,,,l,0,"[""0.210"",""0.540"",""0.175"",""0.918""]","[1,1,0,1]",0,18,18,18,1,0,1,,,0,FALSE,1.376,,,,,,,,,,,,,,,,,,,,,,,,,,,,,,
,,001,2022-04-29_03h00.22.867,classification_task,2021.2.3,Win32,144.092219,612ad244a22f81bb9b223500,626b377229c10585ec392f8a,626b387cced737ca75b866ca,,,,,,,,,,,,,,,,,,,,,,,a,0,"[""0.175"",""0.375"",""0.581"",""0.679""]","[0,1,1,1]",0,19,19,19,1,1,1,,,0,FALSE,1.643,,,,,,,,,,,,,,,,,,,,,,,,,,,,,,
,,001,2022-04-29_03h00.22.867,classification_task,2021.2.3,Win32,144.092219,612ad244a22f81bb9b223500,626b377229c10585ec392f8a,626b387cced737ca75b866ca,,,,,,,,,,,,,,,,,,,,,,,a,1,"[""0.307"",""0.463"",""0.883"",""0.165""]","[1,1,1,0]",0,20,20,20,1,0,0,,,0,FALSE,1.121,,,,,,,,,,,,,,,,,,,,,,,,,,,,,,
,,001,2022-04-29_03h00.22.867,classification_task,2021.2.3,Win32,144.092219,612ad244a22f81bb9b223500,626b377229c10585ec392f8a,626b387cced737ca75b866ca,,,,,,,,,,,,,,,,,,,,,,,a,1,"[""0.307"",""0.463"",""0.615"",""0.951""]","[1,1,0,1]",0,21,21,21,1,0,0,,,0,FALSE,0.962,,,,,,,,,,,,,,,,,,,,,,,,,,,,,,
,,001,2022-04-29_03h00.22.867,classification_task,2021.2.3,Win32,144.092219,612ad244a22f81bb9b223500,626b377229c10585ec392f8a,626b387cced737ca75b866ca,,,,,,,,,,,,,,,,,,,,,,,a,0,"[""0.044"",""0.247"",""0.150"",""0.805""]","[1,1,0,1]",0,22,22,22,1,1,0,,,0,FALSE,1.528,,,,,,,,,,,,,,,,,,,,,,,,,,,,,,
,,001,2022-04-29_03h00.22.867,classification_task,2021.2.3,Win32,144.092219,612ad244a22f81bb9b223500,626b377229c10585ec392f8a,626b387cced737ca75b866ca,,,,,,,,,,,,,,,,,,,,,,,a,0,"[""0.092"",""0.375"",""0.175"",""0.679""]","[1,1,0,1]",0,23,23,23,1,1,1,,,0,FALSE,0.829,,,,,,,,,,,,,,,,,,,,,,,,,,,,,,
,,001,2022-04-29_03h00.22.867,classification_task,2021.2.3,Win32,144.092219,612ad244a22f81bb9b223500,626b377229c10585ec392f8a,626b387cced737ca75b866ca,,,,,,,,,,,,,,,,,,,,,,,l,0,"[""0.210"",""0.150"",""0.758"",""0.918""]","[1,0,1,1]",0,24,24,24,1,0,1,,,0,FALSE,1.234,,,,,,,,,,,,,,,,,,,,,,,,,,,,,,
,,001,2022-04-29_03h00.22.867,classification_task,2021.2.3,Win32,144.092219,612ad244a22f81bb9b223500,626b377229c10585ec392f8a,626b387cced737ca75b866ca,,,,,,,,,,,,,,,,,,,,,,,l,0,"[""0.307"",""0.846"",""0.883"",""0.951""]","[1,0,1,1]",0,25,25,25,1,0,0,,,0,FALSE,1.097,,,,,,,,,,,,,,,,,,,,,,,,,,,,,,
,,001,2022-04-29_03h00.22.867,classification_task,2021.2.3,Win32,144.092219,612ad244a22f81bb9b223500,626b377229c10585ec392f8a,626b387cced737ca75b866ca,,,,,,,,,,,,,,,,,,,,,,,l,0,"[""0.210"",""0.540"",""0.758"",""0.141""]","[1,1,1,0]",0,26,26,26,1,0,1,,,0,FALSE,0.668,,,,,,,,,,,,,,,,,,,,,,,,,,,,,,
,,001,2022-04-29_03h00.22.867,classification_task,2021.2.3,Win32,144.092219,612ad244a22f81bb9b223500,626b377229c10585ec392f8a,626b387cced737ca75b866ca,,,,,,,,,,,,,,,,,,,,,,,l,1,"[""0.092"",""0.375"",""0.581"",""0.627""]","[1,1,1,0]",0,27,27,27,1,1,1,,,0,FALSE,0.618,,,,,,,,,,,,,,,,,,,,,,,,,,,,,,
,,001,2022-04-29_03h00.22.867,classification_task,2021.2.3,Win32,144.092219,612ad244a22f81bb9b223500,626b377229c10585ec392f8a,626b387cced737ca75b866ca,,,,,,,,,,,,,,,,,,,,,,,a,0,"[""0.092"",""0.175"",""0.581"",""0.679""]","[1,0,1,1]",0,28,28,28,1,1,1,,,0,FALSE,1.545,,,,,,,,,,,,,,,,,,,,,,,,,,,,,,
,,001,2022-04-29_03h00.22.867,classification_task,2021.2.3,Win32,144.092219,612ad244a22f81bb9b223500,626b377229c10585ec392f8a,626b387cced737ca75b866ca,,,,,,,,,,,,,,,,,,,,,,,a,0,"[""0.044"",""0.247"",""0.499"",""0.150""]","[1,1,1,0]",0,29,29,29,1,1,0,,,0,FALSE,1.96,,,,,,,,,,,,,,,,,,,,,,,,,,,,,,
,,001,2022-04-29_03h00.22.867,classification_task,2021.2.3,Win32,144.092219,612ad244a22f81bb9b223500,626b377229c10585ec392f8a,626b387cced737ca75b866ca,,,,,,,,,,,,,,,,,,,,,,,l,1,"[""0.044"",""0.846"",""0.499"",""0.805""]","[1,0,1,1]",0,30,30,30,1,1,0,,,0,FALSE,1.369,,,,,,,,,,,,,,,,,,,,,,,,,,,,,,
,,001,2022-04-29_03h00.22.867,classification_task,2021.2.3,Win32,144.092219,612ad244a22f81bb9b223500,626b377229c10585ec392f8a,626b387cced737ca75b866ca,,,,,,,,,,,,,,,,,,,,,,,a,1,"[""0.161"",""0.540"",""0.758"",""0.918""]","[0,1,1,1]",0,31,31,31,1,0,1,,,0,FALSE,1.25,,,,,,,,,,,,,,,,,,,,,,,,,,,,,,
,,001,2022-04-29_03h00.22.867,classification_task,2021.2.3,Win32,144.092219,612ad244a22f81bb9b223500,626b377229c10585ec392f8a,626b387cced737ca75b866ca,,,,,,,,,,,,,,,,,,,,,,,a,0,"[""0.149"",""0.375"",""0.581"",""0.679""]","[0,1,1,1]",0,32,32,32,1,1,1,,,0,FALSE,1.493,,,,,,,,,,,,,,,,,,,,,,,,,,,,,,
,,001,2022-04-29_03h00.22.867,classification_task,2021.2.3,Win32,144.092219,612ad244a22f81bb9b223500,626b377229c10585ec392f8a,626b387cced737ca75b866ca,,,,,,,,,,,,,,,,,,,,,,,a,0,"[""0.641"",""0.247"",""0.499"",""0.805""]","[0,1,1,1]",0,33,33,33,1,1,0,,,0,FALSE,1.222,,,,,,,,,,,,,,,,,,,,,,,,,,,,,,
,,001,2022-04-29_03h00.22.867,classification_task,2021.2.3,Win32,144.092219,612ad244a22f81bb9b223500,626b377229c10585ec392f8a,626b387cced737ca75b866ca,,,,,,,,,,,,,,,,,,,,,,,a,1,"[""0.210"",""0.540"",""0.418"",""0.918""]","[1,1,0,1]",0,34,34,34,1,0,1,,,0,FALSE,1.202,,,,,,,,,,,,,,,,,,,,,,,,,,,,,,
,,001,2022-04-29_03h00.22.867,classification_task,2021.2.3,Win32,144.092219,612ad244a22f81bb9b223500,626b377229c10585ec392f8a,626b387cced737ca75b866ca,,,,,,,,,,,,,,,,,,,,,,,l,0,"[""0.210"",""0.141"",""0.758"",""0.918""]","[1,0,1,1]",0,35,35,35,1,0,1,,,0,FALSE,1.289,,,,,,,,,,,,,,,,,,,,,,,,,,,,,,
,,001,2022-04-29_03h00.22.867,classification_task,2021.2.3,Win32,144.092219,612ad244a22f81bb9b223500,626b377229c10585ec392f8a,626b387cced737ca75b866ca,,,,,,,,,,,,,,,,,,,,,,,l,0,"[""0.307"",""0.463"",""0.883"",""0.411""]","[1,1,1,0]",0,36,36,36,1,0,0,,,0,FALSE,1.664,,,,,,,,,,,,,,,,,,,,,,,,,,,,,,
,,001,2022-04-29_03h00.22.867,classification_task,2021.2.3,Win32,144.092219,612ad244a22f81bb9b223500,626b377229c10585ec392f8a,626b387cced737ca75b866ca,,,,,,,,,,,,,,,,,,,,,,,a,1,"[""0.307"",""0.463"",""0.627"",""0.951""]","[1,1,0,1]",0,37,37,37,1,0,0,,,0,FALSE,1.351,,,,,,,,,,,,,,,,,,,,,,,,,,,,,,
,,001,2022-04-29_03h00.22.867,classification_task,2021.2.3,Win32,144.092219,612ad244a22f81bb9b223500,626b377229c10585ec392f8a,626b387cced737ca75b866ca,,,,,,,,,,,,,,,,,,,,,,,l,0,"[""0.210"",""0.540"",""0.758"",""0.627""]","[1,1,1,0]",0,38,38,38,1,0,1,,,0,FALSE,2.405,,,,,,,,,,,,,,,,,,,,,,,,,,,,,,
,,001,2022-04-29_03h00.22.867,classification_task,2021.2.3,Win32,144.092219,612ad244a22f81bb9b223500,626b377229c10585ec392f8a,626b387cced737ca75b866ca,,,,,,,,,,,,,,,,,,,,,,,l,0,"[""0.307"",""0.627"",""0.883"",""0.951""]","[1,0,1,1]",0,39,39,39,1,0,0,,,0,FALSE,0.755,,,,,,,,,,,,,,,,,,,,,,,,,,,,,,
,,001,2022-04-29_03h00.22.867,classification_task,2021.2.3,Win32,144.092219,612ad244a22f81bb9b223500,626b377229c10585ec392f8a,626b387cced737ca75b866ca,,,,,,,,,,,,,,,,,,,,,,,l,1,"[""0.092"",""0.375"",""0.581"",""0.615""]","[1,1,1,0]",0,40,40,40,1,1,1,,,0,FALSE,0.57,,,,,,,,,,,,,,,,,,,,,,,,,,,,,,
,,001,2022-04-29_03h00.22.867,classification_task,2021.2.3,Win32,144.092219,612ad244a22f81bb9b223500,626b377229c10585ec392f8a,626b387cced737ca75b866ca,,,,,,,,,,,,,,,,,,,,,,,l,0,"[""0.146"",""0.463"",""0.883"",""0.951""]","[0,1,1,1]",0,41,41,41,1,0,0,,,0,FALSE,0.725,,,,,,,,,,,,,,,,,,,,,,,,,,,,,,
,,001,2022-04-29_03h00.22.867,classification_task,2021.2.3,Win32,144.092219,612ad244a22f81bb9b223500,626b377229c10585ec392f8a,626b387cced737ca75b866ca,,,,,,,,,,,,,,,,,,,,,,,l,1,"[""0.092"",""0.375"",""0.161"",""0.679""]","[1,1,0,1]",0,42,42,42,1,1,1,,,0,FALSE,0.691,,,,,,,,,,,,,,,,,,,,,,,,,,,,,,
,,001,2022-04-29_03h00.22.867,classification_task,2021.2.3,Win32,144.092219,612ad244a22f81bb9b223500,626b377229c10585ec392f8a,626b387cced737ca75b866ca,,,,,,,,,,,,,,,,,,,,,,,a,0,"[""0.044"",""0.247"",""0.146"",""0.805""]","[1,1,0,1]",0,43,43,43,1,1,0,,,0,FALSE,1.621,,,,,,,,,,,,,,,,,,,,,,,,,,,,,,
,,001,2022-04-29_03h00.22.867,classification_task,2021.2.3,Win32,144.092219,612ad244a22f81bb9b223500,626b377229c10585ec392f8a,626b387cced737ca75b866ca,,,,,,,,,,,,,,,,,,,,,,,a,1,"[""0.411"",""0.540"",""0.758"",""0.918""]","[0,1,1,1]",0,44,44,44,1,0,1,,,0,FALSE,1.181,,,,,,,,,,,,,,,,,,,,,,,,,,,,,,
,,001,2022-04-29_03h00.22.867,classification_task,2021.2.3,Win32,144.092219,612ad244a22f81bb9b223500,626b377229c10585ec392f8a,626b387cced737ca75b866ca,,,,,,,,,,,,,,,,,,,,,,,a,0,"[""0.044"",""0.247"",""0.499"",""0.615""]","[1,1,1,0]",0,45,45,45,1,1,0,,,0,FALSE,0.672,,,,,,,,,,,,,,,,,,,,,,,,,,,,,,
,,001,2022-04-29_03h00.22.867,classification_task,2021.2.3,Win32,144.092219,612ad244a22f81bb9b223500,626b377229c10585ec392f8a,626b387cced737ca75b866ca,,,,,,,,,,,,,,,,,,,,,,,l,1,"[""0.044"",""0.149"",""0.499"",""0.805""]","[1,0,1,1]",0,46,46,46,1,1,0,,,0,FALSE,3.041,,,,,,,,,,,,,,,,,,,,,,,,,,,,,,
,,001,2022-04-29_03h00.22.867,classification_task,2021.2.3,Win32,144.092219,612ad244a22f81bb9b223500,626b377229c10585ec392f8a,626b387cced737ca75b866ca,,,,,,,,,,,,,,,,,,,,,,,a,0,"[""0.092"",""0.411"",""0.581"",""0.679""]","[1,0,1,1]",0,47,47,47,1,1,1,,,0,FALSE,1.272,,,,,,,,,,,,,,,,,,,,,,,,,,,,,,
,,001,2022-04-29_03h00.22.867,classification_task,2021.2.3,Win32,144.092219,612ad244a22f81bb9b223500,626b377229c10585ec392f8a,626b387cced737ca75b866ca,,,,,,,,,,,,,,,,,,,,,,,l,0,"[""0.210"",""0.161"",""0.758"",""0.918""]","[1,0,1,1]",0,48,48,48,1,0,1,,,0,FALSE,1.181,,,,,,,,,,,,,,,,,,,,,,,,,,,,,,
,,001,2022-04-29_03h00.22.867,classification_task,2021.2.3,Win32,144.092219,612ad244a22f81bb9b223500,626b377229c10585ec392f8a,626b387cced737ca75b866ca,,,,,,,,,,,,,,,,,,,,,,,l,1,"[""0.092"",""0.375"",""0.418"",""0.679""]","[1,1,0,1]",0,49,49,49,1,1,1,,,0,FALSE,0.486,,,,,,,,,,,,,,,,,,,,,,,,,,,,,,
,,001,2022-04-29_03h00.22.867,classification_task,2021.2.3,Win32,144.092219,612ad244a22f81bb9b223500,626b377229c10585ec392f8a,626b387cced737ca75b866ca,,,,,,,,,,,,,,,,,,,,,,,a,0,"[""0.044"",""0.247"",""0.499"",""0.150""]","[1,1,1,0]",0,50,50,50,1,1,0,,,0,FALSE,1.182,,,,,,,,,,,,,,,,,,,,,,,,,,,,,,
,,001,2022-04-29_03h00.22.867,classification_task,2021.2.3,Win32,144.092219,612ad244a22f81bb9b223500,626b377229c10585ec392f8a,626b387cced737ca75b866ca,,,,,,,,,,,,,,,,,,,,,,,a,0,"[""0.044"",""0.247"",""0.161"",""0.805""]","[1,1,0,1]",0,51,51,51,1,1,0,,,0,FALSE,1.196,,,,,,,,,,,,,,,,,,,,,,,,,,,,,,
,,001,2022-04-29_03h00.22.867,classification_task,2021.2.3,Win32,144.092219,612ad244a22f81bb9b223500,626b377229c10585ec392f8a,626b387cced737ca75b866ca,,,,,,,,,,,,,,,,,,,,,,,l,1,"[""0.092"",""0.141"",""0.581"",""0.679""]","[1,0,1,1]",0,52,52,52,1,1,1,,,0,FALSE,1.599,,,,,,,,,,,,,,,,,,,,,,,,,,,,,,
,,001,2022-04-29_03h00.22.867,classification_task,2021.2.3,Win32,144.092219,612ad244a22f81bb9b223500,626b377229c10585ec392f8a,626b387cced737ca75b866ca,,,,,,,,,,,,,,,,,,,,,,,a,1,"[""0.307"",""0.141"",""0.883"",""0.951""]","[1,0,1,1]",0,53,53,53,1,0,0,,,0,FALSE,1.592,,,,,,,,,,,,,,,,,,,,,,,,,,,,,,
,,001,2022-04-29_03h00.22.867,classification_task,2021.2.3,Win32,144.092219,612ad244a22f81bb9b223500,626b377229c10585ec392f8a,626b387cced737ca75b866ca,,,,,,,,,,,,,,,,,,,,,,,a,1,"[""0.846"",""0.540"",""0.758"",""0.918""]","[0,1,1,1]",0,54,54,54,1,0,1,,,0,FALSE,1.795,,,,,,,,,,,,,,,,,,,,,,,,,,,,,,
,,001,2022-04-29_03h00.22.867,classification_task,2021.2.3,Win32,144.092219,612ad244a22f81bb9b223500,626b377229c10585ec392f8a,626b387cced737ca75b866ca,,,,,,,,,,,,,,,,,,,,,,,a,0,"[""0.092"",""0.375"",""0.581"",""0.159""]","[1,1,1,0]",0,55,55,55,1,1,1,,,0,FALSE,2.358,,,,,,,,,,,,,,,,,,,,,,,,,,,,,,
,,001,2022-04-29_03h00.22.867,classification_task,2021.2.3,Win32,144.092219,612ad244a22f81bb9b223500,626b377229c10585ec392f8a,626b387cced737ca75b866ca,,,,,,,,,,,,,,,,,,,,,,,a,0,"[""0.150"",""0.375"",""0.581"",""0.679""]","[0,1,1,1]",0,56,56,56,1,1,1,,,0,FALSE,1.939,,,,,,,,,,,,,,,,,,,,,,,,,,,,,,
,,001,2022-04-29_03h00.22.867,classification_task,2021.2.3,Win32,144.092219,612ad244a22f81bb9b223500,626b377229c10585ec392f8a,626b387cced737ca75b866ca,,,,,,,,,,,,,,,,,,,,,,,l,0,"[""0.146"",""0.463"",""0.883"",""0.951""]","[0,1,1,1]",0,57,57,57,1,0,0,,,0,FALSE,1.516,,,,,,,,,,,,,,,,,,,,,,,,,,,,,,
,,001,2022-04-29_03h00.22.867,classification_task,2021.2.3,Win32,144.092219,612ad244a22f81bb9b223500,626b377229c10585ec392f8a,626b387cced737ca75b866ca,,,,,,,,,,,,,,,,,,,,,,,l,0,"[""0.210"",""0.540"",""0.149"",""0.918""]","[1,1,0,1]",0,58,58,58,1,0,1,,,0,FALSE,0.611,,,,,,,,,,,,,,,,,,,,,,,,,,,,,,
,,001,2022-04-29_03h00.22.867,classification_task,2021.2.3,Win32,144.092219,612ad244a22f81bb9b223500,626b377229c10585ec392f8a,626b387cced737ca75b866ca,,,,,,,,,,,,,,,,,,,,,,,a,1,"[""0.307"",""0.463"",""0.883"",""0.627""]","[1,1,1,0]",0,59,59,59,1,0,0,,,0,FALSE,1.326,,,,,,,,,,,,,,,,,,,,,,,,,,,,,,
,,001,2022-04-29_03h00.22.867,classification_task,2021.2.3,Win32,144.092219,612ad244a22f81bb9b223500,626b377229c10585ec392f8a,626b387cced737ca75b866ca,,,,,,,,,,,,,,,,,,,,,,,l,1,"[""0.846"",""0.247"",""0.499"",""0.805""]","[0,1,1,1]",0,60,60,60,1,1,0,,,0,FALSE,1.369,,,,,,,,,,,,,,,,,,,,,,,,,,,,,,
,,001,2022-04-29_03h00.22.867,classification_task,2021.2.3,Win32,144.092219,612ad244a22f81bb9b223500,626b377229c10585ec392f8a,626b387cced737ca75b866ca,,,,,,,,,,,,,,,,,,,,,,,l,0,"[""0.210"",""0.540"",""0.758"",""0.154""]","[1,1,1,0]",0,61,61,61,1,0,1,,,0,FALSE,1.077,,,,,,,,,,,,,,,,,,,,,,,,,,,,,,
,,001,2022-04-29_03h00.22.867,classification_task,2021.2.3,Win32,144.092219,612ad244a22f81bb9b223500,626b377229c10585ec392f8a,626b387cced737ca75b866ca,,,,,,,,,,,,,,,,,,,,,,,a,0,"[""0.044"",""0.641"",""0.499"",""0.805""]","[1,0,1,1]",0,62,62,62,1,1,0,,,0,FALSE,1.354,,,,,,,,,,,,,,,,,,,,,,,,,,,,,,
,,001,2022-04-29_03h00.22.867,classification_task,2021.2.3,Win32,144.092219,612ad244a22f81bb9b223500,626b377229c10585ec392f8a,626b387cced737ca75b866ca,,,,,,,,,,,,,,,,,,,,,,,a,1,"[""0.307"",""0.463"",""0.627"",""0.951""]","[1,1,0,1]",0,63,63,63,1,0,0,,,0,FALSE,1.272,,,,,,,,,,,,,,,,,,,,,,,,,,,,,,
,,001,2022-04-29_03h00.22.867,classification_task,2021.2.3,Win32,144.092219,612ad244a22f81bb9b223500,626b377229c10585ec392f8a,626b387cced737ca75b866ca,,,,,,,,,,,,,,,,,,,,,,,,,,,,,,,,,,,,,,,0, ,,0,4.314128944,165.973,0,2,2,2,1,2,3,,,,,,,,,,,,,,,,,
,,001,2022-04-29_03h00.22.867,classification_task,2021.2.3,Win32,144.092219,612ad244a22f81bb9b223500,626b377229c10585ec392f8a,626b387cced737ca75b866ca,,,,,,,,,,,,,,,,,,,,,,,,,,,,,,,,,,,,,,,1,  ,,0,2.33000196,169.838,0,2,2,2,1,2,3,,,,,,,,,,,,,,,,,
,,001,2022-04-29_03h00.22.867,classification_task,2021.2.3,Win32,144.092219,612ad244a22f81bb9b223500,626b377229c10585ec392f8a,626b387cced737ca75b866ca,,,,,,,,,,,,,,,,,,,,,,,,,,,,,,,,,,,,,,,2,  ,,0,0.909269057,171.336,0,2,2,2,1,2,3,,,,,,,,,,,,,,,,,
,,001,2022-04-29_03h00.22.867,classification_task,2021.2.3,Win32,144.092219,612ad244a22f81bb9b223500,626b377229c10585ec392f8a,626b387cced737ca75b866ca,,,,,,,,,,,,,,,,,,,,,,,,,,,,,,,,,,,,,,,,,,,,,0,2,2,2,1,,3,,,,,,,,,,,,,,,,,
,,001,2022-04-29_03h00.22.867,classification_task,2021.2.3,Win32,144.092219,612ad244a22f81bb9b223500,626b377229c10585ec392f8a,626b387cced737ca75b866ca,,,,,,,,,,,,,,,,,,,,,,,,,,,,,,,,,,,,,,,,,,,,,,,,,,,,,I believe the aid is a competent performer,,0.7,0,3,850.834,0,0,0,0,1,0,,,,
,,001,2022-04-29_03h00.22.867,classification_task,2021.2.3,Win32,144.092219,612ad244a22f81bb9b223500,626b377229c10585ec392f8a,626b387cced737ca75b866ca,,,,,,,,,,,,,,,,,,,,,,,,,,,,,,,,,,,,,,,,,,,,,,,,,,,,,I trust the aid,,0.7,0,4,854.917,0,0,0,0,1,0,,,,
,,001,2022-04-29_03h00.22.867,classification_task,2021.2.3,Win32,144.092219,612ad244a22f81bb9b223500,626b377229c10585ec392f8a,626b387cced737ca75b866ca,,,,,,,,,,,,,,,,,,,,,,,,,,,,,,,,,,,,,,,,,,,,,,,,,,,,,I have confidence in the advice given by the aid,,0.7,0,5,860.898,0,0,0,0,1,0,,,,
,,001,2022-04-29_03h00.22.867,classification_task,2021.2.3,Win32,144.092219,612ad244a22f81bb9b223500,626b377229c10585ec392f8a,626b387cced737ca75b866ca,,,,,,,,,,,,,,,,,,,,,,,,,,,,,,,,,,,,,,,,,,,,,,,,,,,,,I can depend on the aid,,0.7,0,5,864.922,0,0,0,0,1,0,,,,
,,001,2022-04-29_03h00.22.867,classification_task,2021.2.3,Win32,144.092219,612ad244a22f81bb9b223500,626b377229c10585ec392f8a,626b387cced737ca75b866ca,,,,,,,,,,,,,,,,,,,,,,,,,,,,,,,,,,,,,,,,,,,,,,,,,,,,,I can rely on the aid to behave in consistent ways,,0.7,0,5,869.236,0,0,0,0,1,0,,,,
,,001,2022-04-29_03h00.22.867,classification_task,2021.2.3,Win32,144.092219,612ad244a22f81bb9b223500,626b377229c10585ec392f8a,626b387cced737ca75b866ca,,,,,,,,,,,,,,,,,,,,,,,,,,,,,,,,,,,,,,,,,,,,,,,,,,,,,I can rely on the aid to do its best every time I take its advice,,0.7,0,5,873.617,0,0,0,0,1,0,,,,
,,001,2022-04-29_03h00.22.867,classification_task,2021.2.3,Win32,144.092219,612ad244a22f81bb9b223500,626b377229c10585ec392f8a,626b387cced737ca75b866ca,,,,,,,,,,,,,,,,,,,,,,,,,,,,,,,,,,,,,,,,,,,,,,,,,,,,,"On trials you completed with assistance from the aid, how frequently did you think the aid was correct?",,0.7,0,100%,,0,0,0,0,1,0,,,,
,,001,2022-04-29_03h00.22.867,classification_task,2021.2.3,Win32,144.092219,612ad244a22f81bb9b223500,626b377229c10585ec392f8a,626b387cced737ca75b866ca,,,,,,,,,,,,,,,,,,,,,,,,,,,,,,,,,,,,,,,,,,,,,,,,,,,,,"On trials you completed without the aid, how frequently did you think you were correct?",,0.7,0,50 %,,0,0,0,0,1,0,,,,
,,001,2022-04-29_03h00.22.867,classification_task,2021.2.3,Win32,144.092219,612ad244a22f81bb9b223500,626b377229c10585ec392f8a,626b387cced737ca75b866ca,,,,,,,,,,,,,,,,,,,,,,,,,,,,,,,,,,,,,,,,,,,,,,,,,,,,,,,,,,,0,0,0,0,1,,,,,
,,001,2022-04-29_03h00.22.867,classification_task,2021.2.3,Win32,144.092219,612ad244a22f81bb9b223500,626b377229c10585ec392f8a,626b387cced737ca75b866ca,,,,,,,,,,,,,,,,,,,,,,,,,,,,,,,,,,,,,,,,,,,,,,,,,,,,,,,,,,,,,,,,,space,12.553,914.172,
,,001,2022-04-29_03h00.22.867,classification_task,2021.2.3,Win32,144.092219,612ad244a22f81bb9b223500,626b377229c10585ec392f8a,626b387cced737ca75b866ca,,,,,,,,,,,,,,,,,,,,,,,,,,,,,,,,,,,,,,,,,,,,,,,,,,,,,,,,,,,,,,,,,,,,Mozilla/5.0 (Windows NT 10.0; Win64; x64; rv:99.0) Gecko/20100101 Firefox/99.0
