usingWebGL,participant,session,date,expName,psychopyVersion,OS,frameRate,PROLIFIC_PID,STUDY_ID,SESSION_ID,signatures_friend,signatures_foe,band_ranges_top,band_ranges_bottom,formitemText,formtype,formundefined,formitemWidth,formindex,formresponse,formrt,key_resp_2.keys,key_resp_2.rt,tute_resp.keys,tute_resp.rt,tutorial.thisRepN,tutorial.thisTrialN,tutorial.thisN,tutorial.thisIndex,tutorial.ran,key_resp_4.keys,key_resp_4.rt,key_resp.keys,key_resp.corr,key_resp.rt,lines_presented,is_signal_presented,trials.thisRepN,trials.thisTrialN,trials.thisN,trials.thisIndex,trials.ran,vessel,active_band,lines,is_signal,supported_pos,catch_trial,debrief_formindex,debrief_formitemText,debrief_formtype,debrief_formitemWidth,debrief_formresponse,debrief_formrt,phases.thisRepN,phases.thisTrialN,phases.thisN,phases.thisIndex,phases.ran,phases.order,phase,key_resp_3.keys,trustitemText,trusttype,trustitemWidth,trustindex,trustresponse,trustrt,support_status.thisRepN,support_status.thisTrialN,support_status.thisN,support_status.thisIndex,support_status.ran,support_status.order,key_resp_5.keys,key_resp_5.rt,globalClockTime,userAgent
TRUE,,001,2022-04-28_20h11.35.601,classification_task,2021.2.3,Win32,59.96641881,5c05922f4e1b7b00016af702,626b377229c10585ec392f8a,626b3b1bcd2dc8cbf2e4efbe,,,,,,,,,,,,,,,,,,,,,,,,,,,,,,,,,,,,,,,,,,,,,,,,,,,,,,,,,,,,,,,,,,,,
,,001,2022-04-28_20h11.35.601,classification_task,2021.2.3,Win32,59.96641881,5c05922f4e1b7b00016af702,626b377229c10585ec392f8a,626b3b1bcd2dc8cbf2e4efbe,"[[""0.226"",""0.430"",""0.728"",""0.904""],[""0.184"",""0.480"",""0.861"",""0.973""]]","[[""0.057"",""0.302"",""0.539"",""0.817""],[""0.145"",""0.391"",""0.596"",""0.680""]]","[1,10]","[100,1000]",Video game experience,,,0.7,0,,,,,,,,,,,,,,,,,,,,,,,,,,,,,,,,,,,,,,,,,,,,,,,,,,,,,,,,,,,
,,001,2022-04-28_20h11.35.601,classification_task,2021.2.3,Win32,59.96641881,5c05922f4e1b7b00016af702,626b377229c10585ec392f8a,626b3b1bcd2dc8cbf2e4efbe,,,,,Approximately how many hours did you spend playing video games in the last week?,,,0.7,0,30,,,,,,,,,,,,,,,,,,,,,,,,,,,,,,,,,,,,,,,,,,,,,,,,,,,,,,,,,,
,,001,2022-04-28_20h11.35.601,classification_task,2021.2.3,Win32,59.96641881,5c05922f4e1b7b00016af702,626b377229c10585ec392f8a,626b3b1bcd2dc8cbf2e4efbe,,,,,"Which game did you play the most this year? (Enter ""None"" if you didn't play any)",,,0.7,0,Elden Ring,,,,,,,,,,,,,,,,,,,,,,,,,,,,,,,,,,,,,,,,,,,,,,,,,,,,,,,,,,
,,001,2022-04-28_20h11.35.601,classification_task,2021.2.3,Win32,59.96641881,5c05922f4e1b7b00016af702,626b377229c10585ec392f8a,626b3b1bcd2dc8cbf2e4efbe,,,,,Visual perception,,,0.7,0,,,,,,,,,,,,,,,,,,,,,,,,,,,,,,,,,,,,,,,,,,,,,,,,,,,,,,,,,,,
,,001,2022-04-28_20h11.35.601,classification_task,2021.2.3,Win32,59.96641881,5c05922f4e1b7b00016af702,626b377229c10585ec392f8a,626b3b1bcd2dc8cbf2e4efbe,,,,,Do you have any form of color blindness?,,,0.7,0,No,26.1187,,,,,,,,,,,,,,,,,,,,,,,,,,,,,,,,,,,,,,,,,,,,,,,,,,,,,,,,,
,,001,2022-04-28_20h11.35.601,classification_task,2021.2.3,Win32,59.96641881,5c05922f4e1b7b00016af702,626b377229c10585ec392f8a,626b3b1bcd2dc8cbf2e4efbe,,,,,Do you use software to change the colour temperature of your screen (e.g. f.lux)?,,,0.7,0,Yes,33.6004,,,,,,,,,,,,,,,,,,,,,,,,,,,,,,,,,,,,,,,,,,,,,,,,,,,,,,,,,
,,001,2022-04-28_20h11.35.601,classification_task,2021.2.3,Win32,59.96641881,5c05922f4e1b7b00016af702,626b377229c10585ec392f8a,626b3b1bcd2dc8cbf2e4efbe,,,,,,,,,,,,space,51.9562,space,10.9938,0,0,0,0,1,,,,,,,,,,,,,,,,,,,,,,,,,,,,,,,,,,,,,,,,,,,,,,,,
,,001,2022-04-28_20h11.35.601,classification_task,2021.2.3,Win32,59.96641881,5c05922f4e1b7b00016af702,626b377229c10585ec392f8a,626b3b1bcd2dc8cbf2e4efbe,,,,,,,,,,,,,,space,41.8796,1,0,1,0,1,,,,,,,,,,,,,,,,,,,,,,,,,,,,,,,,,,,,,,,,,,,,,,,,
,,001,2022-04-28_20h11.35.601,classification_task,2021.2.3,Win32,59.96641881,5c05922f4e1b7b00016af702,626b377229c10585ec392f8a,626b3b1bcd2dc8cbf2e4efbe,,,,,,,,,,,,,,space,32.4142,2,0,2,0,1,,,,,,,,,,,,,,,,,,,,,,,,,,,,,,,,,,,,,,,,,,,,,,,,
,,001,2022-04-28_20h11.35.601,classification_task,2021.2.3,Win32,59.96641881,5c05922f4e1b7b00016af702,626b377229c10585ec392f8a,626b3b1bcd2dc8cbf2e4efbe,,,,,,,,,,,,,,space,10.7039,3,0,3,0,1,,,,,,,,,,,,,,,,,,,,,,,,,,,,,,,,,,,,,,,,,,,,,,,,
,,001,2022-04-28_20h11.35.601,classification_task,2021.2.3,Win32,59.96641881,5c05922f4e1b7b00016af702,626b377229c10585ec392f8a,626b3b1bcd2dc8cbf2e4efbe,,,,,,,,,,,,,,space,22.9234,4,0,4,0,1,,,,,,,,,,,,,,,,,,,,,,,,,,,,,,,,,,,,,,,,,,,,,,,,
,,001,2022-04-28_20h11.35.601,classification_task,2021.2.3,Win32,59.96641881,5c05922f4e1b7b00016af702,626b377229c10585ec392f8a,626b3b1bcd2dc8cbf2e4efbe,,,,,,,,,,,,,,,,,,,,,space,27.1165,l,0,6.7287,"[""0.226"",""0.430"",""0.728"",""0.108""]","[1,1,1,0]",0,0,0,0,1,0,0,,,0,FALSE,,,,,,,,,,,,,,,,,,,,,,,,,,,,,,
,,001,2022-04-28_20h11.35.601,classification_task,2021.2.3,Win32,59.96641881,5c05922f4e1b7b00016af702,626b377229c10585ec392f8a,626b3b1bcd2dc8cbf2e4efbe,,,,,,,,,,,,,,,,,,,,,,,a,1,6.4767,"[""0.184"",""0.480"",""0.354"",""0.973""]","[1,1,0,1]",0,1,1,1,1,0,1,,,0,FALSE,,,,,,,,,,,,,,,,,,,,,,,,,,,,,,
,,001,2022-04-28_20h11.35.601,classification_task,2021.2.3,Win32,59.96641881,5c05922f4e1b7b00016af702,626b377229c10585ec392f8a,626b3b1bcd2dc8cbf2e4efbe,,,,,,,,,,,,,,,,,,,,,,,a,0,7.2517,"[""0.268"",""0.302"",""0.539"",""0.817""]","[0,1,1,1]",0,2,2,2,1,1,0,,,0,FALSE,,,,,,,,,,,,,,,,,,,,,,,,,,,,,,
,,001,2022-04-28_20h11.35.601,classification_task,2021.2.3,Win32,59.96641881,5c05922f4e1b7b00016af702,626b377229c10585ec392f8a,626b3b1bcd2dc8cbf2e4efbe,,,,,,,,,,,,,,,,,,,,,,,l,1,6.4946,"[""0.057"",""0.635"",""0.539"",""0.817""]","[1,0,1,1]",0,3,3,3,1,1,0,,,0,FALSE,,,,,,,,,,,,,,,,,,,,,,,,,,,,,,
,,001,2022-04-28_20h11.35.601,classification_task,2021.2.3,Win32,59.96641881,5c05922f4e1b7b00016af702,626b377229c10585ec392f8a,626b3b1bcd2dc8cbf2e4efbe,,,,,,,,,,,,,,,,,,,,,,,a,1,2.9812,"[""0.226"",""0.776"",""0.728"",""0.904""]","[1,0,1,1]",0,4,4,4,1,0,0,,,0,FALSE,,,,,,,,,,,,,,,,,,,,,,,,,,,,,,
,,001,2022-04-28_20h11.35.601,classification_task,2021.2.3,Win32,59.96641881,5c05922f4e1b7b00016af702,626b377229c10585ec392f8a,626b3b1bcd2dc8cbf2e4efbe,,,,,,,,,,,,,,,,,,,,,,,l,1,3.6948,"[""0.145"",""0.391"",""0.596"",""0.776""]","[1,1,1,0]",0,5,5,5,1,1,1,,,0,FALSE,,,,,,,,,,,,,,,,,,,,,,,,,,,,,,
,,001,2022-04-28_20h11.35.601,classification_task,2021.2.3,Win32,59.96641881,5c05922f4e1b7b00016af702,626b377229c10585ec392f8a,626b3b1bcd2dc8cbf2e4efbe,,,,,,,,,,,,,,,,,,,,,,,a,1,3.8356,"[""0.184"",""0.268"",""0.861"",""0.973""]","[1,0,1,1]",0,6,6,6,1,0,1,,,0,FALSE,,,,,,,,,,,,,,,,,,,,,,,,,,,,,,
,,001,2022-04-28_20h11.35.601,classification_task,2021.2.3,Win32,59.96641881,5c05922f4e1b7b00016af702,626b377229c10585ec392f8a,626b3b1bcd2dc8cbf2e4efbe,,,,,,,,,,,,,,,,,,,,,,,a,1,4.9731,"[""0.226"",""0.430"",""0.777"",""0.904""]","[1,1,0,1]",0,7,7,7,1,0,0,,,0,FALSE,,,,,,,,,,,,,,,,,,,,,,,,,,,,,,
,,001,2022-04-28_20h11.35.601,classification_task,2021.2.3,Win32,59.96641881,5c05922f4e1b7b00016af702,626b377229c10585ec392f8a,626b3b1bcd2dc8cbf2e4efbe,,,,,,,,,,,,,,,,,,,,,,,,0,,"[""0.770"",""0.480"",""0.861"",""0.973""]","[0,1,1,1]",0,8,8,8,1,0,1,,,0,FALSE,,,,,,,,,,,,,,,,,,,,,,,,,,,,,,
,,001,2022-04-28_20h11.35.601,classification_task,2021.2.3,Win32,59.96641881,5c05922f4e1b7b00016af702,626b377229c10585ec392f8a,626b3b1bcd2dc8cbf2e4efbe,,,,,,,,,,,,,,,,,,,,,,,l,1,4.0881,"[""0.057"",""0.302"",""0.539"",""0.268""]","[1,1,1,0]",0,9,9,9,1,1,0,,,0,FALSE,,,,,,,,,,,,,,,,,,,,,,,,,,,,,,
,,001,2022-04-28_20h11.35.601,classification_task,2021.2.3,Win32,59.96641881,5c05922f4e1b7b00016af702,626b377229c10585ec392f8a,626b3b1bcd2dc8cbf2e4efbe,,,,,,,,,,,,,,,,,,,,,,,a,0,5.9729,"[""0.354"",""0.391"",""0.596"",""0.680""]","[0,1,1,1]",0,10,10,10,1,1,1,,,0,FALSE,,,,,,,,,,,,,,,,,,,,,,,,,,,,,,
,,001,2022-04-28_20h11.35.601,classification_task,2021.2.3,Win32,59.96641881,5c05922f4e1b7b00016af702,626b377229c10585ec392f8a,626b3b1bcd2dc8cbf2e4efbe,,,,,,,,,,,,,,,,,,,,,,,,0,,"[""0.776"",""0.430"",""0.728"",""0.904""]","[0,1,1,1]",0,11,11,11,1,0,0,,,0,FALSE,,,,,,,,,,,,,,,,,,,,,,,,,,,,,,
,,001,2022-04-28_20h11.35.601,classification_task,2021.2.3,Win32,59.96641881,5c05922f4e1b7b00016af702,626b377229c10585ec392f8a,626b3b1bcd2dc8cbf2e4efbe,,,,,,,,,,,,,,,,,,,,,,,a,1,4.967,"[""0.184"",""0.480"",""0.861"",""0.352""]","[1,1,1,0]",0,12,12,12,1,0,1,,,0,FALSE,,,,,,,,,,,,,,,,,,,,,,,,,,,,,,
,,001,2022-04-28_20h11.35.601,classification_task,2021.2.3,Win32,59.96641881,5c05922f4e1b7b00016af702,626b377229c10585ec392f8a,626b3b1bcd2dc8cbf2e4efbe,,,,,,,,,,,,,,,,,,,,,,,l,1,2.2054,"[""0.145"",""0.391"",""0.268"",""0.680""]","[1,1,0,1]",0,13,13,13,1,1,1,,,0,FALSE,,,,,,,,,,,,,,,,,,,,,,,,,,,,,,
,,001,2022-04-28_20h11.35.601,classification_task,2021.2.3,Win32,59.96641881,5c05922f4e1b7b00016af702,626b377229c10585ec392f8a,626b3b1bcd2dc8cbf2e4efbe,,,,,,,,,,,,,,,,,,,,,,,l,1,2.2446,"[""0.057"",""0.302"",""0.346"",""0.817""]","[1,1,0,1]",0,14,14,14,1,1,0,,,0,FALSE,,,,,,,,,,,,,,,,,,,,,,,,,,,,,,
,,001,2022-04-28_20h11.35.601,classification_task,2021.2.3,Win32,59.96641881,5c05922f4e1b7b00016af702,626b377229c10585ec392f8a,626b3b1bcd2dc8cbf2e4efbe,,,,,,,,,,,,,,,,,,,,,,,l,1,2.3498,"[""0.145"",""0.348"",""0.596"",""0.680""]","[1,0,1,1]",0,15,15,15,1,1,1,,,0,FALSE,,,,,,,,,,,,,,,,,,,,,,,,,,,,,,
,,001,2022-04-28_20h11.35.601,classification_task,2021.2.3,Win32,59.96641881,5c05922f4e1b7b00016af702,626b377229c10585ec392f8a,626b3b1bcd2dc8cbf2e4efbe,,,,,,,,,,,,,,,,,,,,,,,l,1,6.6007,"[""0.104"",""0.391"",""0.596"",""0.680""]","[0,1,1,1]",0,16,16,16,1,1,1,,,0,FALSE,,,,,,,,,,,,,,,,,,,,,,,,,,,,,,
,,001,2022-04-28_20h11.35.601,classification_task,2021.2.3,Win32,59.96641881,5c05922f4e1b7b00016af702,626b377229c10585ec392f8a,626b3b1bcd2dc8cbf2e4efbe,,,,,,,,,,,,,,,,,,,,,,,l,1,4.0865,"[""0.057"",""0.302"",""0.539"",""0.777""]","[1,1,1,0]",0,17,17,17,1,1,0,,,0,FALSE,,,,,,,,,,,,,,,,,,,,,,,,,,,,,,
,,001,2022-04-28_20h11.35.601,classification_task,2021.2.3,Win32,59.96641881,5c05922f4e1b7b00016af702,626b377229c10585ec392f8a,626b3b1bcd2dc8cbf2e4efbe,,,,,,,,,,,,,,,,,,,,,,,a,1,2.602,"[""0.226"",""0.777"",""0.728"",""0.904""]","[1,0,1,1]",0,18,18,18,1,0,0,,,0,FALSE,,,,,,,,,,,,,,,,,,,,,,,,,,,,,,
,,001,2022-04-28_20h11.35.601,classification_task,2021.2.3,Win32,59.96641881,5c05922f4e1b7b00016af702,626b377229c10585ec392f8a,626b3b1bcd2dc8cbf2e4efbe,,,,,,,,,,,,,,,,,,,,,,,,0,,"[""0.352"",""0.430"",""0.728"",""0.904""]","[0,1,1,1]",0,19,19,19,1,0,0,,,0,FALSE,,,,,,,,,,,,,,,,,,,,,,,,,,,,,,
,,001,2022-04-28_20h11.35.601,classification_task,2021.2.3,Win32,59.96641881,5c05922f4e1b7b00016af702,626b377229c10585ec392f8a,626b3b1bcd2dc8cbf2e4efbe,,,,,,,,,,,,,,,,,,,,,,,a,1,3.4333,"[""0.184"",""0.480"",""0.777"",""0.973""]","[1,1,0,1]",0,20,20,20,1,0,1,,,0,FALSE,,,,,,,,,,,,,,,,,,,,,,,,,,,,,,
,,001,2022-04-28_20h11.35.601,classification_task,2021.2.3,Win32,59.96641881,5c05922f4e1b7b00016af702,626b377229c10585ec392f8a,626b3b1bcd2dc8cbf2e4efbe,,,,,,,,,,,,,,,,,,,,,,,a,1,4.2543,"[""0.226"",""0.430"",""0.728"",""0.108""]","[1,1,1,0]",0,21,21,21,1,0,0,,,0,FALSE,,,,,,,,,,,,,,,,,,,,,,,,,,,,,,
,,001,2022-04-28_20h11.35.601,classification_task,2021.2.3,Win32,59.96641881,5c05922f4e1b7b00016af702,626b377229c10585ec392f8a,626b3b1bcd2dc8cbf2e4efbe,,,,,,,,,,,,,,,,,,,,,,,a,1,8.0797,"[""0.268"",""0.480"",""0.861"",""0.973""]","[0,1,1,1]",0,22,22,22,1,0,1,,,0,FALSE,,,,,,,,,,,,,,,,,,,,,,,,,,,,,,
,,001,2022-04-28_20h11.35.601,classification_task,2021.2.3,Win32,59.96641881,5c05922f4e1b7b00016af702,626b377229c10585ec392f8a,626b3b1bcd2dc8cbf2e4efbe,,,,,,,,,,,,,,,,,,,,,,,a,1,3.2084,"[""0.184"",""0.776"",""0.861"",""0.973""]","[1,0,1,1]",0,23,23,23,1,0,1,,,0,FALSE,,,,,,,,,,,,,,,,,,,,,,,,,,,,,,
,,001,2022-04-28_20h11.35.601,classification_task,2021.2.3,Win32,59.96641881,5c05922f4e1b7b00016af702,626b377229c10585ec392f8a,626b3b1bcd2dc8cbf2e4efbe,,,,,,,,,,,,,,,,,,,,,,,l,1,2.232,"[""0.145"",""0.348"",""0.596"",""0.680""]","[1,0,1,1]",0,24,24,24,1,1,1,,,0,FALSE,,,,,,,,,,,,,,,,,,,,,,,,,,,,,,
,,001,2022-04-28_20h11.35.601,classification_task,2021.2.3,Win32,59.96641881,5c05922f4e1b7b00016af702,626b377229c10585ec392f8a,626b3b1bcd2dc8cbf2e4efbe,,,,,,,,,,,,,,,,,,,,,,,a,1,3.8089,"[""0.184"",""0.480"",""0.861"",""0.111""]","[1,1,1,0]",0,25,25,25,1,0,1,,,0,FALSE,,,,,,,,,,,,,,,,,,,,,,,,,,,,,,
,,001,2022-04-28_20h11.35.601,classification_task,2021.2.3,Win32,59.96641881,5c05922f4e1b7b00016af702,626b377229c10585ec392f8a,626b3b1bcd2dc8cbf2e4efbe,,,,,,,,,,,,,,,,,,,,,,,,0,,"[""0.352"",""0.302"",""0.539"",""0.817""]","[0,1,1,1]",0,26,26,26,1,1,0,,,0,FALSE,,,,,,,,,,,,,,,,,,,,,,,,,,,,,,
,,001,2022-04-28_20h11.35.601,classification_task,2021.2.3,Win32,59.96641881,5c05922f4e1b7b00016af702,626b377229c10585ec392f8a,626b3b1bcd2dc8cbf2e4efbe,,,,,,,,,,,,,,,,,,,,,,,a,1,2.3724,"[""0.226"",""0.430"",""0.764"",""0.904""]","[1,1,0,1]",0,27,27,27,1,0,0,,,0,FALSE,,,,,,,,,,,,,,,,,,,,,,,,,,,,,,
,,001,2022-04-28_20h11.35.601,classification_task,2021.2.3,Win32,59.96641881,5c05922f4e1b7b00016af702,626b377229c10585ec392f8a,626b3b1bcd2dc8cbf2e4efbe,,,,,,,,,,,,,,,,,,,,,,,l,1,4.1224,"[""0.145"",""0.391"",""0.596"",""0.111""]","[1,1,1,0]",0,28,28,28,1,1,1,,,0,FALSE,,,,,,,,,,,,,,,,,,,,,,,,,,,,,,
,,001,2022-04-28_20h11.35.601,classification_task,2021.2.3,Win32,59.96641881,5c05922f4e1b7b00016af702,626b377229c10585ec392f8a,626b3b1bcd2dc8cbf2e4efbe,,,,,,,,,,,,,,,,,,,,,,,l,1,3.3347,"[""0.145"",""0.391"",""0.347"",""0.680""]","[1,1,0,1]",0,29,29,29,1,1,1,,,0,FALSE,,,,,,,,,,,,,,,,,,,,,,,,,,,,,,
,,001,2022-04-28_20h11.35.601,classification_task,2021.2.3,Win32,59.96641881,5c05922f4e1b7b00016af702,626b377229c10585ec392f8a,626b3b1bcd2dc8cbf2e4efbe,,,,,,,,,,,,,,,,,,,,,,,l,1,3.2989,"[""0.057"",""0.764"",""0.539"",""0.817""]","[1,0,1,1]",0,30,30,30,1,1,0,,,0,FALSE,,,,,,,,,,,,,,,,,,,,,,,,,,,,,,
,,001,2022-04-28_20h11.35.601,classification_task,2021.2.3,Win32,59.96641881,5c05922f4e1b7b00016af702,626b377229c10585ec392f8a,626b3b1bcd2dc8cbf2e4efbe,,,,,,,,,,,,,,,,,,,,,,,l,1,2.0303,"[""0.057"",""0.302"",""0.350"",""0.817""]","[1,1,0,1]",0,31,31,31,1,1,0,,,0,FALSE,,,,,,,,,,,,,,,,,,,,,,,,,,,,,,
,,001,2022-04-28_20h11.35.601,classification_task,2021.2.3,Win32,59.96641881,5c05922f4e1b7b00016af702,626b377229c10585ec392f8a,626b3b1bcd2dc8cbf2e4efbe,,,,,,,,,,,,,,,,,,,,,,,a,0,9.9352,"[""0.145"",""0.391"",""0.108"",""0.680""]","[1,1,0,1]",0,32,32,32,1,1,1,,,0,FALSE,,,,,,,,,,,,,,,,,,,,,,,,,,,,,,
,,001,2022-04-28_20h11.35.601,classification_task,2021.2.3,Win32,59.96641881,5c05922f4e1b7b00016af702,626b377229c10585ec392f8a,626b3b1bcd2dc8cbf2e4efbe,,,,,,,,,,,,,,,,,,,,,,,l,1,3.335,"[""0.145"",""0.391"",""0.596"",""0.104""]","[1,1,1,0]",0,33,33,33,1,1,1,,,0,FALSE,,,,,,,,,,,,,,,,,,,,,,,,,,,,,,
,,001,2022-04-28_20h11.35.601,classification_task,2021.2.3,Win32,59.96641881,5c05922f4e1b7b00016af702,626b377229c10585ec392f8a,626b3b1bcd2dc8cbf2e4efbe,,,,,,,,,,,,,,,,,,,,,,,l,1,5.1853,"[""0.145"",""0.350"",""0.596"",""0.680""]","[1,0,1,1]",0,34,34,34,1,1,1,,,0,FALSE,,,,,,,,,,,,,,,,,,,,,,,,,,,,,,
,,001,2022-04-28_20h11.35.601,classification_task,2021.2.3,Win32,59.96641881,5c05922f4e1b7b00016af702,626b377229c10585ec392f8a,626b3b1bcd2dc8cbf2e4efbe,,,,,,,,,,,,,,,,,,,,,,,a,0,0.9973,"[""0.111"",""0.391"",""0.596"",""0.680""]","[0,1,1,1]",0,35,35,35,1,1,1,,,0,FALSE,,,,,,,,,,,,,,,,,,,,,,,,,,,,,,
,,001,2022-04-28_20h11.35.601,classification_task,2021.2.3,Win32,59.96641881,5c05922f4e1b7b00016af702,626b377229c10585ec392f8a,626b3b1bcd2dc8cbf2e4efbe,,,,,,,,,,,,,,,,,,,,,,,l,0,2.0665,"[""0.226"",""0.430"",""0.728"",""0.635""]","[1,1,1,0]",0,36,36,36,1,0,0,,,0,FALSE,,,,,,,,,,,,,,,,,,,,,,,,,,,,,,
,,001,2022-04-28_20h11.35.601,classification_task,2021.2.3,Win32,59.96641881,5c05922f4e1b7b00016af702,626b377229c10585ec392f8a,626b3b1bcd2dc8cbf2e4efbe,,,,,,,,,,,,,,,,,,,,,,,l,1,1.6808,"[""0.108"",""0.302"",""0.539"",""0.817""]","[0,1,1,1]",0,37,37,37,1,1,0,,,0,FALSE,,,,,,,,,,,,,,,,,,,,,,,,,,,,,,
,,001,2022-04-28_20h11.35.601,classification_task,2021.2.3,Win32,59.96641881,5c05922f4e1b7b00016af702,626b377229c10585ec392f8a,626b3b1bcd2dc8cbf2e4efbe,,,,,,,,,,,,,,,,,,,,,,,a,0,1.0278,"[""0.057"",""0.302"",""0.539"",""0.354""]","[1,1,1,0]",0,38,38,38,1,1,0,,,0,FALSE,,,,,,,,,,,,,,,,,,,,,,,,,,,,,,
,,001,2022-04-28_20h11.35.601,classification_task,2021.2.3,Win32,59.96641881,5c05922f4e1b7b00016af702,626b377229c10585ec392f8a,626b3b1bcd2dc8cbf2e4efbe,,,,,,,,,,,,,,,,,,,,,,,a,0,0.7599,"[""0.057"",""0.302"",""0.346"",""0.817""]","[1,1,0,1]",0,39,39,39,1,1,0,,,0,FALSE,,,,,,,,,,,,,,,,,,,,,,,,,,,,,,
,,001,2022-04-28_20h11.35.601,classification_task,2021.2.3,Win32,59.96641881,5c05922f4e1b7b00016af702,626b377229c10585ec392f8a,626b3b1bcd2dc8cbf2e4efbe,,,,,,,,,,,,,,,,,,,,,,,a,1,1.8542,"[""0.354"",""0.430"",""0.728"",""0.904""]","[0,1,1,1]",0,40,40,40,1,0,0,,,0,FALSE,,,,,,,,,,,,,,,,,,,,,,,,,,,,,,
,,001,2022-04-28_20h11.35.601,classification_task,2021.2.3,Win32,59.96641881,5c05922f4e1b7b00016af702,626b377229c10585ec392f8a,626b3b1bcd2dc8cbf2e4efbe,,,,,,,,,,,,,,,,,,,,,,,l,0,1.801,"[""0.184"",""0.776"",""0.861"",""0.973""]","[1,0,1,1]",0,41,41,41,1,0,1,,,0,FALSE,,,,,,,,,,,,,,,,,,,,,,,,,,,,,,
,,001,2022-04-28_20h11.35.601,classification_task,2021.2.3,Win32,59.96641881,5c05922f4e1b7b00016af702,626b377229c10585ec392f8a,626b3b1bcd2dc8cbf2e4efbe,,,,,,,,,,,,,,,,,,,,,,,a,1,1.1602,"[""0.184"",""0.480"",""0.268"",""0.973""]","[1,1,0,1]",0,42,42,42,1,0,1,,,0,FALSE,,,,,,,,,,,,,,,,,,,,,,,,,,,,,,
,,001,2022-04-28_20h11.35.601,classification_task,2021.2.3,Win32,59.96641881,5c05922f4e1b7b00016af702,626b377229c10585ec392f8a,626b3b1bcd2dc8cbf2e4efbe,,,,,,,,,,,,,,,,,,,,,,,a,1,1.1401,"[""0.226"",""0.430"",""0.348"",""0.904""]","[1,1,0,1]",0,43,43,43,1,0,0,,,0,FALSE,,,,,,,,,,,,,,,,,,,,,,,,,,,,,,
,,001,2022-04-28_20h11.35.601,classification_task,2021.2.3,Win32,59.96641881,5c05922f4e1b7b00016af702,626b377229c10585ec392f8a,626b3b1bcd2dc8cbf2e4efbe,,,,,,,,,,,,,,,,,,,,,,,a,1,1.2195,"[""0.268"",""0.480"",""0.861"",""0.973""]","[0,1,1,1]",0,44,44,44,1,0,1,,,0,FALSE,,,,,,,,,,,,,,,,,,,,,,,,,,,,,,
,,001,2022-04-28_20h11.35.601,classification_task,2021.2.3,Win32,59.96641881,5c05922f4e1b7b00016af702,626b377229c10585ec392f8a,626b3b1bcd2dc8cbf2e4efbe,,,,,,,,,,,,,,,,,,,,,,,l,1,1.5356,"[""0.057"",""0.268"",""0.539"",""0.817""]","[1,0,1,1]",0,45,45,45,1,1,0,,,0,FALSE,,,,,,,,,,,,,,,,,,,,,,,,,,,,,,
,,001,2022-04-28_20h11.35.601,classification_task,2021.2.3,Win32,59.96641881,5c05922f4e1b7b00016af702,626b377229c10585ec392f8a,626b3b1bcd2dc8cbf2e4efbe,,,,,,,,,,,,,,,,,,,,,,,a,1,1.0275,"[""0.184"",""0.480"",""0.861"",""0.352""]","[1,1,1,0]",0,46,46,46,1,0,1,,,0,FALSE,,,,,,,,,,,,,,,,,,,,,,,,,,,,,,
,,001,2022-04-28_20h11.35.601,classification_task,2021.2.3,Win32,59.96641881,5c05922f4e1b7b00016af702,626b377229c10585ec392f8a,626b3b1bcd2dc8cbf2e4efbe,,,,,,,,,,,,,,,,,,,,,,,a,1,0.948,"[""0.226"",""0.346"",""0.728"",""0.904""]","[1,0,1,1]",0,47,47,47,1,0,0,,,0,FALSE,,,,,,,,,,,,,,,,,,,,,,,,,,,,,,
,,001,2022-04-28_20h11.35.601,classification_task,2021.2.3,Win32,59.96641881,5c05922f4e1b7b00016af702,626b377229c10585ec392f8a,626b3b1bcd2dc8cbf2e4efbe,,,,,,,,,,,,,,,,,,,,,,,l,0,0.7642,"[""0.184"",""0.480"",""0.861"",""0.776""]","[1,1,1,0]",0,48,48,48,1,0,1,,,0,FALSE,,,,,,,,,,,,,,,,,,,,,,,,,,,,,,
,,001,2022-04-28_20h11.35.601,classification_task,2021.2.3,Win32,59.96641881,5c05922f4e1b7b00016af702,626b377229c10585ec392f8a,626b3b1bcd2dc8cbf2e4efbe,,,,,,,,,,,,,,,,,,,,,,,a,0,0.4119,"[""0.145"",""0.391"",""0.350"",""0.680""]","[1,1,0,1]",0,49,49,49,1,1,1,,,0,FALSE,,,,,,,,,,,,,,,,,,,,,,,,,,,,,,
,,001,2022-04-28_20h11.35.601,classification_task,2021.2.3,Win32,59.96641881,5c05922f4e1b7b00016af702,626b377229c10585ec392f8a,626b3b1bcd2dc8cbf2e4efbe,,,,,,,,,,,,,,,,,,,,,,,a,1,0.6797,"[""0.226"",""0.430"",""0.728"",""0.770""]","[1,1,1,0]",0,50,50,50,1,0,0,,,0,FALSE,,,,,,,,,,,,,,,,,,,,,,,,,,,,,,
,,001,2022-04-28_20h11.35.601,classification_task,2021.2.3,Win32,59.96641881,5c05922f4e1b7b00016af702,626b377229c10585ec392f8a,626b3b1bcd2dc8cbf2e4efbe,,,,,,,,,,,,,,,,,,,,,,,l,1,1.3154,"[""0.057"",""0.354"",""0.539"",""0.817""]","[1,0,1,1]",0,51,51,51,1,1,0,,,0,FALSE,,,,,,,,,,,,,,,,,,,,,,,,,,,,,,
,,001,2022-04-28_20h11.35.601,classification_task,2021.2.3,Win32,59.96641881,5c05922f4e1b7b00016af702,626b377229c10585ec392f8a,626b3b1bcd2dc8cbf2e4efbe,,,,,,,,,,,,,,,,,,,,,,,a,0,1.118,"[""0.145"",""0.391"",""0.596"",""0.346""]","[1,1,1,0]",0,52,52,52,1,1,1,,,0,FALSE,,,,,,,,,,,,,,,,,,,,,,,,,,,,,,
,,001,2022-04-28_20h11.35.601,classification_task,2021.2.3,Win32,59.96641881,5c05922f4e1b7b00016af702,626b377229c10585ec392f8a,626b3b1bcd2dc8cbf2e4efbe,,,,,,,,,,,,,,,,,,,,,,,a,1,1.0119,"[""0.635"",""0.480"",""0.861"",""0.973""]","[0,1,1,1]",0,53,53,53,1,0,1,,,0,FALSE,,,,,,,,,,,,,,,,,,,,,,,,,,,,,,
,,001,2022-04-28_20h11.35.601,classification_task,2021.2.3,Win32,59.96641881,5c05922f4e1b7b00016af702,626b377229c10585ec392f8a,626b3b1bcd2dc8cbf2e4efbe,,,,,,,,,,,,,,,,,,,,,,,a,1,1.064,"[""0.184"",""0.480"",""0.111"",""0.973""]","[1,1,0,1]",0,54,54,54,1,0,1,,,0,FALSE,,,,,,,,,,,,,,,,,,,,,,,,,,,,,,
,,001,2022-04-28_20h11.35.601,classification_task,2021.2.3,Win32,59.96641881,5c05922f4e1b7b00016af702,626b377229c10585ec392f8a,626b3b1bcd2dc8cbf2e4efbe,,,,,,,,,,,,,,,,,,,,,,,a,1,1.3016,"[""0.226"",""0.430"",""0.777"",""0.904""]","[1,1,0,1]",0,55,55,55,1,0,0,,,0,FALSE,,,,,,,,,,,,,,,,,,,,,,,,,,,,,,
,,001,2022-04-28_20h11.35.601,classification_task,2021.2.3,Win32,59.96641881,5c05922f4e1b7b00016af702,626b377229c10585ec392f8a,626b3b1bcd2dc8cbf2e4efbe,,,,,,,,,,,,,,,,,,,,,,,a,1,0.6583,"[""0.226"",""0.347"",""0.728"",""0.904""]","[1,0,1,1]",0,56,56,56,1,0,0,,,0,FALSE,,,,,,,,,,,,,,,,,,,,,,,,,,,,,,
,,001,2022-04-28_20h11.35.601,classification_task,2021.2.3,Win32,59.96641881,5c05922f4e1b7b00016af702,626b377229c10585ec392f8a,626b3b1bcd2dc8cbf2e4efbe,,,,,,,,,,,,,,,,,,,,,,,l,0,0.6972,"[""0.104"",""0.430"",""0.728"",""0.904""]","[0,1,1,1]",0,57,57,57,1,0,0,,,0,FALSE,,,,,,,,,,,,,,,,,,,,,,,,,,,,,,
,,001,2022-04-28_20h11.35.601,classification_task,2021.2.3,Win32,59.96641881,5c05922f4e1b7b00016af702,626b377229c10585ec392f8a,626b3b1bcd2dc8cbf2e4efbe,,,,,,,,,,,,,,,,,,,,,,,a,0,0.7965,"[""0.057"",""0.302"",""0.111"",""0.817""]","[1,1,0,1]",0,58,58,58,1,1,0,,,0,FALSE,,,,,,,,,,,,,,,,,,,,,,,,,,,,,,
,,001,2022-04-28_20h11.35.601,classification_task,2021.2.3,Win32,59.96641881,5c05922f4e1b7b00016af702,626b377229c10585ec392f8a,626b3b1bcd2dc8cbf2e4efbe,,,,,,,,,,,,,,,,,,,,,,,a,0,0.7846,"[""0.346"",""0.391"",""0.596"",""0.680""]","[0,1,1,1]",0,59,59,59,1,1,1,,,0,FALSE,,,,,,,,,,,,,,,,,,,,,,,,,,,,,,
,,001,2022-04-28_20h11.35.601,classification_task,2021.2.3,Win32,59.96641881,5c05922f4e1b7b00016af702,626b377229c10585ec392f8a,626b3b1bcd2dc8cbf2e4efbe,,,,,,,,,,,,,,,,,,,,,,,l,1,0.312,"[""0.145"",""0.354"",""0.596"",""0.680""]","[1,0,1,1]",0,60,60,60,1,1,1,,,0,FALSE,,,,,,,,,,,,,,,,,,,,,,,,,,,,,,
,,001,2022-04-28_20h11.35.601,classification_task,2021.2.3,Win32,59.96641881,5c05922f4e1b7b00016af702,626b377229c10585ec392f8a,626b3b1bcd2dc8cbf2e4efbe,,,,,,,,,,,,,,,,,,,,,,,l,1,0.6293,"[""0.057"",""0.302"",""0.539"",""0.770""]","[1,1,1,0]",0,61,61,61,1,1,0,,,0,FALSE,,,,,,,,,,,,,,,,,,,,,,,,,,,,,,
,,001,2022-04-28_20h11.35.601,classification_task,2021.2.3,Win32,59.96641881,5c05922f4e1b7b00016af702,626b377229c10585ec392f8a,626b3b1bcd2dc8cbf2e4efbe,,,,,,,,,,,,,,,,,,,,,,,l,0,0.7464,"[""0.184"",""0.352"",""0.861"",""0.973""]","[1,0,1,1]",0,62,62,62,1,0,1,,,0,FALSE,,,,,,,,,,,,,,,,,,,,,,,,,,,,,,
,,001,2022-04-28_20h11.35.601,classification_task,2021.2.3,Win32,59.96641881,5c05922f4e1b7b00016af702,626b377229c10585ec392f8a,626b3b1bcd2dc8cbf2e4efbe,,,,,,,,,,,,,,,,,,,,,,,a,0,0.5116,"[""0.350"",""0.302"",""0.539"",""0.817""]","[0,1,1,1]",0,63,63,63,1,1,0,,,0,FALSE,,,,,,,,,,,,,,,,,,,,,,,,,,,,,,
,,001,2022-04-28_20h11.35.601,classification_task,2021.2.3,Win32,59.96641881,5c05922f4e1b7b00016af702,626b377229c10585ec392f8a,626b3b1bcd2dc8cbf2e4efbe,,,,,,,,,,,,,,,,,,,,,,,,,,,,,,,,,,,,,,,0, ,,0,10,536.5448,0,0,0,0,1,2,1,,,,,,,,,,,,,,,,,
,,001,2022-04-28_20h11.35.601,classification_task,2021.2.3,Win32,59.96641881,5c05922f4e1b7b00016af702,626b377229c10585ec392f8a,626b3b1bcd2dc8cbf2e4efbe,,,,,,,,,,,,,,,,,,,,,,,,,,,,,,,,,,,,,,,1,  ,,0,7.549052028,554.9625,0,0,0,0,1,2,1,,,,,,,,,,,,,,,,,
,,001,2022-04-28_20h11.35.601,classification_task,2021.2.3,Win32,59.96641881,5c05922f4e1b7b00016af702,626b377229c10585ec392f8a,626b3b1bcd2dc8cbf2e4efbe,,,,,,,,,,,,,,,,,,,,,,,,,,,,,,,,,,,,,,,2,  ,,0,5,545.9589,0,0,0,0,1,2,1,,,,,,,,,,,,,,,,,
,,001,2022-04-28_20h11.35.601,classification_task,2021.2.3,Win32,59.96641881,5c05922f4e1b7b00016af702,626b377229c10585ec392f8a,626b3b1bcd2dc8cbf2e4efbe,,,,,,,,,,,,,,,,,,,,,,,,,,,,,,,,,,,,,,,,,,,,,0,0,0,0,1,,1,,,,,,,,,,,,,,,,,
,,001,2022-04-28_20h11.35.601,classification_task,2021.2.3,Win32,59.96641881,5c05922f4e1b7b00016af702,626b377229c10585ec392f8a,626b3b1bcd2dc8cbf2e4efbe,,,,,,,,,,,,,,,,,,,,,space,14.7142,l,1,2.9806,"[""0.057"",""0.111"",""0.539"",""0.817""]","[1,0,1,1]",0,0,0,0,1,1,0,,,0,FALSE,,,,,,,,,,,,,,,,,,,,,,,,,,,,,,
,,001,2022-04-28_20h11.35.601,classification_task,2021.2.3,Win32,59.96641881,5c05922f4e1b7b00016af702,626b377229c10585ec392f8a,626b3b1bcd2dc8cbf2e4efbe,,,,,,,,,,,,,,,,,,,,,,,a,0,0.8856,"[""0.145"",""0.391"",""0.635"",""0.680""]","[1,1,0,1]",0,1,1,1,1,1,1,,,0,FALSE,,,,,,,,,,,,,,,,,,,,,,,,,,,,,,
,,001,2022-04-28_20h11.35.601,classification_task,2021.2.3,Win32,59.96641881,5c05922f4e1b7b00016af702,626b377229c10585ec392f8a,626b3b1bcd2dc8cbf2e4efbe,,,,,,,,,,,,,,,,,,,,,,,a,1,4.488,"[""0.226"",""0.430"",""0.728"",""0.346""]","[1,1,1,0]",0,2,2,2,1,0,0,,,0,FALSE,,,,,,,,,,,,,,,,,,,,,,,,,,,,,,
,,001,2022-04-28_20h11.35.601,classification_task,2021.2.3,Win32,59.96641881,5c05922f4e1b7b00016af702,626b377229c10585ec392f8a,626b3b1bcd2dc8cbf2e4efbe,,,,,,,,,,,,,,,,,,,,,,,l,1,3.3671,"[""0.350"",""0.302"",""0.539"",""0.817""]","[0,1,1,1]",0,3,3,3,1,1,0,,,0,FALSE,,,,,,,,,,,,,,,,,,,,,,,,,,,,,,
,,001,2022-04-28_20h11.35.601,classification_task,2021.2.3,Win32,59.96641881,5c05922f4e1b7b00016af702,626b377229c10585ec392f8a,626b3b1bcd2dc8cbf2e4efbe,,,,,,,,,,,,,,,,,,,,,,,a,1,4.4042,"[""0.184"",""0.480"",""0.861"",""0.350""]","[1,1,1,0]",0,4,4,4,1,0,1,,,0,FALSE,,,,,,,,,,,,,,,,,,,,,,,,,,,,,,
,,001,2022-04-28_20h11.35.601,classification_task,2021.2.3,Win32,59.96641881,5c05922f4e1b7b00016af702,626b377229c10585ec392f8a,626b3b1bcd2dc8cbf2e4efbe,,,,,,,,,,,,,,,,,,,,,,,a,1,0.7721,"[""0.226"",""0.430"",""0.635"",""0.904""]","[1,1,0,1]",0,5,5,5,1,0,0,,,0,FALSE,,,,,,,,,,,,,,,,,,,,,,,,,,,,,,
,,001,2022-04-28_20h11.35.601,classification_task,2021.2.3,Win32,59.96641881,5c05922f4e1b7b00016af702,626b377229c10585ec392f8a,626b3b1bcd2dc8cbf2e4efbe,,,,,,,,,,,,,,,,,,,,,,,a,1,1.2816,"[""0.184"",""0.480"",""0.347"",""0.973""]","[1,1,0,1]",0,6,6,6,1,0,1,,,0,FALSE,,,,,,,,,,,,,,,,,,,,,,,,,,,,,,
,,001,2022-04-28_20h11.35.601,classification_task,2021.2.3,Win32,59.96641881,5c05922f4e1b7b00016af702,626b377229c10585ec392f8a,626b3b1bcd2dc8cbf2e4efbe,,,,,,,,,,,,,,,,,,,,,,,l,0,1.2908,"[""0.184"",""0.093"",""0.861"",""0.973""]","[1,0,1,1]",0,7,7,7,1,0,1,,,0,FALSE,,,,,,,,,,,,,,,,,,,,,,,,,,,,,,
,,001,2022-04-28_20h11.35.601,classification_task,2021.2.3,Win32,59.96641881,5c05922f4e1b7b00016af702,626b377229c10585ec392f8a,626b3b1bcd2dc8cbf2e4efbe,,,,,,,,,,,,,,,,,,,,,,,l,1,1.1268,"[""0.057"",""0.302"",""0.539"",""0.635""]","[1,1,1,0]",0,8,8,8,1,1,0,,,0,FALSE,,,,,,,,,,,,,,,,,,,,,,,,,,,,,,
,,001,2022-04-28_20h11.35.601,classification_task,2021.2.3,Win32,59.96641881,5c05922f4e1b7b00016af702,626b377229c10585ec392f8a,626b3b1bcd2dc8cbf2e4efbe,,,,,,,,,,,,,,,,,,,,,,,a,1,0.7804,"[""0.352"",""0.430"",""0.728"",""0.904""]","[0,1,1,1]",0,9,9,9,1,0,0,,,0,FALSE,,,,,,,,,,,,,,,,,,,,,,,,,,,,,,
,,001,2022-04-28_20h11.35.601,classification_task,2021.2.3,Win32,59.96641881,5c05922f4e1b7b00016af702,626b377229c10585ec392f8a,626b3b1bcd2dc8cbf2e4efbe,,,,,,,,,,,,,,,,,,,,,,,a,0,1.6626,"[""0.145"",""0.391"",""0.596"",""0.635""]","[1,1,1,0]",0,10,10,10,1,1,1,,,0,FALSE,,,,,,,,,,,,,,,,,,,,,,,,,,,,,,
,,001,2022-04-28_20h11.35.601,classification_task,2021.2.3,Win32,59.96641881,5c05922f4e1b7b00016af702,626b377229c10585ec392f8a,626b3b1bcd2dc8cbf2e4efbe,,,,,,,,,,,,,,,,,,,,,,,a,0,0.6714,"[""0.057"",""0.302"",""0.635"",""0.817""]","[1,1,0,1]",0,11,11,11,1,1,0,,,0,FALSE,,,,,,,,,,,,,,,,,,,,,,,,,,,,,,
,,001,2022-04-28_20h11.35.601,classification_task,2021.2.3,Win32,59.96641881,5c05922f4e1b7b00016af702,626b377229c10585ec392f8a,626b3b1bcd2dc8cbf2e4efbe,,,,,,,,,,,,,,,,,,,,,,,a,1,0.6465,"[""0.226"",""0.770"",""0.728"",""0.904""]","[1,0,1,1]",0,12,12,12,1,0,0,,,0,FALSE,,,,,,,,,,,,,,,,,,,,,,,,,,,,,,
,,001,2022-04-28_20h11.35.601,classification_task,2021.2.3,Win32,59.96641881,5c05922f4e1b7b00016af702,626b377229c10585ec392f8a,626b3b1bcd2dc8cbf2e4efbe,,,,,,,,,,,,,,,,,,,,,,,l,1,1.2132,"[""0.145"",""0.268"",""0.596"",""0.680""]","[1,0,1,1]",0,13,13,13,1,1,1,,,0,FALSE,,,,,,,,,,,,,,,,,,,,,,,,,,,,,,
,,001,2022-04-28_20h11.35.601,classification_task,2021.2.3,Win32,59.96641881,5c05922f4e1b7b00016af702,626b377229c10585ec392f8a,626b3b1bcd2dc8cbf2e4efbe,,,,,,,,,,,,,,,,,,,,,,,l,0,0.9028,"[""0.777"",""0.480"",""0.861"",""0.973""]","[0,1,1,1]",0,14,14,14,1,0,1,,,0,FALSE,,,,,,,,,,,,,,,,,,,,,,,,,,,,,,
,,001,2022-04-28_20h11.35.601,classification_task,2021.2.3,Win32,59.96641881,5c05922f4e1b7b00016af702,626b377229c10585ec392f8a,626b3b1bcd2dc8cbf2e4efbe,,,,,,,,,,,,,,,,,,,,,,,l,1,0.8352,"[""0.346"",""0.391"",""0.596"",""0.680""]","[0,1,1,1]",0,15,15,15,1,1,1,,,0,FALSE,,,,,,,,,,,,,,,,,,,,,,,,,,,,,,
,,001,2022-04-28_20h11.35.601,classification_task,2021.2.3,Win32,59.96641881,5c05922f4e1b7b00016af702,626b377229c10585ec392f8a,626b3b1bcd2dc8cbf2e4efbe,,,,,,,,,,,,,,,,,,,,,,,a,1,1.031,"[""0.226"",""0.093"",""0.728"",""0.904""]","[1,0,1,1]",0,16,16,16,1,0,0,,,0,FALSE,,,,,,,,,,,,,,,,,,,,,,,,,,,,,,
,,001,2022-04-28_20h11.35.601,classification_task,2021.2.3,Win32,59.96641881,5c05922f4e1b7b00016af702,626b377229c10585ec392f8a,626b3b1bcd2dc8cbf2e4efbe,,,,,,,,,,,,,,,,,,,,,,,a,1,0.5797,"[""0.093"",""0.430"",""0.728"",""0.904""]","[0,1,1,1]",0,17,17,17,1,0,0,,,0,FALSE,,,,,,,,,,,,,,,,,,,,,,,,,,,,,,
,,001,2022-04-28_20h11.35.601,classification_task,2021.2.3,Win32,59.96641881,5c05922f4e1b7b00016af702,626b377229c10585ec392f8a,626b3b1bcd2dc8cbf2e4efbe,,,,,,,,,,,,,,,,,,,,,,,a,1,0.4604,"[""0.226"",""0.430"",""0.354"",""0.904""]","[1,1,0,1]",0,18,18,18,1,0,0,,,0,FALSE,,,,,,,,,,,,,,,,,,,,,,,,,,,,,,
,,001,2022-04-28_20h11.35.601,classification_task,2021.2.3,Win32,59.96641881,5c05922f4e1b7b00016af702,626b377229c10585ec392f8a,626b3b1bcd2dc8cbf2e4efbe,,,,,,,,,,,,,,,,,,,,,,,a,0,1.1641,"[""0.145"",""0.391"",""0.347"",""0.680""]","[1,1,0,1]",0,19,19,19,1,1,1,,,0,FALSE,,,,,,,,,,,,,,,,,,,,,,,,,,,,,,
,,001,2022-04-28_20h11.35.601,classification_task,2021.2.3,Win32,59.96641881,5c05922f4e1b7b00016af702,626b377229c10585ec392f8a,626b3b1bcd2dc8cbf2e4efbe,,,,,,,,,,,,,,,,,,,,,,,l,1,0.8229,"[""0.776"",""0.302"",""0.539"",""0.817""]","[0,1,1,1]",0,20,20,20,1,1,0,,,0,FALSE,,,,,,,,,,,,,,,,,,,,,,,,,,,,,,
,,001,2022-04-28_20h11.35.601,classification_task,2021.2.3,Win32,59.96641881,5c05922f4e1b7b00016af702,626b377229c10585ec392f8a,626b3b1bcd2dc8cbf2e4efbe,,,,,,,,,,,,,,,,,,,,,,,l,0,1.824,"[""0.350"",""0.480"",""0.861"",""0.973""]","[0,1,1,1]",0,21,21,21,1,0,1,,,0,FALSE,,,,,,,,,,,,,,,,,,,,,,,,,,,,,,
,,001,2022-04-28_20h11.35.601,classification_task,2021.2.3,Win32,59.96641881,5c05922f4e1b7b00016af702,626b377229c10585ec392f8a,626b3b1bcd2dc8cbf2e4efbe,,,,,,,,,,,,,,,,,,,,,,,l,1,0.8434,"[""0.057"",""0.302"",""0.539"",""0.347""]","[1,1,1,0]",0,22,22,22,1,1,0,,,0,FALSE,,,,,,,,,,,,,,,,,,,,,,,,,,,,,,
,,001,2022-04-28_20h11.35.601,classification_task,2021.2.3,Win32,59.96641881,5c05922f4e1b7b00016af702,626b377229c10585ec392f8a,626b3b1bcd2dc8cbf2e4efbe,,,,,,,,,,,,,,,,,,,,,,,a,1,1.4712,"[""0.184"",""0.104"",""0.861"",""0.973""]","[1,0,1,1]",0,23,23,23,1,0,1,,,0,FALSE,,,,,,,,,,,,,,,,,,,,,,,,,,,,,,
,,001,2022-04-28_20h11.35.601,classification_task,2021.2.3,Win32,59.96641881,5c05922f4e1b7b00016af702,626b377229c10585ec392f8a,626b3b1bcd2dc8cbf2e4efbe,,,,,,,,,,,,,,,,,,,,,,,a,0,1.13,"[""0.145"",""0.777"",""0.596"",""0.680""]","[1,0,1,1]",0,24,24,24,1,1,1,,,0,FALSE,,,,,,,,,,,,,,,,,,,,,,,,,,,,,,
,,001,2022-04-28_20h11.35.601,classification_task,2021.2.3,Win32,59.96641881,5c05922f4e1b7b00016af702,626b377229c10585ec392f8a,626b3b1bcd2dc8cbf2e4efbe,,,,,,,,,,,,,,,,,,,,,,,l,1,1.8613,"[""0.145"",""0.391"",""0.596"",""0.093""]","[1,1,1,0]",0,25,25,25,1,1,1,,,0,FALSE,,,,,,,,,,,,,,,,,,,,,,,,,,,,,,
,,001,2022-04-28_20h11.35.601,classification_task,2021.2.3,Win32,59.96641881,5c05922f4e1b7b00016af702,626b377229c10585ec392f8a,626b3b1bcd2dc8cbf2e4efbe,,,,,,,,,,,,,,,,,,,,,,,a,1,1.5613,"[""0.184"",""0.480"",""0.777"",""0.973""]","[1,1,0,1]",0,26,26,26,1,0,1,,,0,FALSE,,,,,,,,,,,,,,,,,,,,,,,,,,,,,,
,,001,2022-04-28_20h11.35.601,classification_task,2021.2.3,Win32,59.96641881,5c05922f4e1b7b00016af702,626b377229c10585ec392f8a,626b3b1bcd2dc8cbf2e4efbe,,,,,,,,,,,,,,,,,,,,,,,l,1,0.8273,"[""0.104"",""0.391"",""0.596"",""0.680""]","[0,1,1,1]",0,27,27,27,1,1,1,,,0,FALSE,,,,,,,,,,,,,,,,,,,,,,,,,,,,,,
,,001,2022-04-28_20h11.35.601,classification_task,2021.2.3,Win32,59.96641881,5c05922f4e1b7b00016af702,626b377229c10585ec392f8a,626b3b1bcd2dc8cbf2e4efbe,,,,,,,,,,,,,,,,,,,,,,,l,1,2.7788,"[""0.057"",""0.302"",""0.346"",""0.817""]","[1,1,0,1]",0,28,28,28,1,1,0,,,0,FALSE,,,,,,,,,,,,,,,,,,,,,,,,,,,,,,
,,001,2022-04-28_20h11.35.601,classification_task,2021.2.3,Win32,59.96641881,5c05922f4e1b7b00016af702,626b377229c10585ec392f8a,626b3b1bcd2dc8cbf2e4efbe,,,,,,,,,,,,,,,,,,,,,,,a,1,1.9136,"[""0.184"",""0.480"",""0.861"",""0.346""]","[1,1,1,0]",0,29,29,29,1,0,1,,,0,FALSE,,,,,,,,,,,,,,,,,,,,,,,,,,,,,,
,,001,2022-04-28_20h11.35.601,classification_task,2021.2.3,Win32,59.96641881,5c05922f4e1b7b00016af702,626b377229c10585ec392f8a,626b3b1bcd2dc8cbf2e4efbe,,,,,,,,,,,,,,,,,,,,,,,a,1,0.5899,"[""0.226"",""0.430"",""0.728"",""0.346""]","[1,1,1,0]",0,30,30,30,1,0,0,,,0,FALSE,,,,,,,,,,,,,,,,,,,,,,,,,,,,,,
,,001,2022-04-28_20h11.35.601,classification_task,2021.2.3,Win32,59.96641881,5c05922f4e1b7b00016af702,626b377229c10585ec392f8a,626b3b1bcd2dc8cbf2e4efbe,,,,,,,,,,,,,,,,,,,,,,,l,1,0.7078,"[""0.057"",""0.350"",""0.539"",""0.817""]","[1,0,1,1]",0,31,31,31,1,1,0,,,0,FALSE,,,,,,,,,,,,,,,,,,,,,,,,,,,,,,
,,001,2022-04-28_20h11.35.601,classification_task,2021.2.3,Win32,59.96641881,5c05922f4e1b7b00016af702,626b377229c10585ec392f8a,626b3b1bcd2dc8cbf2e4efbe,,,,,,,,,,,,,,,,,,,,,,,l,1,1.9276,"[""0.057"",""0.347"",""0.539"",""0.817""]","[1,0,1,1]",0,32,32,32,1,1,0,,,0,FALSE,,,,,,,,,,,,,,,,,,,,,,,,,,,,,,
,,001,2022-04-28_20h11.35.601,classification_task,2021.2.3,Win32,59.96641881,5c05922f4e1b7b00016af702,626b377229c10585ec392f8a,626b3b1bcd2dc8cbf2e4efbe,,,,,,,,,,,,,,,,,,,,,,,a,1,0.6869,"[""0.226"",""0.108"",""0.728"",""0.904""]","[1,0,1,1]",0,33,33,33,1,0,0,,,0,FALSE,,,,,,,,,,,,,,,,,,,,,,,,,,,,,,
,,001,2022-04-28_20h11.35.601,classification_task,2021.2.3,Win32,59.96641881,5c05922f4e1b7b00016af702,626b377229c10585ec392f8a,626b3b1bcd2dc8cbf2e4efbe,,,,,,,,,,,,,,,,,,,,,,,a,0,1.0221,"[""0.145"",""0.391"",""0.596"",""0.777""]","[1,1,1,0]",0,34,34,34,1,1,1,,,0,FALSE,,,,,,,,,,,,,,,,,,,,,,,,,,,,,,
,,001,2022-04-28_20h11.35.601,classification_task,2021.2.3,Win32,59.96641881,5c05922f4e1b7b00016af702,626b377229c10585ec392f8a,626b3b1bcd2dc8cbf2e4efbe,,,,,,,,,,,,,,,,,,,,,,,a,1,0.6618,"[""0.104"",""0.430"",""0.728"",""0.904""]","[0,1,1,1]",0,35,35,35,1,0,0,,,0,FALSE,,,,,,,,,,,,,,,,,,,,,,,,,,,,,,
,,001,2022-04-28_20h11.35.601,classification_task,2021.2.3,Win32,59.96641881,5c05922f4e1b7b00016af702,626b377229c10585ec392f8a,626b3b1bcd2dc8cbf2e4efbe,,,,,,,,,,,,,,,,,,,,,,,a,1,0.4845,"[""0.226"",""0.430"",""0.093"",""0.904""]","[1,1,0,1]",0,36,36,36,1,0,0,,,0,FALSE,,,,,,,,,,,,,,,,,,,,,,,,,,,,,,
,,001,2022-04-28_20h11.35.601,classification_task,2021.2.3,Win32,59.96641881,5c05922f4e1b7b00016af702,626b377229c10585ec392f8a,626b3b1bcd2dc8cbf2e4efbe,,,,,,,,,,,,,,,,,,,,,,,l,1,1.9693,"[""0.347"",""0.391"",""0.596"",""0.680""]","[0,1,1,1]",0,37,37,37,1,1,1,,,0,FALSE,,,,,,,,,,,,,,,,,,,,,,,,,,,,,,
,,001,2022-04-28_20h11.35.601,classification_task,2021.2.3,Win32,59.96641881,5c05922f4e1b7b00016af702,626b377229c10585ec392f8a,626b3b1bcd2dc8cbf2e4efbe,,,,,,,,,,,,,,,,,,,,,,,a,1,1.2305,"[""0.104"",""0.480"",""0.861"",""0.973""]","[0,1,1,1]",0,38,38,38,1,0,1,,,0,FALSE,,,,,,,,,,,,,,,,,,,,,,,,,,,,,,
,,001,2022-04-28_20h11.35.601,classification_task,2021.2.3,Win32,59.96641881,5c05922f4e1b7b00016af702,626b377229c10585ec392f8a,626b3b1bcd2dc8cbf2e4efbe,,,,,,,,,,,,,,,,,,,,,,,l,1,2.7538,"[""0.145"",""0.764"",""0.596"",""0.680""]","[1,0,1,1]",0,39,39,39,1,1,1,,,0,FALSE,,,,,,,,,,,,,,,,,,,,,,,,,,,,,,
,,001,2022-04-28_20h11.35.601,classification_task,2021.2.3,Win32,59.96641881,5c05922f4e1b7b00016af702,626b377229c10585ec392f8a,626b3b1bcd2dc8cbf2e4efbe,,,,,,,,,,,,,,,,,,,,,,,l,0,1.1038,"[""0.184"",""0.480"",""0.861"",""0.777""]","[1,1,1,0]",0,40,40,40,1,0,1,,,0,FALSE,,,,,,,,,,,,,,,,,,,,,,,,,,,,,,
,,001,2022-04-28_20h11.35.601,classification_task,2021.2.3,Win32,59.96641881,5c05922f4e1b7b00016af702,626b377229c10585ec392f8a,626b3b1bcd2dc8cbf2e4efbe,,,,,,,,,,,,,,,,,,,,,,,a,0,0.891,"[""0.145"",""0.391"",""0.093"",""0.680""]","[1,1,0,1]",0,41,41,41,1,1,1,,,0,FALSE,,,,,,,,,,,,,,,,,,,,,,,,,,,,,,
,,001,2022-04-28_20h11.35.601,classification_task,2021.2.3,Win32,59.96641881,5c05922f4e1b7b00016af702,626b377229c10585ec392f8a,626b3b1bcd2dc8cbf2e4efbe,,,,,,,,,,,,,,,,,,,,,,,l,1,0.7769,"[""0.057"",""0.302"",""0.093"",""0.817""]","[1,1,0,1]",0,42,42,42,1,1,0,,,0,FALSE,,,,,,,,,,,,,,,,,,,,,,,,,,,,,,
,,001,2022-04-28_20h11.35.601,classification_task,2021.2.3,Win32,59.96641881,5c05922f4e1b7b00016af702,626b377229c10585ec392f8a,626b3b1bcd2dc8cbf2e4efbe,,,,,,,,,,,,,,,,,,,,,,,a,1,0.5337,"[""0.226"",""0.430"",""0.728"",""0.108""]","[1,1,1,0]",0,43,43,43,1,0,0,,,0,FALSE,,,,,,,,,,,,,,,,,,,,,,,,,,,,,,
,,001,2022-04-28_20h11.35.601,classification_task,2021.2.3,Win32,59.96641881,5c05922f4e1b7b00016af702,626b377229c10585ec392f8a,626b3b1bcd2dc8cbf2e4efbe,,,,,,,,,,,,,,,,,,,,,,,a,0,0.4177,"[""0.057"",""0.302"",""0.539"",""0.347""]","[1,1,1,0]",0,44,44,44,1,1,0,,,0,FALSE,,,,,,,,,,,,,,,,,,,,,,,,,,,,,,
,,001,2022-04-28_20h11.35.601,classification_task,2021.2.3,Win32,59.96641881,5c05922f4e1b7b00016af702,626b377229c10585ec392f8a,626b3b1bcd2dc8cbf2e4efbe,,,,,,,,,,,,,,,,,,,,,,,l,1,0.6991,"[""0.635"",""0.302"",""0.539"",""0.817""]","[0,1,1,1]",0,45,45,45,1,1,0,,,0,FALSE,,,,,,,,,,,,,,,,,,,,,,,,,,,,,,
,,001,2022-04-28_20h11.35.601,classification_task,2021.2.3,Win32,59.96641881,5c05922f4e1b7b00016af702,626b377229c10585ec392f8a,626b3b1bcd2dc8cbf2e4efbe,,,,,,,,,,,,,,,,,,,,,,,a,1,1.7712,"[""0.184"",""0.352"",""0.861"",""0.973""]","[1,0,1,1]",0,46,46,46,1,0,1,,,0,FALSE,,,,,,,,,,,,,,,,,,,,,,,,,,,,,,
,,001,2022-04-28_20h11.35.601,classification_task,2021.2.3,Win32,59.96641881,5c05922f4e1b7b00016af702,626b377229c10585ec392f8a,626b3b1bcd2dc8cbf2e4efbe,,,,,,,,,,,,,,,,,,,,,,,a,1,1.0271,"[""0.184"",""0.480"",""0.346"",""0.973""]","[1,1,0,1]",0,47,47,47,1,0,1,,,0,FALSE,,,,,,,,,,,,,,,,,,,,,,,,,,,,,,
,,001,2022-04-28_20h11.35.601,classification_task,2021.2.3,Win32,59.96641881,5c05922f4e1b7b00016af702,626b377229c10585ec392f8a,626b3b1bcd2dc8cbf2e4efbe,,,,,,,,,,,,,,,,,,,,,,,a,1,0.6486,"[""0.348"",""0.480"",""0.861"",""0.973""]","[0,1,1,1]",0,48,48,48,1,0,1,,,0,FALSE,,,,,,,,,,,,,,,,,,,,,,,,,,,,,,
,,001,2022-04-28_20h11.35.601,classification_task,2021.2.3,Win32,59.96641881,5c05922f4e1b7b00016af702,626b377229c10585ec392f8a,626b3b1bcd2dc8cbf2e4efbe,,,,,,,,,,,,,,,,,,,,,,,l,1,0.648,"[""0.057"",""0.302"",""0.346"",""0.817""]","[1,1,0,1]",0,49,49,49,1,1,0,,,0,FALSE,,,,,,,,,,,,,,,,,,,,,,,,,,,,,,
,,001,2022-04-28_20h11.35.601,classification_task,2021.2.3,Win32,59.96641881,5c05922f4e1b7b00016af702,626b377229c10585ec392f8a,626b3b1bcd2dc8cbf2e4efbe,,,,,,,,,,,,,,,,,,,,,,,l,1,0.6104,"[""0.057"",""0.302"",""0.539"",""0.111""]","[1,1,1,0]",0,50,50,50,1,1,0,,,0,FALSE,,,,,,,,,,,,,,,,,,,,,,,,,,,,,,
,,001,2022-04-28_20h11.35.601,classification_task,2021.2.3,Win32,59.96641881,5c05922f4e1b7b00016af702,626b377229c10585ec392f8a,626b3b1bcd2dc8cbf2e4efbe,,,,,,,,,,,,,,,,,,,,,,,a,1,0.5381,"[""0.226"",""0.430"",""0.352"",""0.904""]","[1,1,0,1]",0,51,51,51,1,0,0,,,0,FALSE,,,,,,,,,,,,,,,,,,,,,,,,,,,,,,
,,001,2022-04-28_20h11.35.601,classification_task,2021.2.3,Win32,59.96641881,5c05922f4e1b7b00016af702,626b377229c10585ec392f8a,626b3b1bcd2dc8cbf2e4efbe,,,,,,,,,,,,,,,,,,,,,,,a,1,0.9938,"[""0.184"",""0.480"",""0.354"",""0.973""]","[1,1,0,1]",0,52,52,52,1,0,1,,,0,FALSE,,,,,,,,,,,,,,,,,,,,,,,,,,,,,,
,,001,2022-04-28_20h11.35.601,classification_task,2021.2.3,Win32,59.96641881,5c05922f4e1b7b00016af702,626b377229c10585ec392f8a,626b3b1bcd2dc8cbf2e4efbe,,,,,,,,,,,,,,,,,,,,,,,a,1,0.561,"[""0.226"",""0.348"",""0.728"",""0.904""]","[1,0,1,1]",0,53,53,53,1,0,0,,,0,FALSE,,,,,,,,,,,,,,,,,,,,,,,,,,,,,,
,,001,2022-04-28_20h11.35.601,classification_task,2021.2.3,Win32,59.96641881,5c05922f4e1b7b00016af702,626b377229c10585ec392f8a,626b3b1bcd2dc8cbf2e4efbe,,,,,,,,,,,,,,,,,,,,,,,l,1,0.652,"[""0.093"",""0.302"",""0.539"",""0.817""]","[0,1,1,1]",0,54,54,54,1,1,0,,,0,FALSE,,,,,,,,,,,,,,,,,,,,,,,,,,,,,,
,,001,2022-04-28_20h11.35.601,classification_task,2021.2.3,Win32,59.96641881,5c05922f4e1b7b00016af702,626b377229c10585ec392f8a,626b3b1bcd2dc8cbf2e4efbe,,,,,,,,,,,,,,,,,,,,,,,a,1,0.5664,"[""0.354"",""0.430"",""0.728"",""0.904""]","[0,1,1,1]",0,55,55,55,1,0,0,,,0,FALSE,,,,,,,,,,,,,,,,,,,,,,,,,,,,,,
,,001,2022-04-28_20h11.35.601,classification_task,2021.2.3,Win32,59.96641881,5c05922f4e1b7b00016af702,626b377229c10585ec392f8a,626b3b1bcd2dc8cbf2e4efbe,,,,,,,,,,,,,,,,,,,,,,,l,1,1.4483,"[""0.776"",""0.391"",""0.596"",""0.680""]","[0,1,1,1]",0,56,56,56,1,1,1,,,0,FALSE,,,,,,,,,,,,,,,,,,,,,,,,,,,,,,
,,001,2022-04-28_20h11.35.601,classification_task,2021.2.3,Win32,59.96641881,5c05922f4e1b7b00016af702,626b377229c10585ec392f8a,626b3b1bcd2dc8cbf2e4efbe,,,,,,,,,,,,,,,,,,,,,,,a,0,0.9027,"[""0.145"",""0.391"",""0.596"",""0.347""]","[1,1,1,0]",0,57,57,57,1,1,1,,,0,FALSE,,,,,,,,,,,,,,,,,,,,,,,,,,,,,,
,,001,2022-04-28_20h11.35.601,classification_task,2021.2.3,Win32,59.96641881,5c05922f4e1b7b00016af702,626b377229c10585ec392f8a,626b3b1bcd2dc8cbf2e4efbe,,,,,,,,,,,,,,,,,,,,,,,l,1,1.0867,"[""0.145"",""0.350"",""0.596"",""0.680""]","[1,0,1,1]",0,58,58,58,1,1,1,,,0,FALSE,,,,,,,,,,,,,,,,,,,,,,,,,,,,,,
,,001,2022-04-28_20h11.35.601,classification_task,2021.2.3,Win32,59.96641881,5c05922f4e1b7b00016af702,626b377229c10585ec392f8a,626b3b1bcd2dc8cbf2e4efbe,,,,,,,,,,,,,,,,,,,,,,,a,1,0.6466,"[""0.226"",""0.430"",""0.728"",""0.268""]","[1,1,1,0]",0,59,59,59,1,0,0,,,0,FALSE,,,,,,,,,,,,,,,,,,,,,,,,,,,,,,
,,001,2022-04-28_20h11.35.601,classification_task,2021.2.3,Win32,59.96641881,5c05922f4e1b7b00016af702,626b377229c10585ec392f8a,626b3b1bcd2dc8cbf2e4efbe,,,,,,,,,,,,,,,,,,,,,,,a,1,0.8835,"[""0.184"",""0.480"",""0.861"",""0.093""]","[1,1,1,0]",0,60,60,60,1,0,1,,,0,FALSE,,,,,,,,,,,,,,,,,,,,,,,,,,,,,,
,,001,2022-04-28_20h11.35.601,classification_task,2021.2.3,Win32,59.96641881,5c05922f4e1b7b00016af702,626b377229c10585ec392f8a,626b3b1bcd2dc8cbf2e4efbe,,,,,,,,,,,,,,,,,,,,,,,l,1,0.6956,"[""0.057"",""0.093"",""0.539"",""0.817""]","[1,0,1,1]",0,61,61,61,1,1,0,,,0,FALSE,,,,,,,,,,,,,,,,,,,,,,,,,,,,,,
,,001,2022-04-28_20h11.35.601,classification_task,2021.2.3,Win32,59.96641881,5c05922f4e1b7b00016af702,626b377229c10585ec392f8a,626b3b1bcd2dc8cbf2e4efbe,,,,,,,,,,,,,,,,,,,,,,,a,0,0.7495,"[""0.145"",""0.391"",""0.268"",""0.680""]","[1,1,0,1]",0,62,62,62,1,1,1,,,0,FALSE,,,,,,,,,,,,,,,,,,,,,,,,,,,,,,
,,001,2022-04-28_20h11.35.601,classification_task,2021.2.3,Win32,59.96641881,5c05922f4e1b7b00016af702,626b377229c10585ec392f8a,626b3b1bcd2dc8cbf2e4efbe,,,,,,,,,,,,,,,,,,,,,,,a,1,0.5807,"[""0.184"",""0.093"",""0.861"",""0.973""]","[1,0,1,1]",0,63,63,63,1,0,1,,,0,FALSE,,,,,,,,,,,,,,,,,,,,,,,,,,,,,,
,,001,2022-04-28_20h11.35.601,classification_task,2021.2.3,Win32,59.96641881,5c05922f4e1b7b00016af702,626b377229c10585ec392f8a,626b3b1bcd2dc8cbf2e4efbe,,,,,,,,,,,,,,,,,,,,,,,,,,,,,,,,,,,,,,,0, ,,0,7.273478836,164.0572,0,1,1,1,1,2,2,,,,,,,,,,,,,,,,,
,,001,2022-04-28_20h11.35.601,classification_task,2021.2.3,Win32,59.96641881,5c05922f4e1b7b00016af702,626b377229c10585ec392f8a,626b3b1bcd2dc8cbf2e4efbe,,,,,,,,,,,,,,,,,,,,,,,,,,,,,,,,,,,,,,,1,  ,,0,4.621086861,165.7106,0,1,1,1,1,2,2,,,,,,,,,,,,,,,,,
,,001,2022-04-28_20h11.35.601,classification_task,2021.2.3,Win32,59.96641881,5c05922f4e1b7b00016af702,626b377229c10585ec392f8a,626b3b1bcd2dc8cbf2e4efbe,,,,,,,,,,,,,,,,,,,,,,,,,,,,,,,,,,,,,,,2,  ,,0,3.518794092,167.3646,0,1,1,1,1,2,2,,,,,,,,,,,,,,,,,
,,001,2022-04-28_20h11.35.601,classification_task,2021.2.3,Win32,59.96641881,5c05922f4e1b7b00016af702,626b377229c10585ec392f8a,626b3b1bcd2dc8cbf2e4efbe,,,,,,,,,,,,,,,,,,,,,,,,,,,,,,,,,,,,,,,,,,,,,0,1,1,1,1,,2,,,,,,,,,,,,,,,,,
,,001,2022-04-28_20h11.35.601,classification_task,2021.2.3,Win32,59.96641881,5c05922f4e1b7b00016af702,626b377229c10585ec392f8a,626b3b1bcd2dc8cbf2e4efbe,,,,,,,,,,,,,,,,,,,,,space,9.5014,l,1,1.5427,"[""0.145"",""0.391"",""0.350"",""0.680""]","[1,1,0,1]",0,0,0,0,1,1,1,,,0,FALSE,,,,,,,,,,,,,,,,,,,,,,,,,,,,,,
,,001,2022-04-28_20h11.35.601,classification_task,2021.2.3,Win32,59.96641881,5c05922f4e1b7b00016af702,626b377229c10585ec392f8a,626b3b1bcd2dc8cbf2e4efbe,,,,,,,,,,,,,,,,,,,,,,,a,1,2.3052,"[""0.184"",""0.770"",""0.861"",""0.973""]","[1,0,1,1]",0,1,1,1,1,0,1,,,0,FALSE,,,,,,,,,,,,,,,,,,,,,,,,,,,,,,
,,001,2022-04-28_20h11.35.601,classification_task,2021.2.3,Win32,59.96641881,5c05922f4e1b7b00016af702,626b377229c10585ec392f8a,626b3b1bcd2dc8cbf2e4efbe,,,,,,,,,,,,,,,,,,,,,,,a,1,0.711,"[""0.184"",""0.480"",""0.777"",""0.973""]","[1,1,0,1]",0,2,2,2,1,0,1,,,0,FALSE,,,,,,,,,,,,,,,,,,,,,,,,,,,,,,
,,001,2022-04-28_20h11.35.601,classification_task,2021.2.3,Win32,59.96641881,5c05922f4e1b7b00016af702,626b377229c10585ec392f8a,626b3b1bcd2dc8cbf2e4efbe,,,,,,,,,,,,,,,,,,,,,,,a,1,1.7583,"[""0.226"",""0.430"",""0.352"",""0.904""]","[1,1,0,1]",0,3,3,3,1,0,0,,,0,FALSE,,,,,,,,,,,,,,,,,,,,,,,,,,,,,,
,,001,2022-04-28_20h11.35.601,classification_task,2021.2.3,Win32,59.96641881,5c05922f4e1b7b00016af702,626b377229c10585ec392f8a,626b3b1bcd2dc8cbf2e4efbe,,,,,,,,,,,,,,,,,,,,,,,l,1,0.8161,"[""0.145"",""0.391"",""0.596"",""0.352""]","[1,1,1,0]",0,4,4,4,1,1,1,,,0,FALSE,,,,,,,,,,,,,,,,,,,,,,,,,,,,,,
,,001,2022-04-28_20h11.35.601,classification_task,2021.2.3,Win32,59.96641881,5c05922f4e1b7b00016af702,626b377229c10585ec392f8a,626b3b1bcd2dc8cbf2e4efbe,,,,,,,,,,,,,,,,,,,,,,,l,1,0.6952,"[""0.057"",""0.302"",""0.539"",""0.111""]","[1,1,1,0]",0,5,5,5,1,1,0,,,0,FALSE,,,,,,,,,,,,,,,,,,,,,,,,,,,,,,
,,001,2022-04-28_20h11.35.601,classification_task,2021.2.3,Win32,59.96641881,5c05922f4e1b7b00016af702,626b377229c10585ec392f8a,626b3b1bcd2dc8cbf2e4efbe,,,,,,,,,,,,,,,,,,,,,,,a,1,0.8958,"[""0.184"",""0.480"",""0.861"",""0.352""]","[1,1,1,0]",0,6,6,6,1,0,1,,,0,FALSE,,,,,,,,,,,,,,,,,,,,,,,,,,,,,,
,,001,2022-04-28_20h11.35.601,classification_task,2021.2.3,Win32,59.96641881,5c05922f4e1b7b00016af702,626b377229c10585ec392f8a,626b3b1bcd2dc8cbf2e4efbe,,,,,,,,,,,,,,,,,,,,,,,l,1,2.2971,"[""0.352"",""0.302"",""0.539"",""0.817""]","[0,1,1,1]",0,7,7,7,1,1,0,,,0,FALSE,,,,,,,,,,,,,,,,,,,,,,,,,,,,,,
,,001,2022-04-28_20h11.35.601,classification_task,2021.2.3,Win32,59.96641881,5c05922f4e1b7b00016af702,626b377229c10585ec392f8a,626b3b1bcd2dc8cbf2e4efbe,,,,,,,,,,,,,,,,,,,,,,,a,1,0.6933,"[""0.347"",""0.480"",""0.861"",""0.973""]","[0,1,1,1]",0,8,8,8,1,0,1,,,0,FALSE,,,,,,,,,,,,,,,,,,,,,,,,,,,,,,
,,001,2022-04-28_20h11.35.601,classification_task,2021.2.3,Win32,59.96641881,5c05922f4e1b7b00016af702,626b377229c10585ec392f8a,626b3b1bcd2dc8cbf2e4efbe,,,,,,,,,,,,,,,,,,,,,,,a,1,0.7125,"[""0.348"",""0.430"",""0.728"",""0.904""]","[0,1,1,1]",0,9,9,9,1,0,0,,,0,FALSE,,,,,,,,,,,,,,,,,,,,,,,,,,,,,,
,,001,2022-04-28_20h11.35.601,classification_task,2021.2.3,Win32,59.96641881,5c05922f4e1b7b00016af702,626b377229c10585ec392f8a,626b3b1bcd2dc8cbf2e4efbe,,,,,,,,,,,,,,,,,,,,,,,l,0,0.7953,"[""0.226"",""0.430"",""0.728"",""0.764""]","[1,1,1,0]",0,10,10,10,1,0,0,,,0,FALSE,,,,,,,,,,,,,,,,,,,,,,,,,,,,,,
,,001,2022-04-28_20h11.35.601,classification_task,2021.2.3,Win32,59.96641881,5c05922f4e1b7b00016af702,626b377229c10585ec392f8a,626b3b1bcd2dc8cbf2e4efbe,,,,,,,,,,,,,,,,,,,,,,,l,1,1.3307,"[""0.093"",""0.391"",""0.596"",""0.680""]","[0,1,1,1]",0,11,11,11,1,1,1,,,0,FALSE,,,,,,,,,,,,,,,,,,,,,,,,,,,,,,
,,001,2022-04-28_20h11.35.601,classification_task,2021.2.3,Win32,59.96641881,5c05922f4e1b7b00016af702,626b377229c10585ec392f8a,626b3b1bcd2dc8cbf2e4efbe,,,,,,,,,,,,,,,,,,,,,,,a,1,2.148,"[""0.226"",""0.347"",""0.728"",""0.904""]","[1,0,1,1]",0,12,12,12,1,0,0,,,0,FALSE,,,,,,,,,,,,,,,,,,,,,,,,,,,,,,
,,001,2022-04-28_20h11.35.601,classification_task,2021.2.3,Win32,59.96641881,5c05922f4e1b7b00016af702,626b377229c10585ec392f8a,626b3b1bcd2dc8cbf2e4efbe,,,,,,,,,,,,,,,,,,,,,,,l,1,1.6875,"[""0.057"",""0.764"",""0.539"",""0.817""]","[1,0,1,1]",0,13,13,13,1,1,0,,,0,FALSE,,,,,,,,,,,,,,,,,,,,,,,,,,,,,,
,,001,2022-04-28_20h11.35.601,classification_task,2021.2.3,Win32,59.96641881,5c05922f4e1b7b00016af702,626b377229c10585ec392f8a,626b3b1bcd2dc8cbf2e4efbe,,,,,,,,,,,,,,,,,,,,,,,l,1,0.7321,"[""0.057"",""0.302"",""0.770"",""0.817""]","[1,1,0,1]",0,14,14,14,1,1,0,,,0,FALSE,,,,,,,,,,,,,,,,,,,,,,,,,,,,,,
,,001,2022-04-28_20h11.35.601,classification_task,2021.2.3,Win32,59.96641881,5c05922f4e1b7b00016af702,626b377229c10585ec392f8a,626b3b1bcd2dc8cbf2e4efbe,,,,,,,,,,,,,,,,,,,,,,,l,1,0.8443,"[""0.145"",""0.776"",""0.596"",""0.680""]","[1,0,1,1]",0,15,15,15,1,1,1,,,0,FALSE,,,,,,,,,,,,,,,,,,,,,,,,,,,,,,
,,001,2022-04-28_20h11.35.601,classification_task,2021.2.3,Win32,59.96641881,5c05922f4e1b7b00016af702,626b377229c10585ec392f8a,626b3b1bcd2dc8cbf2e4efbe,,,,,,,,,,,,,,,,,,,,,,,l,1,1.3687,"[""0.145"",""0.391"",""0.596"",""0.093""]","[1,1,1,0]",0,16,16,16,1,1,1,,,0,FALSE,,,,,,,,,,,,,,,,,,,,,,,,,,,,,,
,,001,2022-04-28_20h11.35.601,classification_task,2021.2.3,Win32,59.96641881,5c05922f4e1b7b00016af702,626b377229c10585ec392f8a,626b3b1bcd2dc8cbf2e4efbe,,,,,,,,,,,,,,,,,,,,,,,l,1,0.9455,"[""0.057"",""0.764"",""0.539"",""0.817""]","[1,0,1,1]",0,17,17,17,1,1,0,,,0,FALSE,,,,,,,,,,,,,,,,,,,,,,,,,,,,,,
,,001,2022-04-28_20h11.35.601,classification_task,2021.2.3,Win32,59.96641881,5c05922f4e1b7b00016af702,626b377229c10585ec392f8a,626b3b1bcd2dc8cbf2e4efbe,,,,,,,,,,,,,,,,,,,,,,,a,1,0.6799,"[""0.184"",""0.480"",""0.861"",""0.108""]","[1,1,1,0]",0,18,18,18,1,0,1,,,0,FALSE,,,,,,,,,,,,,,,,,,,,,,,,,,,,,,
,,001,2022-04-28_20h11.35.601,classification_task,2021.2.3,Win32,59.96641881,5c05922f4e1b7b00016af702,626b377229c10585ec392f8a,626b3b1bcd2dc8cbf2e4efbe,,,,,,,,,,,,,,,,,,,,,,,a,1,0.6309,"[""0.226"",""0.430"",""0.728"",""0.093""]","[1,1,1,0]",0,19,19,19,1,0,0,,,0,FALSE,,,,,,,,,,,,,,,,,,,,,,,,,,,,,,
,,001,2022-04-28_20h11.35.601,classification_task,2021.2.3,Win32,59.96641881,5c05922f4e1b7b00016af702,626b377229c10585ec392f8a,626b3b1bcd2dc8cbf2e4efbe,,,,,,,,,,,,,,,,,,,,,,,a,0,0.7793,"[""0.635"",""0.302"",""0.539"",""0.817""]","[0,1,1,1]",0,20,20,20,1,1,0,,,0,FALSE,,,,,,,,,,,,,,,,,,,,,,,,,,,,,,
,,001,2022-04-28_20h11.35.601,classification_task,2021.2.3,Win32,59.96641881,5c05922f4e1b7b00016af702,626b377229c10585ec392f8a,626b3b1bcd2dc8cbf2e4efbe,,,,,,,,,,,,,,,,,,,,,,,l,1,0.5957,"[""0.145"",""0.391"",""0.354"",""0.680""]","[1,1,0,1]",0,21,21,21,1,1,1,,,0,FALSE,,,,,,,,,,,,,,,,,,,,,,,,,,,,,,
,,001,2022-04-28_20h11.35.601,classification_task,2021.2.3,Win32,59.96641881,5c05922f4e1b7b00016af702,626b377229c10585ec392f8a,626b3b1bcd2dc8cbf2e4efbe,,,,,,,,,,,,,,,,,,,,,,,a,1,0.995,"[""0.352"",""0.430"",""0.728"",""0.904""]","[0,1,1,1]",0,22,22,22,1,0,0,,,0,FALSE,,,,,,,,,,,,,,,,,,,,,,,,,,,,,,
,,001,2022-04-28_20h11.35.601,classification_task,2021.2.3,Win32,59.96641881,5c05922f4e1b7b00016af702,626b377229c10585ec392f8a,626b3b1bcd2dc8cbf2e4efbe,,,,,,,,,,,,,,,,,,,,,,,a,0,1.3287,"[""0.346"",""0.391"",""0.596"",""0.680""]","[0,1,1,1]",0,23,23,23,1,1,1,,,0,FALSE,,,,,,,,,,,,,,,,,,,,,,,,,,,,,,
,,001,2022-04-28_20h11.35.601,classification_task,2021.2.3,Win32,59.96641881,5c05922f4e1b7b00016af702,626b377229c10585ec392f8a,626b3b1bcd2dc8cbf2e4efbe,,,,,,,,,,,,,,,,,,,,,,,a,1,0.784,"[""0.226"",""0.108"",""0.728"",""0.904""]","[1,0,1,1]",0,24,24,24,1,0,0,,,0,FALSE,,,,,,,,,,,,,,,,,,,,,,,,,,,,,,
,,001,2022-04-28_20h11.35.601,classification_task,2021.2.3,Win32,59.96641881,5c05922f4e1b7b00016af702,626b377229c10585ec392f8a,626b3b1bcd2dc8cbf2e4efbe,,,,,,,,,,,,,,,,,,,,,,,l,1,0.813,"[""0.057"",""0.302"",""0.539"",""0.108""]","[1,1,1,0]",0,25,25,25,1,1,0,,,0,FALSE,,,,,,,,,,,,,,,,,,,,,,,,,,,,,,
,,001,2022-04-28_20h11.35.601,classification_task,2021.2.3,Win32,59.96641881,5c05922f4e1b7b00016af702,626b377229c10585ec392f8a,626b3b1bcd2dc8cbf2e4efbe,,,,,,,,,,,,,,,,,,,,,,,l,1,1.8797,"[""0.145"",""0.111"",""0.596"",""0.680""]","[1,0,1,1]",0,26,26,26,1,1,1,,,0,FALSE,,,,,,,,,,,,,,,,,,,,,,,,,,,,,,
,,001,2022-04-28_20h11.35.601,classification_task,2021.2.3,Win32,59.96641881,5c05922f4e1b7b00016af702,626b377229c10585ec392f8a,626b3b1bcd2dc8cbf2e4efbe,,,,,,,,,,,,,,,,,,,,,,,a,1,1.5507,"[""0.226"",""0.430"",""0.104"",""0.904""]","[1,1,0,1]",0,27,27,27,1,0,0,,,0,FALSE,,,,,,,,,,,,,,,,,,,,,,,,,,,,,,
,,001,2022-04-28_20h11.35.601,classification_task,2021.2.3,Win32,59.96641881,5c05922f4e1b7b00016af702,626b377229c10585ec392f8a,626b3b1bcd2dc8cbf2e4efbe,,,,,,,,,,,,,,,,,,,,,,,a,1,0.9819,"[""0.184"",""0.480"",""0.093"",""0.973""]","[1,1,0,1]",0,28,28,28,1,0,1,,,0,FALSE,,,,,,,,,,,,,,,,,,,,,,,,,,,,,,
,,001,2022-04-28_20h11.35.601,classification_task,2021.2.3,Win32,59.96641881,5c05922f4e1b7b00016af702,626b377229c10585ec392f8a,626b3b1bcd2dc8cbf2e4efbe,,,,,,,,,,,,,,,,,,,,,,,l,0,4.1306,"[""0.776"",""0.480"",""0.861"",""0.973""]","[0,1,1,1]",0,29,29,29,1,0,1,,,0,FALSE,,,,,,,,,,,,,,,,,,,,,,,,,,,,,,
,,001,2022-04-28_20h11.35.601,classification_task,2021.2.3,Win32,59.96641881,5c05922f4e1b7b00016af702,626b377229c10585ec392f8a,626b3b1bcd2dc8cbf2e4efbe,,,,,,,,,,,,,,,,,,,,,,,l,1,0.9065,"[""0.057"",""0.302"",""0.104"",""0.817""]","[1,1,0,1]",0,30,30,30,1,1,0,,,0,FALSE,,,,,,,,,,,,,,,,,,,,,,,,,,,,,,
,,001,2022-04-28_20h11.35.601,classification_task,2021.2.3,Win32,59.96641881,5c05922f4e1b7b00016af702,626b377229c10585ec392f8a,626b3b1bcd2dc8cbf2e4efbe,,,,,,,,,,,,,,,,,,,,,,,a,1,0.9449,"[""0.184"",""0.635"",""0.861"",""0.973""]","[1,0,1,1]",0,31,31,31,1,0,1,,,0,FALSE,,,,,,,,,,,,,,,,,,,,,,,,,,,,,,
,,001,2022-04-28_20h11.35.601,classification_task,2021.2.3,Win32,59.96641881,5c05922f4e1b7b00016af702,626b377229c10585ec392f8a,626b3b1bcd2dc8cbf2e4efbe,,,,,,,,,,,,,,,,,,,,,,,a,1,1.1991,"[""0.226"",""0.430"",""0.776"",""0.904""]","[1,1,0,1]",0,32,32,32,1,0,0,,,0,FALSE,,,,,,,,,,,,,,,,,,,,,,,,,,,,,,
,,001,2022-04-28_20h11.35.601,classification_task,2021.2.3,Win32,59.96641881,5c05922f4e1b7b00016af702,626b377229c10585ec392f8a,626b3b1bcd2dc8cbf2e4efbe,,,,,,,,,,,,,,,,,,,,,,,l,1,0.8307,"[""0.346"",""0.391"",""0.596"",""0.680""]","[0,1,1,1]",0,33,33,33,1,1,1,,,0,FALSE,,,,,,,,,,,,,,,,,,,,,,,,,,,,,,
,,001,2022-04-28_20h11.35.601,classification_task,2021.2.3,Win32,59.96641881,5c05922f4e1b7b00016af702,626b377229c10585ec392f8a,626b3b1bcd2dc8cbf2e4efbe,,,,,,,,,,,,,,,,,,,,,,,a,1,0.9179,"[""0.184"",""0.346"",""0.861"",""0.973""]","[1,0,1,1]",0,34,34,34,1,0,1,,,0,FALSE,,,,,,,,,,,,,,,,,,,,,,,,,,,,,,
,,001,2022-04-28_20h11.35.601,classification_task,2021.2.3,Win32,59.96641881,5c05922f4e1b7b00016af702,626b377229c10585ec392f8a,626b3b1bcd2dc8cbf2e4efbe,,,,,,,,,,,,,,,,,,,,,,,a,0,0.5145,"[""0.145"",""0.391"",""0.596"",""0.777""]","[1,1,1,0]",0,35,35,35,1,1,1,,,0,FALSE,,,,,,,,,,,,,,,,,,,,,,,,,,,,,,
,,001,2022-04-28_20h11.35.601,classification_task,2021.2.3,Win32,59.96641881,5c05922f4e1b7b00016af702,626b377229c10585ec392f8a,626b3b1bcd2dc8cbf2e4efbe,,,,,,,,,,,,,,,,,,,,,,,l,1,0.6312,"[""0.145"",""0.391"",""0.352"",""0.680""]","[1,1,0,1]",0,36,36,36,1,1,1,,,0,FALSE,,,,,,,,,,,,,,,,,,,,,,,,,,,,,,
,,001,2022-04-28_20h11.35.601,classification_task,2021.2.3,Win32,59.96641881,5c05922f4e1b7b00016af702,626b377229c10585ec392f8a,626b3b1bcd2dc8cbf2e4efbe,,,,,,,,,,,,,,,,,,,,,,,a,0,0.6615,"[""0.104"",""0.302"",""0.539"",""0.817""]","[0,1,1,1]",0,37,37,37,1,1,0,,,0,FALSE,,,,,,,,,,,,,,,,,,,,,,,,,,,,,,
,,001,2022-04-28_20h11.35.601,classification_task,2021.2.3,Win32,59.96641881,5c05922f4e1b7b00016af702,626b377229c10585ec392f8a,626b3b1bcd2dc8cbf2e4efbe,,,,,,,,,,,,,,,,,,,,,,,a,0,0.5276,"[""0.057"",""0.347"",""0.539"",""0.817""]","[1,0,1,1]",0,38,38,38,1,1,0,,,0,FALSE,,,,,,,,,,,,,,,,,,,,,,,,,,,,,,
,,001,2022-04-28_20h11.35.601,classification_task,2021.2.3,Win32,59.96641881,5c05922f4e1b7b00016af702,626b377229c10585ec392f8a,626b3b1bcd2dc8cbf2e4efbe,,,,,,,,,,,,,,,,,,,,,,,l,0,0.6957,"[""0.226"",""0.770"",""0.728"",""0.904""]","[1,0,1,1]",0,39,39,39,1,0,0,,,0,FALSE,,,,,,,,,,,,,,,,,,,,,,,,,,,,,,
,,001,2022-04-28_20h11.35.601,classification_task,2021.2.3,Win32,59.96641881,5c05922f4e1b7b00016af702,626b377229c10585ec392f8a,626b3b1bcd2dc8cbf2e4efbe,,,,,,,,,,,,,,,,,,,,,,,l,1,0.6046,"[""0.057"",""0.302"",""0.348"",""0.817""]","[1,1,0,1]",0,40,40,40,1,1,0,,,0,FALSE,,,,,,,,,,,,,,,,,,,,,,,,,,,,,,
,,001,2022-04-28_20h11.35.601,classification_task,2021.2.3,Win32,59.96641881,5c05922f4e1b7b00016af702,626b377229c10585ec392f8a,626b3b1bcd2dc8cbf2e4efbe,,,,,,,,,,,,,,,,,,,,,,,a,1,0.9287,"[""0.764"",""0.480"",""0.861"",""0.973""]","[0,1,1,1]",0,41,41,41,1,0,1,,,0,FALSE,,,,,,,,,,,,,,,,,,,,,,,,,,,,,,
,,001,2022-04-28_20h11.35.601,classification_task,2021.2.3,Win32,59.96641881,5c05922f4e1b7b00016af702,626b377229c10585ec392f8a,626b3b1bcd2dc8cbf2e4efbe,,,,,,,,,,,,,,,,,,,,,,,a,1,0.7746,"[""0.108"",""0.430"",""0.728"",""0.904""]","[0,1,1,1]",0,42,42,42,1,0,0,,,0,FALSE,,,,,,,,,,,,,,,,,,,,,,,,,,,,,,
,,001,2022-04-28_20h11.35.601,classification_task,2021.2.3,Win32,59.96641881,5c05922f4e1b7b00016af702,626b377229c10585ec392f8a,626b3b1bcd2dc8cbf2e4efbe,,,,,,,,,,,,,,,,,,,,,,,a,1,0.4757,"[""0.184"",""0.480"",""0.861"",""0.776""]","[1,1,1,0]",0,43,43,43,1,0,1,,,0,FALSE,,,,,,,,,,,,,,,,,,,,,,,,,,,,,,
,,001,2022-04-28_20h11.35.601,classification_task,2021.2.3,Win32,59.96641881,5c05922f4e1b7b00016af702,626b377229c10585ec392f8a,626b3b1bcd2dc8cbf2e4efbe,,,,,,,,,,,,,,,,,,,,,,,l,1,0.6499,"[""0.057"",""0.302"",""0.539"",""0.350""]","[1,1,1,0]",0,44,44,44,1,1,0,,,0,FALSE,,,,,,,,,,,,,,,,,,,,,,,,,,,,,,
,,001,2022-04-28_20h11.35.601,classification_task,2021.2.3,Win32,59.96641881,5c05922f4e1b7b00016af702,626b377229c10585ec392f8a,626b3b1bcd2dc8cbf2e4efbe,,,,,,,,,,,,,,,,,,,,,,,a,0,1.7142,"[""0.145"",""0.352"",""0.596"",""0.680""]","[1,0,1,1]",0,45,45,45,1,1,1,,,0,FALSE,,,,,,,,,,,,,,,,,,,,,,,,,,,,,,
,,001,2022-04-28_20h11.35.601,classification_task,2021.2.3,Win32,59.96641881,5c05922f4e1b7b00016af702,626b377229c10585ec392f8a,626b3b1bcd2dc8cbf2e4efbe,,,,,,,,,,,,,,,,,,,,,,,a,1,0.9657,"[""0.226"",""0.430"",""0.728"",""0.347""]","[1,1,1,0]",0,46,46,46,1,0,0,,,0,FALSE,,,,,,,,,,,,,,,,,,,,,,,,,,,,,,
,,001,2022-04-28_20h11.35.601,classification_task,2021.2.3,Win32,59.96641881,5c05922f4e1b7b00016af702,626b377229c10585ec392f8a,626b3b1bcd2dc8cbf2e4efbe,,,,,,,,,,,,,,,,,,,,,,,a,1,0.6125,"[""0.184"",""0.480"",""0.354"",""0.973""]","[1,1,0,1]",0,47,47,47,1,0,1,,,0,FALSE,,,,,,,,,,,,,,,,,,,,,,,,,,,,,,
,,001,2022-04-28_20h11.35.601,classification_task,2021.2.3,Win32,59.96641881,5c05922f4e1b7b00016af702,626b377229c10585ec392f8a,626b3b1bcd2dc8cbf2e4efbe,,,,,,,,,,,,,,,,,,,,,,,a,1,0.5926,"[""0.226"",""0.430"",""0.104"",""0.904""]","[1,1,0,1]",0,48,48,48,1,0,0,,,0,FALSE,,,,,,,,,,,,,,,,,,,,,,,,,,,,,,
,,001,2022-04-28_20h11.35.601,classification_task,2021.2.3,Win32,59.96641881,5c05922f4e1b7b00016af702,626b377229c10585ec392f8a,626b3b1bcd2dc8cbf2e4efbe,,,,,,,,,,,,,,,,,,,,,,,l,1,0.6295,"[""0.145"",""0.391"",""0.596"",""0.108""]","[1,1,1,0]",0,49,49,49,1,1,1,,,0,FALSE,,,,,,,,,,,,,,,,,,,,,,,,,,,,,,
,,001,2022-04-28_20h11.35.601,classification_task,2021.2.3,Win32,59.96641881,5c05922f4e1b7b00016af702,626b377229c10585ec392f8a,626b3b1bcd2dc8cbf2e4efbe,,,,,,,,,,,,,,,,,,,,,,,l,1,0.7984,"[""0.145"",""0.391"",""0.352"",""0.680""]","[1,1,0,1]",0,50,50,50,1,1,1,,,0,FALSE,,,,,,,,,,,,,,,,,,,,,,,,,,,,,,
,,001,2022-04-28_20h11.35.601,classification_task,2021.2.3,Win32,59.96641881,5c05922f4e1b7b00016af702,626b377229c10585ec392f8a,626b3b1bcd2dc8cbf2e4efbe,,,,,,,,,,,,,,,,,,,,,,,a,0,0.693,"[""0.057"",""0.302"",""0.539"",""0.635""]","[1,1,1,0]",0,51,51,51,1,1,0,,,0,FALSE,,,,,,,,,,,,,,,,,,,,,,,,,,,,,,
,,001,2022-04-28_20h11.35.601,classification_task,2021.2.3,Win32,59.96641881,5c05922f4e1b7b00016af702,626b377229c10585ec392f8a,626b3b1bcd2dc8cbf2e4efbe,,,,,,,,,,,,,,,,,,,,,,,a,0,0.8654,"[""0.057"",""0.347"",""0.539"",""0.817""]","[1,0,1,1]",0,52,52,52,1,1,0,,,0,FALSE,,,,,,,,,,,,,,,,,,,,,,,,,,,,,,
,,001,2022-04-28_20h11.35.601,classification_task,2021.2.3,Win32,59.96641881,5c05922f4e1b7b00016af702,626b377229c10585ec392f8a,626b3b1bcd2dc8cbf2e4efbe,,,,,,,,,,,,,,,,,,,,,,,a,1,0.5536,"[""0.350"",""0.480"",""0.861"",""0.973""]","[0,1,1,1]",0,53,53,53,1,0,1,,,0,FALSE,,,,,,,,,,,,,,,,,,,,,,,,,,,,,,
,,001,2022-04-28_20h11.35.601,classification_task,2021.2.3,Win32,59.96641881,5c05922f4e1b7b00016af702,626b377229c10585ec392f8a,626b3b1bcd2dc8cbf2e4efbe,,,,,,,,,,,,,,,,,,,,,,,a,1,0.568,"[""0.184"",""0.480"",""0.861"",""0.268""]","[1,1,1,0]",0,54,54,54,1,0,1,,,0,FALSE,,,,,,,,,,,,,,,,,,,,,,,,,,,,,,
,,001,2022-04-28_20h11.35.601,classification_task,2021.2.3,Win32,59.96641881,5c05922f4e1b7b00016af702,626b377229c10585ec392f8a,626b3b1bcd2dc8cbf2e4efbe,,,,,,,,,,,,,,,,,,,,,,,a,1,0.5806,"[""0.184"",""0.093"",""0.861"",""0.973""]","[1,0,1,1]",0,55,55,55,1,0,1,,,0,FALSE,,,,,,,,,,,,,,,,,,,,,,,,,,,,,,
,,001,2022-04-28_20h11.35.601,classification_task,2021.2.3,Win32,59.96641881,5c05922f4e1b7b00016af702,626b377229c10585ec392f8a,626b3b1bcd2dc8cbf2e4efbe,,,,,,,,,,,,,,,,,,,,,,,a,0,1.2345,"[""0.145"",""0.268"",""0.596"",""0.680""]","[1,0,1,1]",0,56,56,56,1,1,1,,,0,FALSE,,,,,,,,,,,,,,,,,,,,,,,,,,,,,,
,,001,2022-04-28_20h11.35.601,classification_task,2021.2.3,Win32,59.96641881,5c05922f4e1b7b00016af702,626b377229c10585ec392f8a,626b3b1bcd2dc8cbf2e4efbe,,,,,,,,,,,,,,,,,,,,,,,a,0,1.5074,"[""0.770"",""0.391"",""0.596"",""0.680""]","[0,1,1,1]",0,57,57,57,1,1,1,,,0,FALSE,,,,,,,,,,,,,,,,,,,,,,,,,,,,,,
,,001,2022-04-28_20h11.35.601,classification_task,2021.2.3,Win32,59.96641881,5c05922f4e1b7b00016af702,626b377229c10585ec392f8a,626b3b1bcd2dc8cbf2e4efbe,,,,,,,,,,,,,,,,,,,,,,,l,1,0.5356,"[""0.346"",""0.302"",""0.539"",""0.817""]","[0,1,1,1]",0,58,58,58,1,1,0,,,0,FALSE,,,,,,,,,,,,,,,,,,,,,,,,,,,,,,
,,001,2022-04-28_20h11.35.601,classification_task,2021.2.3,Win32,59.96641881,5c05922f4e1b7b00016af702,626b377229c10585ec392f8a,626b3b1bcd2dc8cbf2e4efbe,,,,,,,,,,,,,,,,,,,,,,,l,1,0.5468,"[""0.057"",""0.302"",""0.346"",""0.817""]","[1,1,0,1]",0,59,59,59,1,1,0,,,0,FALSE,,,,,,,,,,,,,,,,,,,,,,,,,,,,,,
,,001,2022-04-28_20h11.35.601,classification_task,2021.2.3,Win32,59.96641881,5c05922f4e1b7b00016af702,626b377229c10585ec392f8a,626b3b1bcd2dc8cbf2e4efbe,,,,,,,,,,,,,,,,,,,,,,,a,1,0.8994,"[""0.350"",""0.430"",""0.728"",""0.904""]","[0,1,1,1]",0,60,60,60,1,0,0,,,0,FALSE,,,,,,,,,,,,,,,,,,,,,,,,,,,,,,
,,001,2022-04-28_20h11.35.601,classification_task,2021.2.3,Win32,59.96641881,5c05922f4e1b7b00016af702,626b377229c10585ec392f8a,626b3b1bcd2dc8cbf2e4efbe,,,,,,,,,,,,,,,,,,,,,,,l,0,1.1106,"[""0.226"",""0.777"",""0.728"",""0.904""]","[1,0,1,1]",0,61,61,61,1,0,0,,,0,FALSE,,,,,,,,,,,,,,,,,,,,,,,,,,,,,,
,,001,2022-04-28_20h11.35.601,classification_task,2021.2.3,Win32,59.96641881,5c05922f4e1b7b00016af702,626b377229c10585ec392f8a,626b3b1bcd2dc8cbf2e4efbe,,,,,,,,,,,,,,,,,,,,,,,l,0,0.8464,"[""0.226"",""0.430"",""0.728"",""0.776""]","[1,1,1,0]",0,62,62,62,1,0,0,,,0,FALSE,,,,,,,,,,,,,,,,,,,,,,,,,,,,,,
,,001,2022-04-28_20h11.35.601,classification_task,2021.2.3,Win32,59.96641881,5c05922f4e1b7b00016af702,626b377229c10585ec392f8a,626b3b1bcd2dc8cbf2e4efbe,,,,,,,,,,,,,,,,,,,,,,,a,1,0.6498,"[""0.184"",""0.480"",""0.635"",""0.973""]","[1,1,0,1]",0,63,63,63,1,0,1,,,0,FALSE,,,,,,,,,,,,,,,,,,,,,,,,,,,,,,
,,001,2022-04-28_20h11.35.601,classification_task,2021.2.3,Win32,59.96641881,5c05922f4e1b7b00016af702,626b377229c10585ec392f8a,626b3b1bcd2dc8cbf2e4efbe,,,,,,,,,,,,,,,,,,,,,,,,,,,,,,,,,,,,,,,0, ,,0,6.033399471,149.9376,0,2,2,2,1,2,3,,,,,,,,,,,,,,,,,
,,001,2022-04-28_20h11.35.601,classification_task,2021.2.3,Win32,59.96641881,5c05922f4e1b7b00016af702,626b377229c10585ec392f8a,626b3b1bcd2dc8cbf2e4efbe,,,,,,,,,,,,,,,,,,,,,,,,,,,,,,,,,,,,,,,1,  ,,0,8.306878307,152.997,0,2,2,2,1,2,3,,,,,,,,,,,,,,,,,
,,001,2022-04-28_20h11.35.601,classification_task,2021.2.3,Win32,59.96641881,5c05922f4e1b7b00016af702,626b377229c10585ec392f8a,626b3b1bcd2dc8cbf2e4efbe,,,,,,,,,,,,,,,,,,,,,,,,,,,,,,,,,,,,,,,2,  ,,0,8.031305115,155.2858,0,2,2,2,1,2,3,,,,,,,,,,,,,,,,,
,,001,2022-04-28_20h11.35.601,classification_task,2021.2.3,Win32,59.96641881,5c05922f4e1b7b00016af702,626b377229c10585ec392f8a,626b3b1bcd2dc8cbf2e4efbe,,,,,,,,,,,,,,,,,,,,,,,,,,,,,,,,,,,,,,,,,,,,,0,2,2,2,1,,3,,,,,,,,,,,,,,,,,
,,001,2022-04-28_20h11.35.601,classification_task,2021.2.3,Win32,59.96641881,5c05922f4e1b7b00016af702,626b377229c10585ec392f8a,626b3b1bcd2dc8cbf2e4efbe,,,,,,,,,,,,,,,,,,,,,,,,,,,,,,,,,,,,,,,,,,,,,,,,,,,,,I believe the aid is a competent performer,,0.7,0,4,899.7921,0,0,0,0,1,0,,,,
,,001,2022-04-28_20h11.35.601,classification_task,2021.2.3,Win32,59.96641881,5c05922f4e1b7b00016af702,626b377229c10585ec392f8a,626b3b1bcd2dc8cbf2e4efbe,,,,,,,,,,,,,,,,,,,,,,,,,,,,,,,,,,,,,,,,,,,,,,,,,,,,,I trust the aid,,0.7,0,5,905.3705,0,0,0,0,1,0,,,,
,,001,2022-04-28_20h11.35.601,classification_task,2021.2.3,Win32,59.96641881,5c05922f4e1b7b00016af702,626b377229c10585ec392f8a,626b3b1bcd2dc8cbf2e4efbe,,,,,,,,,,,,,,,,,,,,,,,,,,,,,,,,,,,,,,,,,,,,,,,,,,,,,I have confidence in the advice given by the aid,,0.7,0,4,908.4772,0,0,0,0,1,0,,,,
,,001,2022-04-28_20h11.35.601,classification_task,2021.2.3,Win32,59.96641881,5c05922f4e1b7b00016af702,626b377229c10585ec392f8a,626b3b1bcd2dc8cbf2e4efbe,,,,,,,,,,,,,,,,,,,,,,,,,,,,,,,,,,,,,,,,,,,,,,,,,,,,,I can depend on the aid,,0.7,0,1,910.3538,0,0,0,0,1,0,,,,
,,001,2022-04-28_20h11.35.601,classification_task,2021.2.3,Win32,59.96641881,5c05922f4e1b7b00016af702,626b377229c10585ec392f8a,626b3b1bcd2dc8cbf2e4efbe,,,,,,,,,,,,,,,,,,,,,,,,,,,,,,,,,,,,,,,,,,,,,,,,,,,,,I can rely on the aid to behave in consistent ways,,0.7,0,4,915.505,0,0,0,0,1,0,,,,
,,001,2022-04-28_20h11.35.601,classification_task,2021.2.3,Win32,59.96641881,5c05922f4e1b7b00016af702,626b377229c10585ec392f8a,626b3b1bcd2dc8cbf2e4efbe,,,,,,,,,,,,,,,,,,,,,,,,,,,,,,,,,,,,,,,,,,,,,,,,,,,,,I can rely on the aid to do its best every time I take its advice,,0.7,0,2,919.6301,0,0,0,0,1,0,,,,
,,001,2022-04-28_20h11.35.601,classification_task,2021.2.3,Win32,59.96641881,5c05922f4e1b7b00016af702,626b377229c10585ec392f8a,626b3b1bcd2dc8cbf2e4efbe,,,,,,,,,,,,,,,,,,,,,,,,,,,,,,,,,,,,,,,,,,,,,,,,,,,,,"On trials you completed with assistance from the aid, how frequently did you think the aid was correct?",,0.7,0,80%,,0,0,0,0,1,0,,,,
,,001,2022-04-28_20h11.35.601,classification_task,2021.2.3,Win32,59.96641881,5c05922f4e1b7b00016af702,626b377229c10585ec392f8a,626b3b1bcd2dc8cbf2e4efbe,,,,,,,,,,,,,,,,,,,,,,,,,,,,,,,,,,,,,,,,,,,,,,,,,,,,,"On trials you completed without the aid, how frequently did you think you were correct?",,0.7,0,60%,,0,0,0,0,1,0,,,,
,,001,2022-04-28_20h11.35.601,classification_task,2021.2.3,Win32,59.96641881,5c05922f4e1b7b00016af702,626b377229c10585ec392f8a,626b3b1bcd2dc8cbf2e4efbe,,,,,,,,,,,,,,,,,,,,,,,,,,,,,,,,,,,,,,,,,,,,,,,,,,,,,,,,,,,0,0,0,0,1,,,,,
,,001,2022-04-28_20h11.35.601,classification_task,2021.2.3,Win32,59.96641881,5c05922f4e1b7b00016af702,626b377229c10585ec392f8a,626b3b1bcd2dc8cbf2e4efbe,,,,,,,,,,,,,,,,,,,,,,,,,,,,,,,,,,,,,,,,,,,,,,,,,,,,,,,,,,,,,,,,,space,14.0691,966.3633,
,,001,2022-04-28_20h11.35.601,classification_task,2021.2.3,Win32,59.96641881,5c05922f4e1b7b00016af702,626b377229c10585ec392f8a,626b3b1bcd2dc8cbf2e4efbe,,,,,,,,,,,,,,,,,,,,,,,,,,,,,,,,,,,,,,,,,,,,,,,,,,,,,,,,,,,,,,,,,,,,"Mozilla/5.0 (Windows NT 10.0; Win64; x64) AppleWebKit/537.36 (KHTML, like Gecko) Chrome/101.0.4951.41 Safari/537.36"
