usingWebGL,participant,session,date,expName,psychopyVersion,OS,frameRate,PROLIFIC_PID,STUDY_ID,SESSION_ID,signatures_friend,signatures_foe,band_ranges_top,band_ranges_bottom,formitemText,formtype,formundefined,formitemWidth,formindex,formresponse,formrt,key_resp_2.keys,key_resp_2.rt,tute_resp.keys,tute_resp.rt,tutorial.thisRepN,tutorial.thisTrialN,tutorial.thisN,tutorial.thisIndex,tutorial.ran,key_resp_4.keys,key_resp_4.rt,key_resp.keys,key_resp.corr,key_resp.rt,lines_presented,is_signal_presented,trials.thisRepN,trials.thisTrialN,trials.thisN,trials.thisIndex,trials.ran,vessel,active_band,lines,is_signal,supported_pos,catch_trial,debrief_formindex,debrief_formitemText,debrief_formtype,debrief_formitemWidth,debrief_formresponse,debrief_formrt,phases.thisRepN,phases.thisTrialN,phases.thisN,phases.thisIndex,phases.ran,phases.order,phase,key_resp_3.keys,trustitemText,trusttype,trustitemWidth,trustindex,trustresponse,trustrt,support_status.thisRepN,support_status.thisTrialN,support_status.thisN,support_status.thisIndex,support_status.ran,support_status.order,key_resp_5.keys,key_resp_5.rt,globalClockTime,userAgent
TRUE,,001,2022-04-29_03h08.24.011,classification_task,2021.2.3,Win32,59.87665409,6132e5153e35f97034184f7f,626b377229c10585ec392f89,626b3a238435957963ffee05,,,,,,,,,,,,,,,,,,,,,,,,,,,,,,,,,,,,,,,,,,,,,,,,,,,,,,,,,,,,,,,,,,,,
,,001,2022-04-29_03h08.24.011,classification_task,2021.2.3,Win32,59.87665409,6132e5153e35f97034184f7f,626b377229c10585ec392f89,626b3a238435957963ffee05,"[[""0.219"",""0.527"",""0.844"",""0.969""],[""0.176"",""0.484"",""0.877"",""0.915""]]","[[""0.109"",""0.375"",""0.608"",""0.692""],[""0.050"",""0.272"",""0.439"",""0.766""]]","[1,10]","[100,1000]",Video game experience,,,0.7,0,,,,,,,,,,,,,,,,,,,,,,,,,,,,,,,,,,,,,,,,,,,,,,,,,,,,,,,,,,,
,,001,2022-04-29_03h08.24.011,classification_task,2021.2.3,Win32,59.87665409,6132e5153e35f97034184f7f,626b377229c10585ec392f89,626b3a238435957963ffee05,,,,,Approximately how many hours did you spend playing video games in the last week?,,,0.7,0,6,,,,,,,,,,,,,,,,,,,,,,,,,,,,,,,,,,,,,,,,,,,,,,,,,,,,,,,,,,
,,001,2022-04-29_03h08.24.011,classification_task,2021.2.3,Win32,59.87665409,6132e5153e35f97034184f7f,626b377229c10585ec392f89,626b3a238435957963ffee05,,,,,"Which game did you play the most this year? (Enter ""None"" if you didn't play any)",,,0.7,0,Fifa 2021,,,,,,,,,,,,,,,,,,,,,,,,,,,,,,,,,,,,,,,,,,,,,,,,,,,,,,,,,,
,,001,2022-04-29_03h08.24.011,classification_task,2021.2.3,Win32,59.87665409,6132e5153e35f97034184f7f,626b377229c10585ec392f89,626b3a238435957963ffee05,,,,,Visual perception,,,0.7,0,,,,,,,,,,,,,,,,,,,,,,,,,,,,,,,,,,,,,,,,,,,,,,,,,,,,,,,,,,,
,,001,2022-04-29_03h08.24.011,classification_task,2021.2.3,Win32,59.87665409,6132e5153e35f97034184f7f,626b377229c10585ec392f89,626b3a238435957963ffee05,,,,,Do you have any form of color blindness?,,,0.7,0,No,39.8196,,,,,,,,,,,,,,,,,,,,,,,,,,,,,,,,,,,,,,,,,,,,,,,,,,,,,,,,,
,,001,2022-04-29_03h08.24.011,classification_task,2021.2.3,Win32,59.87665409,6132e5153e35f97034184f7f,626b377229c10585ec392f89,626b3a238435957963ffee05,,,,,Do you use software to change the colour temperature of your screen (e.g. f.lux)?,,,0.7,0,No,46.8127,,,,,,,,,,,,,,,,,,,,,,,,,,,,,,,,,,,,,,,,,,,,,,,,,,,,,,,,,
,,001,2022-04-29_03h08.24.011,classification_task,2021.2.3,Win32,59.87665409,6132e5153e35f97034184f7f,626b377229c10585ec392f89,626b3a238435957963ffee05,,,,,,,,,,,,space,68.2279,space,23.8166,0,0,0,0,1,,,,,,,,,,,,,,,,,,,,,,,,,,,,,,,,,,,,,,,,,,,,,,,,
,,001,2022-04-29_03h08.24.011,classification_task,2021.2.3,Win32,59.87665409,6132e5153e35f97034184f7f,626b377229c10585ec392f89,626b3a238435957963ffee05,,,,,,,,,,,,,,space,11.1626,1,0,1,0,1,,,,,,,,,,,,,,,,,,,,,,,,,,,,,,,,,,,,,,,,,,,,,,,,
,,001,2022-04-29_03h08.24.011,classification_task,2021.2.3,Win32,59.87665409,6132e5153e35f97034184f7f,626b377229c10585ec392f89,626b3a238435957963ffee05,,,,,,,,,,,,,,space,47.465,2,0,2,0,1,,,,,,,,,,,,,,,,,,,,,,,,,,,,,,,,,,,,,,,,,,,,,,,,
,,001,2022-04-29_03h08.24.011,classification_task,2021.2.3,Win32,59.87665409,6132e5153e35f97034184f7f,626b377229c10585ec392f89,626b3a238435957963ffee05,,,,,,,,,,,,,,space,18.3316,3,0,3,0,1,,,,,,,,,,,,,,,,,,,,,,,,,,,,,,,,,,,,,,,,,,,,,,,,
,,001,2022-04-29_03h08.24.011,classification_task,2021.2.3,Win32,59.87665409,6132e5153e35f97034184f7f,626b377229c10585ec392f89,626b3a238435957963ffee05,,,,,,,,,,,,,,space,27.8315,4,0,4,0,1,,,,,,,,,,,,,,,,,,,,,,,,,,,,,,,,,,,,,,,,,,,,,,,,
,,001,2022-04-29_03h08.24.011,classification_task,2021.2.3,Win32,59.87665409,6132e5153e35f97034184f7f,626b377229c10585ec392f89,626b3a238435957963ffee05,,,,,,,,,,,,,,,,,,,,,space,32.1709,a,1,9.7789,"[""0.219"",""0.324"",""0.844"",""0.969""]","[1,0,1,1]",0,0,0,0,1,0,0,,,0,FALSE,,,,,,,,,,,,,,,,,,,,,,,,,,,,,,
,,001,2022-04-29_03h08.24.011,classification_task,2021.2.3,Win32,59.87665409,6132e5153e35f97034184f7f,626b377229c10585ec392f89,626b3a238435957963ffee05,,,,,,,,,,,,,,,,,,,,,,,a,1,5.2358,"[""0.219"",""0.527"",""0.844"",""0.340""]","[1,1,1,0]",0,1,1,1,1,0,0,,,0,FALSE,,,,,,,,,,,,,,,,,,,,,,,,,,,,,,
,,001,2022-04-29_03h08.24.011,classification_task,2021.2.3,Win32,59.87665409,6132e5153e35f97034184f7f,626b377229c10585ec392f89,626b3a238435957963ffee05,,,,,,,,,,,,,,,,,,,,,,,l,1,4.6339,"[""0.050"",""0.272"",""0.439"",""0.657""]","[1,1,1,0]",0,2,2,2,1,1,1,,,0,FALSE,,,,,,,,,,,,,,,,,,,,,,,,,,,,,,
,,001,2022-04-29_03h08.24.011,classification_task,2021.2.3,Win32,59.87665409,6132e5153e35f97034184f7f,626b377229c10585ec392f89,626b3a238435957963ffee05,,,,,,,,,,,,,,,,,,,,,,,l,1,4.4561,"[""0.050"",""0.327"",""0.439"",""0.766""]","[1,0,1,1]",0,3,3,3,1,1,1,,,0,FALSE,,,,,,,,,,,,,,,,,,,,,,,,,,,,,,
,,001,2022-04-29_03h08.24.011,classification_task,2021.2.3,Win32,59.87665409,6132e5153e35f97034184f7f,626b377229c10585ec392f89,626b3a238435957963ffee05,,,,,,,,,,,,,,,,,,,,,,,a,1,4.2395,"[""0.176"",""0.565"",""0.877"",""0.915""]","[1,0,1,1]",0,4,4,4,1,0,1,,,0,FALSE,,,,,,,,,,,,,,,,,,,,,,,,,,,,,,
,,001,2022-04-29_03h08.24.011,classification_task,2021.2.3,Win32,59.87665409,6132e5153e35f97034184f7f,626b377229c10585ec392f89,626b3a238435957963ffee05,,,,,,,,,,,,,,,,,,,,,,,a,1,3.7232,"[""0.176"",""0.484"",""0.877"",""0.574""]","[1,1,1,0]",0,5,5,5,1,0,1,,,0,FALSE,,,,,,,,,,,,,,,,,,,,,,,,,,,,,,
,,001,2022-04-29_03h08.24.011,classification_task,2021.2.3,Win32,59.87665409,6132e5153e35f97034184f7f,626b377229c10585ec392f89,626b3a238435957963ffee05,,,,,,,,,,,,,,,,,,,,,,,l,1,4.8187,"[""0.657"",""0.375"",""0.608"",""0.692""]","[0,1,1,1]",0,6,6,6,1,1,0,,,0,FALSE,,,,,,,,,,,,,,,,,,,,,,,,,,,,,,
,,001,2022-04-29_03h08.24.011,classification_task,2021.2.3,Win32,59.87665409,6132e5153e35f97034184f7f,626b377229c10585ec392f89,626b3a238435957963ffee05,,,,,,,,,,,,,,,,,,,,,,,l,1,5.2131,"[""0.312"",""0.272"",""0.439"",""0.766""]","[0,1,1,1]",0,7,7,7,1,1,1,,,0,FALSE,,,,,,,,,,,,,,,,,,,,,,,,,,,,,,
,,001,2022-04-29_03h08.24.011,classification_task,2021.2.3,Win32,59.87665409,6132e5153e35f97034184f7f,626b377229c10585ec392f89,626b3a238435957963ffee05,,,,,,,,,,,,,,,,,,,,,,,l,1,3.8133,"[""0.109"",""0.375"",""0.339"",""0.692""]","[1,1,0,1]",0,8,8,8,1,1,0,,,0,FALSE,,,,,,,,,,,,,,,,,,,,,,,,,,,,,,
,,001,2022-04-29_03h08.24.011,classification_task,2021.2.3,Win32,59.87665409,6132e5153e35f97034184f7f,626b377229c10585ec392f89,626b3a238435957963ffee05,,,,,,,,,,,,,,,,,,,,,,,l,1,3.1009,"[""0.109"",""0.375"",""0.608"",""0.652""]","[1,1,1,0]",0,9,9,9,1,1,0,,,0,FALSE,,,,,,,,,,,,,,,,,,,,,,,,,,,,,,
,,001,2022-04-29_03h08.24.011,classification_task,2021.2.3,Win32,59.87665409,6132e5153e35f97034184f7f,626b377229c10585ec392f89,626b3a238435957963ffee05,,,,,,,,,,,,,,,,,,,,,,,a,1,3.3439,"[""0.176"",""0.484"",""0.565"",""0.915""]","[1,1,0,1]",0,10,10,10,1,0,1,,,0,FALSE,,,,,,,,,,,,,,,,,,,,,,,,,,,,,,
,,001,2022-04-29_03h08.24.011,classification_task,2021.2.3,Win32,59.87665409,6132e5153e35f97034184f7f,626b377229c10585ec392f89,626b3a238435957963ffee05,,,,,,,,,,,,,,,,,,,,,,,a,1,3.7454,"[""0.802"",""0.527"",""0.844"",""0.969""]","[0,1,1,1]",0,11,11,11,1,0,0,,,0,FALSE,,,,,,,,,,,,,,,,,,,,,,,,,,,,,,
,,001,2022-04-29_03h08.24.011,classification_task,2021.2.3,Win32,59.87665409,6132e5153e35f97034184f7f,626b377229c10585ec392f89,626b3a238435957963ffee05,,,,,,,,,,,,,,,,,,,,,,,l,1,4.1113,"[""0.050"",""0.272"",""0.339"",""0.766""]","[1,1,0,1]",0,12,12,12,1,1,1,,,0,FALSE,,,,,,,,,,,,,,,,,,,,,,,,,,,,,,
,,001,2022-04-29_03h08.24.011,classification_task,2021.2.3,Win32,59.87665409,6132e5153e35f97034184f7f,626b377229c10585ec392f89,626b3a238435957963ffee05,,,,,,,,,,,,,,,,,,,,,,,l,1,2.8971,"[""0.109"",""0.564"",""0.608"",""0.692""]","[1,0,1,1]",0,13,13,13,1,1,0,,,0,FALSE,,,,,,,,,,,,,,,,,,,,,,,,,,,,,,
,,001,2022-04-29_03h08.24.011,classification_task,2021.2.3,Win32,59.87665409,6132e5153e35f97034184f7f,626b377229c10585ec392f89,626b3a238435957963ffee05,,,,,,,,,,,,,,,,,,,,,,,a,1,3.5841,"[""0.219"",""0.527"",""0.340"",""0.969""]","[1,1,0,1]",0,14,14,14,1,0,0,,,0,FALSE,,,,,,,,,,,,,,,,,,,,,,,,,,,,,,
,,001,2022-04-29_03h08.24.011,classification_task,2021.2.3,Win32,59.87665409,6132e5153e35f97034184f7f,626b377229c10585ec392f89,626b3a238435957963ffee05,,,,,,,,,,,,,,,,,,,,,,,,0,,"[""0.652"",""0.484"",""0.877"",""0.915""]","[0,1,1,1]",0,15,15,15,1,0,1,,,0,FALSE,,,,,,,,,,,,,,,,,,,,,,,,,,,,,,
,,001,2022-04-29_03h08.24.011,classification_task,2021.2.3,Win32,59.87665409,6132e5153e35f97034184f7f,626b377229c10585ec392f89,626b3a238435957963ffee05,,,,,,,,,,,,,,,,,,,,,,,a,0,3.6841,"[""0.339"",""0.272"",""0.439"",""0.766""]","[0,1,1,1]",0,16,16,16,1,1,1,,,0,FALSE,,,,,,,,,,,,,,,,,,,,,,,,,,,,,,
,,001,2022-04-29_03h08.24.011,classification_task,2021.2.3,Win32,59.87665409,6132e5153e35f97034184f7f,626b377229c10585ec392f89,626b3a238435957963ffee05,,,,,,,,,,,,,,,,,,,,,,,a,0,2.715,"[""0.109"",""0.375"",""0.608"",""0.565""]","[1,1,1,0]",0,17,17,17,1,1,0,,,0,FALSE,,,,,,,,,,,,,,,,,,,,,,,,,,,,,,
,,001,2022-04-29_03h08.24.011,classification_task,2021.2.3,Win32,59.87665409,6132e5153e35f97034184f7f,626b377229c10585ec392f89,626b3a238435957963ffee05,,,,,,,,,,,,,,,,,,,,,,,a,1,3.1339,"[""0.324"",""0.527"",""0.844"",""0.969""]","[0,1,1,1]",0,18,18,18,1,0,0,,,0,FALSE,,,,,,,,,,,,,,,,,,,,,,,,,,,,,,
,,001,2022-04-29_03h08.24.011,classification_task,2021.2.3,Win32,59.87665409,6132e5153e35f97034184f7f,626b377229c10585ec392f89,626b3a238435957963ffee05,,,,,,,,,,,,,,,,,,,,,,,l,0,3.7486,"[""0.340"",""0.484"",""0.877"",""0.915""]","[0,1,1,1]",0,19,19,19,1,0,1,,,0,FALSE,,,,,,,,,,,,,,,,,,,,,,,,,,,,,,
,,001,2022-04-29_03h08.24.011,classification_task,2021.2.3,Win32,59.87665409,6132e5153e35f97034184f7f,626b377229c10585ec392f89,626b3a238435957963ffee05,,,,,,,,,,,,,,,,,,,,,,,a,1,2.6645,"[""0.219"",""0.527"",""0.564"",""0.969""]","[1,1,0,1]",0,20,20,20,1,0,0,,,0,FALSE,,,,,,,,,,,,,,,,,,,,,,,,,,,,,,
,,001,2022-04-29_03h08.24.011,classification_task,2021.2.3,Win32,59.87665409,6132e5153e35f97034184f7f,626b377229c10585ec392f89,626b3a238435957963ffee05,,,,,,,,,,,,,,,,,,,,,,,l,1,3.1131,"[""0.050"",""0.272"",""0.324"",""0.766""]","[1,1,0,1]",0,21,21,21,1,1,1,,,0,FALSE,,,,,,,,,,,,,,,,,,,,,,,,,,,,,,
,,001,2022-04-29_03h08.24.011,classification_task,2021.2.3,Win32,59.87665409,6132e5153e35f97034184f7f,626b377229c10585ec392f89,626b3a238435957963ffee05,,,,,,,,,,,,,,,,,,,,,,,l,1,3.1479,"[""0.109"",""0.339"",""0.608"",""0.692""]","[1,0,1,1]",0,22,22,22,1,1,0,,,0,FALSE,,,,,,,,,,,,,,,,,,,,,,,,,,,,,,
,,001,2022-04-29_03h08.24.011,classification_task,2021.2.3,Win32,59.87665409,6132e5153e35f97034184f7f,626b377229c10585ec392f89,626b3a238435957963ffee05,,,,,,,,,,,,,,,,,,,,,,,a,1,3.031,"[""0.176"",""0.484"",""0.802"",""0.915""]","[1,1,0,1]",0,23,23,23,1,0,1,,,0,FALSE,,,,,,,,,,,,,,,,,,,,,,,,,,,,,,
,,001,2022-04-29_03h08.24.011,classification_task,2021.2.3,Win32,59.87665409,6132e5153e35f97034184f7f,626b377229c10585ec392f89,626b3a238435957963ffee05,,,,,,,,,,,,,,,,,,,,,,,l,1,3.0843,"[""0.050"",""0.327"",""0.439"",""0.766""]","[1,0,1,1]",0,24,24,24,1,1,1,,,0,FALSE,,,,,,,,,,,,,,,,,,,,,,,,,,,,,,
,,001,2022-04-29_03h08.24.011,classification_task,2021.2.3,Win32,59.87665409,6132e5153e35f97034184f7f,626b377229c10585ec392f89,626b3a238435957963ffee05,,,,,,,,,,,,,,,,,,,,,,,a,1,2.9304,"[""0.219"",""0.574"",""0.844"",""0.969""]","[1,0,1,1]",0,25,25,25,1,0,0,,,0,FALSE,,,,,,,,,,,,,,,,,,,,,,,,,,,,,,
,,001,2022-04-29_03h08.24.011,classification_task,2021.2.3,Win32,59.87665409,6132e5153e35f97034184f7f,626b377229c10585ec392f89,626b3a238435957963ffee05,,,,,,,,,,,,,,,,,,,,,,,l,1,2.9011,"[""0.333"",""0.375"",""0.608"",""0.692""]","[0,1,1,1]",0,26,26,26,1,1,0,,,0,FALSE,,,,,,,,,,,,,,,,,,,,,,,,,,,,,,
,,001,2022-04-29_03h08.24.011,classification_task,2021.2.3,Win32,59.87665409,6132e5153e35f97034184f7f,626b377229c10585ec392f89,626b3a238435957963ffee05,,,,,,,,,,,,,,,,,,,,,,,a,1,2.8159,"[""0.219"",""0.527"",""0.844"",""0.652""]","[1,1,1,0]",0,27,27,27,1,0,0,,,0,FALSE,,,,,,,,,,,,,,,,,,,,,,,,,,,,,,
,,001,2022-04-29_03h08.24.011,classification_task,2021.2.3,Win32,59.87665409,6132e5153e35f97034184f7f,626b377229c10585ec392f89,626b3a238435957963ffee05,,,,,,,,,,,,,,,,,,,,,,,l,1,2.2175,"[""0.109"",""0.375"",""0.340"",""0.692""]","[1,1,0,1]",0,28,28,28,1,1,0,,,0,FALSE,,,,,,,,,,,,,,,,,,,,,,,,,,,,,,
,,001,2022-04-29_03h08.24.011,classification_task,2021.2.3,Win32,59.87665409,6132e5153e35f97034184f7f,626b377229c10585ec392f89,626b3a238435957963ffee05,,,,,,,,,,,,,,,,,,,,,,,a,1,3.615,"[""0.176"",""0.484"",""0.877"",""0.324""]","[1,1,1,0]",0,29,29,29,1,0,1,,,0,FALSE,,,,,,,,,,,,,,,,,,,,,,,,,,,,,,
,,001,2022-04-29_03h08.24.011,classification_task,2021.2.3,Win32,59.87665409,6132e5153e35f97034184f7f,626b377229c10585ec392f89,626b3a238435957963ffee05,,,,,,,,,,,,,,,,,,,,,,,l,1,2.6331,"[""0.050"",""0.272"",""0.439"",""0.564""]","[1,1,1,0]",0,30,30,30,1,1,1,,,0,FALSE,,,,,,,,,,,,,,,,,,,,,,,,,,,,,,
,,001,2022-04-29_03h08.24.011,classification_task,2021.2.3,Win32,59.87665409,6132e5153e35f97034184f7f,626b377229c10585ec392f89,626b3a238435957963ffee05,,,,,,,,,,,,,,,,,,,,,,,a,1,3.0005,"[""0.176"",""0.572"",""0.877"",""0.915""]","[1,0,1,1]",0,31,31,31,1,0,1,,,0,FALSE,,,,,,,,,,,,,,,,,,,,,,,,,,,,,,
,,001,2022-04-29_03h08.24.011,classification_task,2021.2.3,Win32,59.87665409,6132e5153e35f97034184f7f,626b377229c10585ec392f89,626b3a238435957963ffee05,,,,,,,,,,,,,,,,,,,,,,,a,0,4.7803,"[""0.109"",""0.340"",""0.608"",""0.692""]","[1,0,1,1]",0,32,32,32,1,1,0,,,0,FALSE,,,,,,,,,,,,,,,,,,,,,,,,,,,,,,
,,001,2022-04-29_03h08.24.011,classification_task,2021.2.3,Win32,59.87665409,6132e5153e35f97034184f7f,626b377229c10585ec392f89,626b3a238435957963ffee05,,,,,,,,,,,,,,,,,,,,,,,l,1,4.1512,"[""0.050"",""0.339"",""0.439"",""0.766""]","[1,0,1,1]",0,33,33,33,1,1,1,,,0,FALSE,,,,,,,,,,,,,,,,,,,,,,,,,,,,,,
,,001,2022-04-29_03h08.24.011,classification_task,2021.2.3,Win32,59.87665409,6132e5153e35f97034184f7f,626b377229c10585ec392f89,626b3a238435957963ffee05,,,,,,,,,,,,,,,,,,,,,,,l,1,4.7343,"[""0.324"",""0.272"",""0.439"",""0.766""]","[0,1,1,1]",0,34,34,34,1,1,1,,,0,FALSE,,,,,,,,,,,,,,,,,,,,,,,,,,,,,,
,,001,2022-04-29_03h08.24.011,classification_task,2021.2.3,Win32,59.87665409,6132e5153e35f97034184f7f,626b377229c10585ec392f89,626b3a238435957963ffee05,,,,,,,,,,,,,,,,,,,,,,,a,1,4.0665,"[""0.176"",""0.333"",""0.877"",""0.915""]","[1,0,1,1]",0,35,35,35,1,0,1,,,0,FALSE,,,,,,,,,,,,,,,,,,,,,,,,,,,,,,
,,001,2022-04-29_03h08.24.011,classification_task,2021.2.3,Win32,59.87665409,6132e5153e35f97034184f7f,626b377229c10585ec392f89,626b3a238435957963ffee05,,,,,,,,,,,,,,,,,,,,,,,a,1,3.9005,"[""0.802"",""0.527"",""0.844"",""0.969""]","[0,1,1,1]",0,36,36,36,1,0,0,,,0,FALSE,,,,,,,,,,,,,,,,,,,,,,,,,,,,,,
,,001,2022-04-29_03h08.24.011,classification_task,2021.2.3,Win32,59.87665409,6132e5153e35f97034184f7f,626b377229c10585ec392f89,626b3a238435957963ffee05,,,,,,,,,,,,,,,,,,,,,,,l,0,2.3833,"[""0.176"",""0.484"",""0.877"",""0.340""]","[1,1,1,0]",0,37,37,37,1,0,1,,,0,FALSE,,,,,,,,,,,,,,,,,,,,,,,,,,,,,,
,,001,2022-04-29_03h08.24.011,classification_task,2021.2.3,Win32,59.87665409,6132e5153e35f97034184f7f,626b377229c10585ec392f89,626b3a238435957963ffee05,,,,,,,,,,,,,,,,,,,,,,,a,0,1.5975,"[""0.340"",""0.375"",""0.608"",""0.692""]","[0,1,1,1]",0,38,38,38,1,1,0,,,0,FALSE,,,,,,,,,,,,,,,,,,,,,,,,,,,,,,
,,001,2022-04-29_03h08.24.011,classification_task,2021.2.3,Win32,59.87665409,6132e5153e35f97034184f7f,626b377229c10585ec392f89,626b3a238435957963ffee05,,,,,,,,,,,,,,,,,,,,,,,l,1,1.5007,"[""0.050"",""0.272"",""0.439"",""0.340""]","[1,1,1,0]",0,39,39,39,1,1,1,,,0,FALSE,,,,,,,,,,,,,,,,,,,,,,,,,,,,,,
,,001,2022-04-29_03h08.24.011,classification_task,2021.2.3,Win32,59.87665409,6132e5153e35f97034184f7f,626b377229c10585ec392f89,626b3a238435957963ffee05,,,,,,,,,,,,,,,,,,,,,,,a,1,2.0169,"[""0.219"",""0.527"",""0.574"",""0.969""]","[1,1,0,1]",0,40,40,40,1,0,0,,,0,FALSE,,,,,,,,,,,,,,,,,,,,,,,,,,,,,,
,,001,2022-04-29_03h08.24.011,classification_task,2021.2.3,Win32,59.87665409,6132e5153e35f97034184f7f,626b377229c10585ec392f89,626b3a238435957963ffee05,,,,,,,,,,,,,,,,,,,,,,,a,1,2.3488,"[""0.657"",""0.484"",""0.877"",""0.915""]","[0,1,1,1]",0,41,41,41,1,0,1,,,0,FALSE,,,,,,,,,,,,,,,,,,,,,,,,,,,,,,
,,001,2022-04-29_03h08.24.011,classification_task,2021.2.3,Win32,59.87665409,6132e5153e35f97034184f7f,626b377229c10585ec392f89,626b3a238435957963ffee05,,,,,,,,,,,,,,,,,,,,,,,l,1,2.0342,"[""0.109"",""0.375"",""0.802"",""0.692""]","[1,1,0,1]",0,42,42,42,1,1,0,,,0,FALSE,,,,,,,,,,,,,,,,,,,,,,,,,,,,,,
,,001,2022-04-29_03h08.24.011,classification_task,2021.2.3,Win32,59.87665409,6132e5153e35f97034184f7f,626b377229c10585ec392f89,626b3a238435957963ffee05,,,,,,,,,,,,,,,,,,,,,,,a,1,2.2678,"[""0.176"",""0.484"",""0.802"",""0.915""]","[1,1,0,1]",0,43,43,43,1,0,1,,,0,FALSE,,,,,,,,,,,,,,,,,,,,,,,,,,,,,,
,,001,2022-04-29_03h08.24.011,classification_task,2021.2.3,Win32,59.87665409,6132e5153e35f97034184f7f,626b377229c10585ec392f89,626b3a238435957963ffee05,,,,,,,,,,,,,,,,,,,,,,,l,0,1.9826,"[""0.219"",""0.802"",""0.844"",""0.969""]","[1,0,1,1]",0,44,44,44,1,0,0,,,0,FALSE,,,,,,,,,,,,,,,,,,,,,,,,,,,,,,
,,001,2022-04-29_03h08.24.011,classification_task,2021.2.3,Win32,59.87665409,6132e5153e35f97034184f7f,626b377229c10585ec392f89,626b3a238435957963ffee05,,,,,,,,,,,,,,,,,,,,,,,a,1,1.4999,"[""0.219"",""0.527"",""0.844"",""0.338""]","[1,1,1,0]",0,45,45,45,1,0,0,,,0,FALSE,,,,,,,,,,,,,,,,,,,,,,,,,,,,,,
,,001,2022-04-29_03h08.24.011,classification_task,2021.2.3,Win32,59.87665409,6132e5153e35f97034184f7f,626b377229c10585ec392f89,626b3a238435957963ffee05,,,,,,,,,,,,,,,,,,,,,,,l,1,1.784,"[""0.050"",""0.272"",""0.339"",""0.766""]","[1,1,0,1]",0,46,46,46,1,1,1,,,0,FALSE,,,,,,,,,,,,,,,,,,,,,,,,,,,,,,
,,001,2022-04-29_03h08.24.011,classification_task,2021.2.3,Win32,59.87665409,6132e5153e35f97034184f7f,626b377229c10585ec392f89,626b3a238435957963ffee05,,,,,,,,,,,,,,,,,,,,,,,a,0,2.9838,"[""0.109"",""0.375"",""0.608"",""0.312""]","[1,1,1,0]",0,47,47,47,1,1,0,,,0,FALSE,,,,,,,,,,,,,,,,,,,,,,,,,,,,,,
,,001,2022-04-29_03h08.24.011,classification_task,2021.2.3,Win32,59.87665409,6132e5153e35f97034184f7f,626b377229c10585ec392f89,626b3a238435957963ffee05,,,,,,,,,,,,,,,,,,,,,,,a,0,1.2008,"[""0.340"",""0.272"",""0.439"",""0.766""]","[0,1,1,1]",0,48,48,48,1,1,1,,,0,FALSE,,,,,,,,,,,,,,,,,,,,,,,,,,,,,,
,,001,2022-04-29_03h08.24.011,classification_task,2021.2.3,Win32,59.87665409,6132e5153e35f97034184f7f,626b377229c10585ec392f89,626b3a238435957963ffee05,,,,,,,,,,,,,,,,,,,,,,,l,1,1.2669,"[""0.050"",""0.272"",""0.439"",""0.340""]","[1,1,1,0]",0,49,49,49,1,1,1,,,0,FALSE,,,,,,,,,,,,,,,,,,,,,,,,,,,,,,
,,001,2022-04-29_03h08.24.011,classification_task,2021.2.3,Win32,59.87665409,6132e5153e35f97034184f7f,626b377229c10585ec392f89,626b3a238435957963ffee05,,,,,,,,,,,,,,,,,,,,,,,a,0,1.1508,"[""0.109"",""0.375"",""0.574"",""0.692""]","[1,1,0,1]",0,50,50,50,1,1,0,,,0,FALSE,,,,,,,,,,,,,,,,,,,,,,,,,,,,,,
,,001,2022-04-29_03h08.24.011,classification_task,2021.2.3,Win32,59.87665409,6132e5153e35f97034184f7f,626b377229c10585ec392f89,626b3a238435957963ffee05,,,,,,,,,,,,,,,,,,,,,,,a,1,1.0151,"[""0.657"",""0.527"",""0.844"",""0.969""]","[0,1,1,1]",0,51,51,51,1,0,0,,,0,FALSE,,,,,,,,,,,,,,,,,,,,,,,,,,,,,,
,,001,2022-04-29_03h08.24.011,classification_task,2021.2.3,Win32,59.87665409,6132e5153e35f97034184f7f,626b377229c10585ec392f89,626b3a238435957963ffee05,,,,,,,,,,,,,,,,,,,,,,,l,1,1.2171,"[""0.109"",""0.375"",""0.608"",""0.340""]","[1,1,1,0]",0,52,52,52,1,1,0,,,0,FALSE,,,,,,,,,,,,,,,,,,,,,,,,,,,,,,
,,001,2022-04-29_03h08.24.011,classification_task,2021.2.3,Win32,59.87665409,6132e5153e35f97034184f7f,626b377229c10585ec392f89,626b3a238435957963ffee05,,,,,,,,,,,,,,,,,,,,,,,l,0,1.1666,"[""0.219"",""0.527"",""0.844"",""0.652""]","[1,1,1,0]",0,53,53,53,1,0,0,,,0,FALSE,,,,,,,,,,,,,,,,,,,,,,,,,,,,,,
,,001,2022-04-29_03h08.24.011,classification_task,2021.2.3,Win32,59.87665409,6132e5153e35f97034184f7f,626b377229c10585ec392f89,626b3a238435957963ffee05,,,,,,,,,,,,,,,,,,,,,,,a,1,1.7505,"[""0.176"",""0.564"",""0.877"",""0.915""]","[1,0,1,1]",0,54,54,54,1,0,1,,,0,FALSE,,,,,,,,,,,,,,,,,,,,,,,,,,,,,,
,,001,2022-04-29_03h08.24.011,classification_task,2021.2.3,Win32,59.87665409,6132e5153e35f97034184f7f,626b377229c10585ec392f89,626b3a238435957963ffee05,,,,,,,,,,,,,,,,,,,,,,,a,1,1.2834,"[""0.176"",""0.484"",""0.877"",""0.652""]","[1,1,1,0]",0,55,55,55,1,0,1,,,0,FALSE,,,,,,,,,,,,,,,,,,,,,,,,,,,,,,
,,001,2022-04-29_03h08.24.011,classification_task,2021.2.3,Win32,59.87665409,6132e5153e35f97034184f7f,626b377229c10585ec392f89,626b3a238435957963ffee05,,,,,,,,,,,,,,,,,,,,,,,l,0,0.9006,"[""0.219"",""0.527"",""0.340"",""0.969""]","[1,1,0,1]",0,56,56,56,1,0,0,,,0,FALSE,,,,,,,,,,,,,,,,,,,,,,,,,,,,,,
,,001,2022-04-29_03h08.24.011,classification_task,2021.2.3,Win32,59.87665409,6132e5153e35f97034184f7f,626b377229c10585ec392f89,626b3a238435957963ffee05,,,,,,,,,,,,,,,,,,,,,,,a,0,2.7003,"[""0.109"",""0.572"",""0.608"",""0.692""]","[1,0,1,1]",0,57,57,57,1,1,0,,,0,FALSE,,,,,,,,,,,,,,,,,,,,,,,,,,,,,,
,,001,2022-04-29_03h08.24.011,classification_task,2021.2.3,Win32,59.87665409,6132e5153e35f97034184f7f,626b377229c10585ec392f89,626b3a238435957963ffee05,,,,,,,,,,,,,,,,,,,,,,,a,0,1.7024,"[""0.572"",""0.375"",""0.608"",""0.692""]","[0,1,1,1]",0,58,58,58,1,1,0,,,0,FALSE,,,,,,,,,,,,,,,,,,,,,,,,,,,,,,
,,001,2022-04-29_03h08.24.011,classification_task,2021.2.3,Win32,59.87665409,6132e5153e35f97034184f7f,626b377229c10585ec392f89,626b3a238435957963ffee05,,,,,,,,,,,,,,,,,,,,,,,a,1,1.1345,"[""0.219"",""0.340"",""0.844"",""0.969""]","[1,0,1,1]",0,59,59,59,1,0,0,,,0,FALSE,,,,,,,,,,,,,,,,,,,,,,,,,,,,,,
,,001,2022-04-29_03h08.24.011,classification_task,2021.2.3,Win32,59.87665409,6132e5153e35f97034184f7f,626b377229c10585ec392f89,626b3a238435957963ffee05,,,,,,,,,,,,,,,,,,,,,,,l,0,1.3834,"[""0.176"",""0.484"",""0.338"",""0.915""]","[1,1,0,1]",0,60,60,60,1,0,1,,,0,FALSE,,,,,,,,,,,,,,,,,,,,,,,,,,,,,,
,,001,2022-04-29_03h08.24.011,classification_task,2021.2.3,Win32,59.87665409,6132e5153e35f97034184f7f,626b377229c10585ec392f89,626b3a238435957963ffee05,,,,,,,,,,,,,,,,,,,,,,,l,1,1.234,"[""0.050"",""0.652"",""0.439"",""0.766""]","[1,0,1,1]",0,61,61,61,1,1,1,,,0,FALSE,,,,,,,,,,,,,,,,,,,,,,,,,,,,,,
,,001,2022-04-29_03h08.24.011,classification_task,2021.2.3,Win32,59.87665409,6132e5153e35f97034184f7f,626b377229c10585ec392f89,626b3a238435957963ffee05,,,,,,,,,,,,,,,,,,,,,,,l,1,1.3497,"[""0.050"",""0.272"",""0.327"",""0.766""]","[1,1,0,1]",0,62,62,62,1,1,1,,,0,FALSE,,,,,,,,,,,,,,,,,,,,,,,,,,,,,,
,,001,2022-04-29_03h08.24.011,classification_task,2021.2.3,Win32,59.87665409,6132e5153e35f97034184f7f,626b377229c10585ec392f89,626b3a238435957963ffee05,,,,,,,,,,,,,,,,,,,,,,,a,1,1.8333,"[""0.340"",""0.484"",""0.877"",""0.915""]","[0,1,1,1]",0,63,63,63,1,0,1,,,0,FALSE,,,,,,,,,,,,,,,,,,,,,,,,,,,,,,
,,001,2022-04-29_03h08.24.011,classification_task,2021.2.3,Win32,59.87665409,6132e5153e35f97034184f7f,626b377229c10585ec392f89,626b3a238435957963ffee05,,,,,,,,,,,,,,,,,,,,,,,,,,,,,,,,,,,,,,,0, ,,0,,,0,0,0,0,1,2,1,,,,,,,,,,,,,,,,,
,,001,2022-04-29_03h08.24.011,classification_task,2021.2.3,Win32,59.87665409,6132e5153e35f97034184f7f,626b377229c10585ec392f89,626b3a238435957963ffee05,,,,,,,,,,,,,,,,,,,,,,,,,,,,,,,,,,,,,,,1,  ,,0,,,0,0,0,0,1,2,1,,,,,,,,,,,,,,,,,
,,001,2022-04-29_03h08.24.011,classification_task,2021.2.3,Win32,59.87665409,6132e5153e35f97034184f7f,626b377229c10585ec392f89,626b3a238435957963ffee05,,,,,,,,,,,,,,,,,,,,,,,,,,,,,,,,,,,,,,,2,  ,,0,,,0,0,0,0,1,2,1,,,,,,,,,,,,,,,,,
,,001,2022-04-29_03h08.24.011,classification_task,2021.2.3,Win32,59.87665409,6132e5153e35f97034184f7f,626b377229c10585ec392f89,626b3a238435957963ffee05,,,,,,,,,,,,,,,,,,,,,,,,,,,,,,,,,,,,,,,,,,,,,0,0,0,0,1,,1,,,,,,,,,,,,,,,,,
,,001,2022-04-29_03h08.24.011,classification_task,2021.2.3,Win32,59.87665409,6132e5153e35f97034184f7f,626b377229c10585ec392f89,626b3a238435957963ffee05,,,,,,,,,,,,,,,,,,,,,space,17.0435,a,0,4.7664,"[""0.340"",""0.375"",""0.608"",""0.692""]","[0,1,1,1]",0,0,0,0,1,1,0,,,0,FALSE,,,,,,,,,,,,,,,,,,,,,,,,,,,,,,
,,001,2022-04-29_03h08.24.011,classification_task,2021.2.3,Win32,59.87665409,6132e5153e35f97034184f7f,626b377229c10585ec392f89,626b3a238435957963ffee05,,,,,,,,,,,,,,,,,,,,,,,a,1,2.4557,"[""0.176"",""0.484"",""0.877"",""0.565""]","[1,1,1,0]",0,1,1,1,1,0,1,,,0,FALSE,,,,,,,,,,,,,,,,,,,,,,,,,,,,,,
,,001,2022-04-29_03h08.24.011,classification_task,2021.2.3,Win32,59.87665409,6132e5153e35f97034184f7f,626b377229c10585ec392f89,626b3a238435957963ffee05,,,,,,,,,,,,,,,,,,,,,,,a,1,0.7891,"[""0.176"",""0.484"",""0.333"",""0.915""]","[1,1,0,1]",0,2,2,2,1,0,1,,,0,FALSE,,,,,,,,,,,,,,,,,,,,,,,,,,,,,,
,,001,2022-04-29_03h08.24.011,classification_task,2021.2.3,Win32,59.87665409,6132e5153e35f97034184f7f,626b377229c10585ec392f89,626b3a238435957963ffee05,,,,,,,,,,,,,,,,,,,,,,,l,0,0.9866,"[""0.219"",""0.527"",""0.340"",""0.969""]","[1,1,0,1]",0,3,3,3,1,0,0,,,0,FALSE,,,,,,,,,,,,,,,,,,,,,,,,,,,,,,
,,001,2022-04-29_03h08.24.011,classification_task,2021.2.3,Win32,59.87665409,6132e5153e35f97034184f7f,626b377229c10585ec392f89,626b3a238435957963ffee05,,,,,,,,,,,,,,,,,,,,,,,l,1,1.3368,"[""0.050"",""0.338"",""0.439"",""0.766""]","[1,0,1,1]",0,4,4,4,1,1,1,,,0,FALSE,,,,,,,,,,,,,,,,,,,,,,,,,,,,,,
,,001,2022-04-29_03h08.24.011,classification_task,2021.2.3,Win32,59.87665409,6132e5153e35f97034184f7f,626b377229c10585ec392f89,626b3a238435957963ffee05,,,,,,,,,,,,,,,,,,,,,,,l,1,1.1176,"[""0.050"",""0.272"",""0.439"",""0.327""]","[1,1,1,0]",0,5,5,5,1,1,1,,,0,FALSE,,,,,,,,,,,,,,,,,,,,,,,,,,,,,,
,,001,2022-04-29_03h08.24.011,classification_task,2021.2.3,Win32,59.87665409,6132e5153e35f97034184f7f,626b377229c10585ec392f89,626b3a238435957963ffee05,,,,,,,,,,,,,,,,,,,,,,,a,1,1.6345,"[""0.219"",""0.327"",""0.844"",""0.969""]","[1,0,1,1]",0,6,6,6,1,0,0,,,0,FALSE,,,,,,,,,,,,,,,,,,,,,,,,,,,,,,
,,001,2022-04-29_03h08.24.011,classification_task,2021.2.3,Win32,59.87665409,6132e5153e35f97034184f7f,626b377229c10585ec392f89,626b3a238435957963ffee05,,,,,,,,,,,,,,,,,,,,,,,l,1,1.9043,"[""0.565"",""0.272"",""0.439"",""0.766""]","[0,1,1,1]",0,7,7,7,1,1,1,,,0,FALSE,,,,,,,,,,,,,,,,,,,,,,,,,,,,,,
,,001,2022-04-29_03h08.24.011,classification_task,2021.2.3,Win32,59.87665409,6132e5153e35f97034184f7f,626b377229c10585ec392f89,626b3a238435957963ffee05,,,,,,,,,,,,,,,,,,,,,,,a,1,1.5657,"[""0.340"",""0.527"",""0.844"",""0.969""]","[0,1,1,1]",0,8,8,8,1,0,0,,,0,FALSE,,,,,,,,,,,,,,,,,,,,,,,,,,,,,,
,,001,2022-04-29_03h08.24.011,classification_task,2021.2.3,Win32,59.87665409,6132e5153e35f97034184f7f,626b377229c10585ec392f89,626b3a238435957963ffee05,,,,,,,,,,,,,,,,,,,,,,,a,1,1.9679,"[""0.219"",""0.527"",""0.844"",""0.333""]","[1,1,1,0]",0,9,9,9,1,0,0,,,0,FALSE,,,,,,,,,,,,,,,,,,,,,,,,,,,,,,
,,001,2022-04-29_03h08.24.011,classification_task,2021.2.3,Win32,59.87665409,6132e5153e35f97034184f7f,626b377229c10585ec392f89,626b3a238435957963ffee05,,,,,,,,,,,,,,,,,,,,,,,a,0,1.0743,"[""0.109"",""0.327"",""0.608"",""0.692""]","[1,0,1,1]",0,10,10,10,1,1,0,,,0,FALSE,,,,,,,,,,,,,,,,,,,,,,,,,,,,,,
,,001,2022-04-29_03h08.24.011,classification_task,2021.2.3,Win32,59.87665409,6132e5153e35f97034184f7f,626b377229c10585ec392f89,626b3a238435957963ffee05,,,,,,,,,,,,,,,,,,,,,,,l,1,1.1342,"[""0.050"",""0.272"",""0.802"",""0.766""]","[1,1,0,1]",0,11,11,11,1,1,1,,,0,FALSE,,,,,,,,,,,,,,,,,,,,,,,,,,,,,,
,,001,2022-04-29_03h08.24.011,classification_task,2021.2.3,Win32,59.87665409,6132e5153e35f97034184f7f,626b377229c10585ec392f89,626b3a238435957963ffee05,,,,,,,,,,,,,,,,,,,,,,,a,1,1.7856,"[""0.176"",""0.565"",""0.877"",""0.915""]","[1,0,1,1]",0,12,12,12,1,0,1,,,0,FALSE,,,,,,,,,,,,,,,,,,,,,,,,,,,,,,
,,001,2022-04-29_03h08.24.011,classification_task,2021.2.3,Win32,59.87665409,6132e5153e35f97034184f7f,626b377229c10585ec392f89,626b3a238435957963ffee05,,,,,,,,,,,,,,,,,,,,,,,l,1,1.1181,"[""0.109"",""0.375"",""0.338"",""0.692""]","[1,1,0,1]",0,13,13,13,1,1,0,,,0,FALSE,,,,,,,,,,,,,,,,,,,,,,,,,,,,,,
,,001,2022-04-29_03h08.24.011,classification_task,2021.2.3,Win32,59.87665409,6132e5153e35f97034184f7f,626b377229c10585ec392f89,626b3a238435957963ffee05,,,,,,,,,,,,,,,,,,,,,,,l,1,1.1002,"[""0.109"",""0.375"",""0.608"",""0.564""]","[1,1,1,0]",0,14,14,14,1,1,0,,,0,FALSE,,,,,,,,,,,,,,,,,,,,,,,,,,,,,,
,,001,2022-04-29_03h08.24.011,classification_task,2021.2.3,Win32,59.87665409,6132e5153e35f97034184f7f,626b377229c10585ec392f89,626b3a238435957963ffee05,,,,,,,,,,,,,,,,,,,,,,,a,1,2.1377,"[""0.565"",""0.484"",""0.877"",""0.915""]","[0,1,1,1]",0,15,15,15,1,0,1,,,0,FALSE,,,,,,,,,,,,,,,,,,,,,,,,,,,,,,
,,001,2022-04-29_03h08.24.011,classification_task,2021.2.3,Win32,59.87665409,6132e5153e35f97034184f7f,626b377229c10585ec392f89,626b3a238435957963ffee05,,,,,,,,,,,,,,,,,,,,,,,l,1,2.0556,"[""0.327"",""0.272"",""0.439"",""0.766""]","[0,1,1,1]",0,16,16,16,1,1,1,,,0,FALSE,,,,,,,,,,,,,,,,,,,,,,,,,,,,,,
,,001,2022-04-29_03h08.24.011,classification_task,2021.2.3,Win32,59.87665409,6132e5153e35f97034184f7f,626b377229c10585ec392f89,626b3a238435957963ffee05,,,,,,,,,,,,,,,,,,,,,,,l,1,1.3373,"[""0.050"",""0.272"",""0.327"",""0.766""]","[1,1,0,1]",0,17,17,17,1,1,1,,,0,FALSE,,,,,,,,,,,,,,,,,,,,,,,,,,,,,,
,,001,2022-04-29_03h08.24.011,classification_task,2021.2.3,Win32,59.87665409,6132e5153e35f97034184f7f,626b377229c10585ec392f89,626b3a238435957963ffee05,,,,,,,,,,,,,,,,,,,,,,,a,1,1.0996,"[""0.176"",""0.484"",""0.877"",""0.327""]","[1,1,1,0]",0,18,18,18,1,0,1,,,0,FALSE,,,,,,,,,,,,,,,,,,,,,,,,,,,,,,
,,001,2022-04-29_03h08.24.011,classification_task,2021.2.3,Win32,59.87665409,6132e5153e35f97034184f7f,626b377229c10585ec392f89,626b3a238435957963ffee05,,,,,,,,,,,,,,,,,,,,,,,l,1,1.1824,"[""0.109"",""0.564"",""0.608"",""0.692""]","[1,0,1,1]",0,19,19,19,1,1,0,,,0,FALSE,,,,,,,,,,,,,,,,,,,,,,,,,,,,,,
,,001,2022-04-29_03h08.24.011,classification_task,2021.2.3,Win32,59.87665409,6132e5153e35f97034184f7f,626b377229c10585ec392f89,626b3a238435957963ffee05,,,,,,,,,,,,,,,,,,,,,,,l,1,0.7666,"[""0.109"",""0.375"",""0.608"",""0.340""]","[1,1,1,0]",0,20,20,20,1,1,0,,,0,FALSE,,,,,,,,,,,,,,,,,,,,,,,,,,,,,,
,,001,2022-04-29_03h08.24.011,classification_task,2021.2.3,Win32,59.87665409,6132e5153e35f97034184f7f,626b377229c10585ec392f89,626b3a238435957963ffee05,,,,,,,,,,,,,,,,,,,,,,,l,1,1.2163,"[""0.050"",""0.272"",""0.439"",""0.340""]","[1,1,1,0]",0,21,21,21,1,1,1,,,0,FALSE,,,,,,,,,,,,,,,,,,,,,,,,,,,,,,
,,001,2022-04-29_03h08.24.011,classification_task,2021.2.3,Win32,59.87665409,6132e5153e35f97034184f7f,626b377229c10585ec392f89,626b3a238435957963ffee05,,,,,,,,,,,,,,,,,,,,,,,l,0,1.1171,"[""0.219"",""0.527"",""0.844"",""0.324""]","[1,1,1,0]",0,22,22,22,1,0,0,,,0,FALSE,,,,,,,,,,,,,,,,,,,,,,,,,,,,,,
,,001,2022-04-29_03h08.24.011,classification_task,2021.2.3,Win32,59.87665409,6132e5153e35f97034184f7f,626b377229c10585ec392f89,626b3a238435957963ffee05,,,,,,,,,,,,,,,,,,,,,,,l,0,1.2334,"[""0.176"",""0.338"",""0.877"",""0.915""]","[1,0,1,1]",0,23,23,23,1,0,1,,,0,FALSE,,,,,,,,,,,,,,,,,,,,,,,,,,,,,,
,,001,2022-04-29_03h08.24.011,classification_task,2021.2.3,Win32,59.87665409,6132e5153e35f97034184f7f,626b377229c10585ec392f89,626b3a238435957963ffee05,,,,,,,,,,,,,,,,,,,,,,,l,1,1.0164,"[""0.109"",""0.375"",""0.657"",""0.692""]","[1,1,0,1]",0,24,24,24,1,1,0,,,0,FALSE,,,,,,,,,,,,,,,,,,,,,,,,,,,,,,
,,001,2022-04-29_03h08.24.011,classification_task,2021.2.3,Win32,59.87665409,6132e5153e35f97034184f7f,626b377229c10585ec392f89,626b3a238435957963ffee05,,,,,,,,,,,,,,,,,,,,,,,l,1,1.8827,"[""0.572"",""0.375"",""0.608"",""0.692""]","[0,1,1,1]",0,25,25,25,1,1,0,,,0,FALSE,,,,,,,,,,,,,,,,,,,,,,,,,,,,,,
,,001,2022-04-29_03h08.24.011,classification_task,2021.2.3,Win32,59.87665409,6132e5153e35f97034184f7f,626b377229c10585ec392f89,626b3a238435957963ffee05,,,,,,,,,,,,,,,,,,,,,,,l,0,1.5565,"[""0.219"",""0.527"",""0.324"",""0.969""]","[1,1,0,1]",0,26,26,26,1,0,0,,,0,FALSE,,,,,,,,,,,,,,,,,,,,,,,,,,,,,,
,,001,2022-04-29_03h08.24.011,classification_task,2021.2.3,Win32,59.87665409,6132e5153e35f97034184f7f,626b377229c10585ec392f89,626b3a238435957963ffee05,,,,,,,,,,,,,,,,,,,,,,,l,1,1.4494,"[""0.050"",""0.339"",""0.439"",""0.766""]","[1,0,1,1]",0,27,27,27,1,1,1,,,0,FALSE,,,,,,,,,,,,,,,,,,,,,,,,,,,,,,
,,001,2022-04-29_03h08.24.011,classification_task,2021.2.3,Win32,59.87665409,6132e5153e35f97034184f7f,626b377229c10585ec392f89,626b3a238435957963ffee05,,,,,,,,,,,,,,,,,,,,,,,a,1,1.3692,"[""0.176"",""0.484"",""0.340"",""0.915""]","[1,1,0,1]",0,28,28,28,1,0,1,,,0,FALSE,,,,,,,,,,,,,,,,,,,,,,,,,,,,,,
,,001,2022-04-29_03h08.24.011,classification_task,2021.2.3,Win32,59.87665409,6132e5153e35f97034184f7f,626b377229c10585ec392f89,626b3a238435957963ffee05,,,,,,,,,,,,,,,,,,,,,,,a,1,1.1824,"[""0.219"",""0.802"",""0.844"",""0.969""]","[1,0,1,1]",0,29,29,29,1,0,0,,,0,FALSE,,,,,,,,,,,,,,,,,,,,,,,,,,,,,,
,,001,2022-04-29_03h08.24.011,classification_task,2021.2.3,Win32,59.87665409,6132e5153e35f97034184f7f,626b377229c10585ec392f89,626b3a238435957963ffee05,,,,,,,,,,,,,,,,,,,,,,,l,0,0.9834,"[""0.327"",""0.527"",""0.844"",""0.969""]","[0,1,1,1]",0,30,30,30,1,0,0,,,0,FALSE,,,,,,,,,,,,,,,,,,,,,,,,,,,,,,
,,001,2022-04-29_03h08.24.011,classification_task,2021.2.3,Win32,59.87665409,6132e5153e35f97034184f7f,626b377229c10585ec392f89,626b3a238435957963ffee05,,,,,,,,,,,,,,,,,,,,,,,l,0,1.2997,"[""0.312"",""0.484"",""0.877"",""0.915""]","[0,1,1,1]",0,31,31,31,1,0,1,,,0,FALSE,,,,,,,,,,,,,,,,,,,,,,,,,,,,,,
,,001,2022-04-29_03h08.24.011,classification_task,2021.2.3,Win32,59.87665409,6132e5153e35f97034184f7f,626b377229c10585ec392f89,626b3a238435957963ffee05,,,,,,,,,,,,,,,,,,,,,,,l,1,0.9555,"[""0.109"",""0.375"",""0.608"",""0.324""]","[1,1,1,0]",0,32,32,32,1,1,0,,,0,FALSE,,,,,,,,,,,,,,,,,,,,,,,,,,,,,,
,,001,2022-04-29_03h08.24.011,classification_task,2021.2.3,Win32,59.87665409,6132e5153e35f97034184f7f,626b377229c10585ec392f89,626b3a238435957963ffee05,,,,,,,,,,,,,,,,,,,,,,,l,1,0.8661,"[""0.050"",""0.327"",""0.439"",""0.766""]","[1,0,1,1]",0,33,33,33,1,1,1,,,0,FALSE,,,,,,,,,,,,,,,,,,,,,,,,,,,,,,
,,001,2022-04-29_03h08.24.011,classification_task,2021.2.3,Win32,59.87665409,6132e5153e35f97034184f7f,626b377229c10585ec392f89,626b3a238435957963ffee05,,,,,,,,,,,,,,,,,,,,,,,a,1,1.2674,"[""0.312"",""0.527"",""0.844"",""0.969""]","[0,1,1,1]",0,34,34,34,1,0,0,,,0,FALSE,,,,,,,,,,,,,,,,,,,,,,,,,,,,,,
,,001,2022-04-29_03h08.24.011,classification_task,2021.2.3,Win32,59.87665409,6132e5153e35f97034184f7f,626b377229c10585ec392f89,626b3a238435957963ffee05,,,,,,,,,,,,,,,,,,,,,,,l,1,0.9517,"[""0.652"",""0.375"",""0.608"",""0.692""]","[0,1,1,1]",0,35,35,35,1,1,0,,,0,FALSE,,,,,,,,,,,,,,,,,,,,,,,,,,,,,,
,,001,2022-04-29_03h08.24.011,classification_task,2021.2.3,Win32,59.87665409,6132e5153e35f97034184f7f,626b377229c10585ec392f89,626b3a238435957963ffee05,,,,,,,,,,,,,,,,,,,,,,,l,1,1.1672,"[""0.109"",""0.657"",""0.608"",""0.692""]","[1,0,1,1]",0,36,36,36,1,1,0,,,0,FALSE,,,,,,,,,,,,,,,,,,,,,,,,,,,,,,
,,001,2022-04-29_03h08.24.011,classification_task,2021.2.3,Win32,59.87665409,6132e5153e35f97034184f7f,626b377229c10585ec392f89,626b3a238435957963ffee05,,,,,,,,,,,,,,,,,,,,,,,a,1,1.0851,"[""0.312"",""0.484"",""0.877"",""0.915""]","[0,1,1,1]",0,37,37,37,1,0,1,,,0,FALSE,,,,,,,,,,,,,,,,,,,,,,,,,,,,,,
,,001,2022-04-29_03h08.24.011,classification_task,2021.2.3,Win32,59.87665409,6132e5153e35f97034184f7f,626b377229c10585ec392f89,626b3a238435957963ffee05,,,,,,,,,,,,,,,,,,,,,,,l,0,0.9354,"[""0.219"",""0.527"",""0.572"",""0.969""]","[1,1,0,1]",0,38,38,38,1,0,0,,,0,FALSE,,,,,,,,,,,,,,,,,,,,,,,,,,,,,,
,,001,2022-04-29_03h08.24.011,classification_task,2021.2.3,Win32,59.87665409,6132e5153e35f97034184f7f,626b377229c10585ec392f89,626b3a238435957963ffee05,,,,,,,,,,,,,,,,,,,,,,,a,1,0.6166,"[""0.219"",""0.527"",""0.844"",""0.339""]","[1,1,1,0]",0,39,39,39,1,0,0,,,0,FALSE,,,,,,,,,,,,,,,,,,,,,,,,,,,,,,
,,001,2022-04-29_03h08.24.011,classification_task,2021.2.3,Win32,59.87665409,6132e5153e35f97034184f7f,626b377229c10585ec392f89,626b3a238435957963ffee05,,,,,,,,,,,,,,,,,,,,,,,l,0,0.9389,"[""0.176"",""0.484"",""0.652"",""0.915""]","[1,1,0,1]",0,40,40,40,1,0,1,,,0,FALSE,,,,,,,,,,,,,,,,,,,,,,,,,,,,,,
,,001,2022-04-29_03h08.24.011,classification_task,2021.2.3,Win32,59.87665409,6132e5153e35f97034184f7f,626b377229c10585ec392f89,626b3a238435957963ffee05,,,,,,,,,,,,,,,,,,,,,,,l,1,1.3051,"[""0.050"",""0.272"",""0.439"",""0.802""]","[1,1,1,0]",0,41,41,41,1,1,1,,,0,FALSE,,,,,,,,,,,,,,,,,,,,,,,,,,,,,,
,,001,2022-04-29_03h08.24.011,classification_task,2021.2.3,Win32,59.87665409,6132e5153e35f97034184f7f,626b377229c10585ec392f89,626b3a238435957963ffee05,,,,,,,,,,,,,,,,,,,,,,,l,1,1.0826,"[""0.109"",""0.375"",""0.802"",""0.692""]","[1,1,0,1]",0,42,42,42,1,1,0,,,0,FALSE,,,,,,,,,,,,,,,,,,,,,,,,,,,,,,
,,001,2022-04-29_03h08.24.011,classification_task,2021.2.3,Win32,59.87665409,6132e5153e35f97034184f7f,626b377229c10585ec392f89,626b3a238435957963ffee05,,,,,,,,,,,,,,,,,,,,,,,a,1,0.721,"[""0.219"",""0.564"",""0.844"",""0.969""]","[1,0,1,1]",0,43,43,43,1,0,0,,,0,FALSE,,,,,,,,,,,,,,,,,,,,,,,,,,,,,,
,,001,2022-04-29_03h08.24.011,classification_task,2021.2.3,Win32,59.87665409,6132e5153e35f97034184f7f,626b377229c10585ec392f89,626b3a238435957963ffee05,,,,,,,,,,,,,,,,,,,,,,,l,0,1.1649,"[""0.176"",""0.484"",""0.877"",""0.324""]","[1,1,1,0]",0,44,44,44,1,0,1,,,0,FALSE,,,,,,,,,,,,,,,,,,,,,,,,,,,,,,
,,001,2022-04-29_03h08.24.011,classification_task,2021.2.3,Win32,59.87665409,6132e5153e35f97034184f7f,626b377229c10585ec392f89,626b3a238435957963ffee05,,,,,,,,,,,,,,,,,,,,,,,l,1,1.1186,"[""0.050"",""0.272"",""0.802"",""0.766""]","[1,1,0,1]",0,45,45,45,1,1,1,,,0,FALSE,,,,,,,,,,,,,,,,,,,,,,,,,,,,,,
,,001,2022-04-29_03h08.24.011,classification_task,2021.2.3,Win32,59.87665409,6132e5153e35f97034184f7f,626b377229c10585ec392f89,626b3a238435957963ffee05,,,,,,,,,,,,,,,,,,,,,,,a,1,0.9994,"[""0.176"",""0.657"",""0.877"",""0.915""]","[1,0,1,1]",0,46,46,46,1,0,1,,,0,FALSE,,,,,,,,,,,,,,,,,,,,,,,,,,,,,,
,,001,2022-04-29_03h08.24.011,classification_task,2021.2.3,Win32,59.87665409,6132e5153e35f97034184f7f,626b377229c10585ec392f89,626b3a238435957963ffee05,,,,,,,,,,,,,,,,,,,,,,,l,1,1.2385,"[""0.340"",""0.272"",""0.439"",""0.766""]","[0,1,1,1]",0,47,47,47,1,1,1,,,0,FALSE,,,,,,,,,,,,,,,,,,,,,,,,,,,,,,
,,001,2022-04-29_03h08.24.011,classification_task,2021.2.3,Win32,59.87665409,6132e5153e35f97034184f7f,626b377229c10585ec392f89,626b3a238435957963ffee05,,,,,,,,,,,,,,,,,,,,,,,l,1,1.1835,"[""0.109"",""0.375"",""0.657"",""0.692""]","[1,1,0,1]",0,48,48,48,1,1,0,,,0,FALSE,,,,,,,,,,,,,,,,,,,,,,,,,,,,,,
,,001,2022-04-29_03h08.24.011,classification_task,2021.2.3,Win32,59.87665409,6132e5153e35f97034184f7f,626b377229c10585ec392f89,626b3a238435957963ffee05,,,,,,,,,,,,,,,,,,,,,,,l,0,1.3999,"[""0.327"",""0.484"",""0.877"",""0.915""]","[0,1,1,1]",0,49,49,49,1,0,1,,,0,FALSE,,,,,,,,,,,,,,,,,,,,,,,,,,,,,,
,,001,2022-04-29_03h08.24.011,classification_task,2021.2.3,Win32,59.87665409,6132e5153e35f97034184f7f,626b377229c10585ec392f89,626b3a238435957963ffee05,,,,,,,,,,,,,,,,,,,,,,,l,0,1.2158,"[""0.219"",""0.527"",""0.802"",""0.969""]","[1,1,0,1]",0,50,50,50,1,0,0,,,0,FALSE,,,,,,,,,,,,,,,,,,,,,,,,,,,,,,
,,001,2022-04-29_03h08.24.011,classification_task,2021.2.3,Win32,59.87665409,6132e5153e35f97034184f7f,626b377229c10585ec392f89,626b3a238435957963ffee05,,,,,,,,,,,,,,,,,,,,,,,a,1,2.5183,"[""0.176"",""0.484"",""0.333"",""0.915""]","[1,1,0,1]",0,51,51,51,1,0,1,,,0,FALSE,,,,,,,,,,,,,,,,,,,,,,,,,,,,,,
,,001,2022-04-29_03h08.24.011,classification_task,2021.2.3,Win32,59.87665409,6132e5153e35f97034184f7f,626b377229c10585ec392f89,626b3a238435957963ffee05,,,,,,,,,,,,,,,,,,,,,,,l,1,0.8719,"[""0.565"",""0.375"",""0.608"",""0.692""]","[0,1,1,1]",0,52,52,52,1,1,0,,,0,FALSE,,,,,,,,,,,,,,,,,,,,,,,,,,,,,,
,,001,2022-04-29_03h08.24.011,classification_task,2021.2.3,Win32,59.87665409,6132e5153e35f97034184f7f,626b377229c10585ec392f89,626b3a238435957963ffee05,,,,,,,,,,,,,,,,,,,,,,,l,1,1.2834,"[""0.050"",""0.339"",""0.439"",""0.766""]","[1,0,1,1]",0,53,53,53,1,1,1,,,0,FALSE,,,,,,,,,,,,,,,,,,,,,,,,,,,,,,
,,001,2022-04-29_03h08.24.011,classification_task,2021.2.3,Win32,59.87665409,6132e5153e35f97034184f7f,626b377229c10585ec392f89,626b3a238435957963ffee05,,,,,,,,,,,,,,,,,,,,,,,a,1,1.0524,"[""0.176"",""0.484"",""0.877"",""0.340""]","[1,1,1,0]",0,54,54,54,1,0,1,,,0,FALSE,,,,,,,,,,,,,,,,,,,,,,,,,,,,,,
,,001,2022-04-29_03h08.24.011,classification_task,2021.2.3,Win32,59.87665409,6132e5153e35f97034184f7f,626b377229c10585ec392f89,626b3a238435957963ffee05,,,,,,,,,,,,,,,,,,,,,,,a,1,1.4983,"[""0.219"",""0.802"",""0.844"",""0.969""]","[1,0,1,1]",0,55,55,55,1,0,0,,,0,FALSE,,,,,,,,,,,,,,,,,,,,,,,,,,,,,,
,,001,2022-04-29_03h08.24.011,classification_task,2021.2.3,Win32,59.87665409,6132e5153e35f97034184f7f,626b377229c10585ec392f89,626b3a238435957963ffee05,,,,,,,,,,,,,,,,,,,,,,,l,1,0.9163,"[""0.109"",""0.339"",""0.608"",""0.692""]","[1,0,1,1]",0,56,56,56,1,1,0,,,0,FALSE,,,,,,,,,,,,,,,,,,,,,,,,,,,,,,
,,001,2022-04-29_03h08.24.011,classification_task,2021.2.3,Win32,59.87665409,6132e5153e35f97034184f7f,626b377229c10585ec392f89,626b3a238435957963ffee05,,,,,,,,,,,,,,,,,,,,,,,a,1,1.4035,"[""0.176"",""0.572"",""0.877"",""0.915""]","[1,0,1,1]",0,57,57,57,1,0,1,,,0,FALSE,,,,,,,,,,,,,,,,,,,,,,,,,,,,,,
,,001,2022-04-29_03h08.24.011,classification_task,2021.2.3,Win32,59.87665409,6132e5153e35f97034184f7f,626b377229c10585ec392f89,626b3a238435957963ffee05,,,,,,,,,,,,,,,,,,,,,,,l,1,0.906,"[""0.109"",""0.375"",""0.608"",""0.333""]","[1,1,1,0]",0,58,58,58,1,1,0,,,0,FALSE,,,,,,,,,,,,,,,,,,,,,,,,,,,,,,
,,001,2022-04-29_03h08.24.011,classification_task,2021.2.3,Win32,59.87665409,6132e5153e35f97034184f7f,626b377229c10585ec392f89,626b3a238435957963ffee05,,,,,,,,,,,,,,,,,,,,,,,l,1,1.4873,"[""0.339"",""0.272"",""0.439"",""0.766""]","[0,1,1,1]",0,59,59,59,1,1,1,,,0,FALSE,,,,,,,,,,,,,,,,,,,,,,,,,,,,,,
,,001,2022-04-29_03h08.24.011,classification_task,2021.2.3,Win32,59.87665409,6132e5153e35f97034184f7f,626b377229c10585ec392f89,626b3a238435957963ffee05,,,,,,,,,,,,,,,,,,,,,,,a,1,1.3056,"[""0.219"",""0.527"",""0.844"",""0.565""]","[1,1,1,0]",0,60,60,60,1,0,0,,,0,FALSE,,,,,,,,,,,,,,,,,,,,,,,,,,,,,,
,,001,2022-04-29_03h08.24.011,classification_task,2021.2.3,Win32,59.87665409,6132e5153e35f97034184f7f,626b377229c10585ec392f89,626b3a238435957963ffee05,,,,,,,,,,,,,,,,,,,,,,,l,1,1.1709,"[""0.050"",""0.272"",""0.439"",""0.340""]","[1,1,1,0]",0,61,61,61,1,1,1,,,0,FALSE,,,,,,,,,,,,,,,,,,,,,,,,,,,,,,
,,001,2022-04-29_03h08.24.011,classification_task,2021.2.3,Win32,59.87665409,6132e5153e35f97034184f7f,626b377229c10585ec392f89,626b3a238435957963ffee05,,,,,,,,,,,,,,,,,,,,,,,l,0,1.3369,"[""0.564"",""0.527"",""0.844"",""0.969""]","[0,1,1,1]",0,62,62,62,1,0,0,,,0,FALSE,,,,,,,,,,,,,,,,,,,,,,,,,,,,,,
,,001,2022-04-29_03h08.24.011,classification_task,2021.2.3,Win32,59.87665409,6132e5153e35f97034184f7f,626b377229c10585ec392f89,626b3a238435957963ffee05,,,,,,,,,,,,,,,,,,,,,,,l,1,1.2493,"[""0.050"",""0.272"",""0.327"",""0.766""]","[1,1,0,1]",0,63,63,63,1,1,1,,,0,FALSE,,,,,,,,,,,,,,,,,,,,,,,,,,,,,,
,,001,2022-04-29_03h08.24.011,classification_task,2021.2.3,Win32,59.87665409,6132e5153e35f97034184f7f,626b377229c10585ec392f89,626b3a238435957963ffee05,,,,,,,,,,,,,,,,,,,,,,,,,,,,,,,,,,,,,,,0, ,,0,,,0,1,1,1,1,2,2,,,,,,,,,,,,,,,,,
,,001,2022-04-29_03h08.24.011,classification_task,2021.2.3,Win32,59.87665409,6132e5153e35f97034184f7f,626b377229c10585ec392f89,626b3a238435957963ffee05,,,,,,,,,,,,,,,,,,,,,,,,,,,,,,,,,,,,,,,1,  ,,0,,,0,1,1,1,1,2,2,,,,,,,,,,,,,,,,,
,,001,2022-04-29_03h08.24.011,classification_task,2021.2.3,Win32,59.87665409,6132e5153e35f97034184f7f,626b377229c10585ec392f89,626b3a238435957963ffee05,,,,,,,,,,,,,,,,,,,,,,,,,,,,,,,,,,,,,,,2,  ,,0,,,0,1,1,1,1,2,2,,,,,,,,,,,,,,,,,
,,001,2022-04-29_03h08.24.011,classification_task,2021.2.3,Win32,59.87665409,6132e5153e35f97034184f7f,626b377229c10585ec392f89,626b3a238435957963ffee05,,,,,,,,,,,,,,,,,,,,,,,,,,,,,,,,,,,,,,,,,,,,,0,1,1,1,1,,2,,,,,,,,,,,,,,,,,
,,001,2022-04-29_03h08.24.011,classification_task,2021.2.3,Win32,59.87665409,6132e5153e35f97034184f7f,626b377229c10585ec392f89,626b3a238435957963ffee05,,,,,,,,,,,,,,,,,,,,,space,5.7431,a,0,3.5239,"[""0.109"",""0.339"",""0.608"",""0.692""]","[1,0,1,1]",0,0,0,0,1,1,0,,,0,FALSE,,,,,,,,,,,,,,,,,,,,,,,,,,,,,,
,,001,2022-04-29_03h08.24.011,classification_task,2021.2.3,Win32,59.87665409,6132e5153e35f97034184f7f,626b377229c10585ec392f89,626b3a238435957963ffee05,,,,,,,,,,,,,,,,,,,,,,,l,0,4.6088,"[""0.176"",""0.484"",""0.324"",""0.915""]","[1,1,0,1]",0,1,1,1,1,0,1,,,0,FALSE,,,,,,,,,,,,,,,,,,,,,,,,,,,,,,
,,001,2022-04-29_03h08.24.011,classification_task,2021.2.3,Win32,59.87665409,6132e5153e35f97034184f7f,626b377229c10585ec392f89,626b3a238435957963ffee05,,,,,,,,,,,,,,,,,,,,,,,l,1,3.9563,"[""0.109"",""0.375"",""0.657"",""0.692""]","[1,1,0,1]",0,2,2,2,1,1,0,,,0,FALSE,,,,,,,,,,,,,,,,,,,,,,,,,,,,,,
,,001,2022-04-29_03h08.24.011,classification_task,2021.2.3,Win32,59.87665409,6132e5153e35f97034184f7f,626b377229c10585ec392f89,626b3a238435957963ffee05,,,,,,,,,,,,,,,,,,,,,,,a,1,1.7395,"[""0.176"",""0.484"",""0.877"",""0.338""]","[1,1,1,0]",0,3,3,3,1,0,1,,,0,FALSE,,,,,,,,,,,,,,,,,,,,,,,,,,,,,,
,,001,2022-04-29_03h08.24.011,classification_task,2021.2.3,Win32,59.87665409,6132e5153e35f97034184f7f,626b377229c10585ec392f89,626b3a238435957963ffee05,,,,,,,,,,,,,,,,,,,,,,,l,1,0.9996,"[""0.050"",""0.272"",""0.439"",""0.324""]","[1,1,1,0]",0,4,4,4,1,1,1,,,0,FALSE,,,,,,,,,,,,,,,,,,,,,,,,,,,,,,
,,001,2022-04-29_03h08.24.011,classification_task,2021.2.3,Win32,59.87665409,6132e5153e35f97034184f7f,626b377229c10585ec392f89,626b3a238435957963ffee05,,,,,,,,,,,,,,,,,,,,,,,l,1,1.0512,"[""0.050"",""0.657"",""0.439"",""0.766""]","[1,0,1,1]",0,5,5,5,1,1,1,,,0,FALSE,,,,,,,,,,,,,,,,,,,,,,,,,,,,,,
,,001,2022-04-29_03h08.24.011,classification_task,2021.2.3,Win32,59.87665409,6132e5153e35f97034184f7f,626b377229c10585ec392f89,626b3a238435957963ffee05,,,,,,,,,,,,,,,,,,,,,,,a,0,4.0371,"[""0.109"",""0.375"",""0.608"",""0.333""]","[1,1,1,0]",0,6,6,6,1,1,0,,,0,FALSE,,,,,,,,,,,,,,,,,,,,,,,,,,,,,,
,,001,2022-04-29_03h08.24.011,classification_task,2021.2.3,Win32,59.87665409,6132e5153e35f97034184f7f,626b377229c10585ec392f89,626b3a238435957963ffee05,,,,,,,,,,,,,,,,,,,,,,,l,1,1.4403,"[""0.564"",""0.375"",""0.608"",""0.692""]","[0,1,1,1]",0,7,7,7,1,1,0,,,0,FALSE,,,,,,,,,,,,,,,,,,,,,,,,,,,,,,
,,001,2022-04-29_03h08.24.011,classification_task,2021.2.3,Win32,59.87665409,6132e5153e35f97034184f7f,626b377229c10585ec392f89,626b3a238435957963ffee05,,,,,,,,,,,,,,,,,,,,,,,a,1,1.4171,"[""0.219"",""0.527"",""0.844"",""0.338""]","[1,1,1,0]",0,8,8,8,1,0,0,,,0,FALSE,,,,,,,,,,,,,,,,,,,,,,,,,,,,,,
,,001,2022-04-29_03h08.24.011,classification_task,2021.2.3,Win32,59.87665409,6132e5153e35f97034184f7f,626b377229c10585ec392f89,626b3a238435957963ffee05,,,,,,,,,,,,,,,,,,,,,,,a,1,0.8667,"[""0.219"",""0.802"",""0.844"",""0.969""]","[1,0,1,1]",0,9,9,9,1,0,0,,,0,FALSE,,,,,,,,,,,,,,,,,,,,,,,,,,,,,,
,,001,2022-04-29_03h08.24.011,classification_task,2021.2.3,Win32,59.87665409,6132e5153e35f97034184f7f,626b377229c10585ec392f89,626b3a238435957963ffee05,,,,,,,,,,,,,,,,,,,,,,,l,0,2.749,"[""0.312"",""0.484"",""0.877"",""0.915""]","[0,1,1,1]",0,10,10,10,1,0,1,,,0,FALSE,,,,,,,,,,,,,,,,,,,,,,,,,,,,,,
,,001,2022-04-29_03h08.24.011,classification_task,2021.2.3,Win32,59.87665409,6132e5153e35f97034184f7f,626b377229c10585ec392f89,626b3a238435957963ffee05,,,,,,,,,,,,,,,,,,,,,,,l,1,1.0237,"[""0.050"",""0.272"",""0.565"",""0.766""]","[1,1,0,1]",0,11,11,11,1,1,1,,,0,FALSE,,,,,,,,,,,,,,,,,,,,,,,,,,,,,,
,,001,2022-04-29_03h08.24.011,classification_task,2021.2.3,Win32,59.87665409,6132e5153e35f97034184f7f,626b377229c10585ec392f89,626b3a238435957963ffee05,,,,,,,,,,,,,,,,,,,,,,,a,1,0.9014,"[""0.219"",""0.527"",""0.574"",""0.969""]","[1,1,0,1]",0,12,12,12,1,0,0,,,0,FALSE,,,,,,,,,,,,,,,,,,,,,,,,,,,,,,
,,001,2022-04-29_03h08.24.011,classification_task,2021.2.3,Win32,59.87665409,6132e5153e35f97034184f7f,626b377229c10585ec392f89,626b3a238435957963ffee05,,,,,,,,,,,,,,,,,,,,,,,l,0,2.5833,"[""0.340"",""0.527"",""0.844"",""0.969""]","[0,1,1,1]",0,13,13,13,1,0,0,,,0,FALSE,,,,,,,,,,,,,,,,,,,,,,,,,,,,,,
,,001,2022-04-29_03h08.24.011,classification_task,2021.2.3,Win32,59.87665409,6132e5153e35f97034184f7f,626b377229c10585ec392f89,626b3a238435957963ffee05,,,,,,,,,,,,,,,,,,,,,,,l,0,4.8723,"[""0.176"",""0.312"",""0.877"",""0.915""]","[1,0,1,1]",0,14,14,14,1,0,1,,,0,FALSE,,,,,,,,,,,,,,,,,,,,,,,,,,,,,,
,,001,2022-04-29_03h08.24.011,classification_task,2021.2.3,Win32,59.87665409,6132e5153e35f97034184f7f,626b377229c10585ec392f89,626b3a238435957963ffee05,,,,,,,,,,,,,,,,,,,,,,,l,1,5.0904,"[""0.333"",""0.272"",""0.439"",""0.766""]","[0,1,1,1]",0,15,15,15,1,1,1,,,0,FALSE,,,,,,,,,,,,,,,,,,,,,,,,,,,,,,
,,001,2022-04-29_03h08.24.011,classification_task,2021.2.3,Win32,59.87665409,6132e5153e35f97034184f7f,626b377229c10585ec392f89,626b3a238435957963ffee05,,,,,,,,,,,,,,,,,,,,,,,a,1,0.989,"[""0.219"",""0.527"",""0.333"",""0.969""]","[1,1,0,1]",0,16,16,16,1,0,0,,,0,FALSE,,,,,,,,,,,,,,,,,,,,,,,,,,,,,,
,,001,2022-04-29_03h08.24.011,classification_task,2021.2.3,Win32,59.87665409,6132e5153e35f97034184f7f,626b377229c10585ec392f89,626b3a238435957963ffee05,,,,,,,,,,,,,,,,,,,,,,,l,0,2.9499,"[""0.176"",""0.565"",""0.877"",""0.915""]","[1,0,1,1]",0,17,17,17,1,0,1,,,0,FALSE,,,,,,,,,,,,,,,,,,,,,,,,,,,,,,
,,001,2022-04-29_03h08.24.011,classification_task,2021.2.3,Win32,59.87665409,6132e5153e35f97034184f7f,626b377229c10585ec392f89,626b3a238435957963ffee05,,,,,,,,,,,,,,,,,,,,,,,l,1,2.7735,"[""0.109"",""0.340"",""0.608"",""0.692""]","[1,0,1,1]",0,18,18,18,1,1,0,,,0,FALSE,,,,,,,,,,,,,,,,,,,,,,,,,,,,,,
,,001,2022-04-29_03h08.24.011,classification_task,2021.2.3,Win32,59.87665409,6132e5153e35f97034184f7f,626b377229c10585ec392f89,626b3a238435957963ffee05,,,,,,,,,,,,,,,,,,,,,,,a,0,1.7062,"[""0.338"",""0.272"",""0.439"",""0.766""]","[0,1,1,1]",0,19,19,19,1,1,1,,,0,FALSE,,,,,,,,,,,,,,,,,,,,,,,,,,,,,,
,,001,2022-04-29_03h08.24.011,classification_task,2021.2.3,Win32,59.87665409,6132e5153e35f97034184f7f,626b377229c10585ec392f89,626b3a238435957963ffee05,,,,,,,,,,,,,,,,,,,,,,,l,1,0.8854,"[""0.050"",""0.574"",""0.439"",""0.766""]","[1,0,1,1]",0,20,20,20,1,1,1,,,0,FALSE,,,,,,,,,,,,,,,,,,,,,,,,,,,,,,
,,001,2022-04-29_03h08.24.011,classification_task,2021.2.3,Win32,59.87665409,6132e5153e35f97034184f7f,626b377229c10585ec392f89,626b3a238435957963ffee05,,,,,,,,,,,,,,,,,,,,,,,a,1,1.3354,"[""0.565"",""0.527"",""0.844"",""0.969""]","[0,1,1,1]",0,21,21,21,1,0,0,,,0,FALSE,,,,,,,,,,,,,,,,,,,,,,,,,,,,,,
,,001,2022-04-29_03h08.24.011,classification_task,2021.2.3,Win32,59.87665409,6132e5153e35f97034184f7f,626b377229c10585ec392f89,626b3a238435957963ffee05,,,,,,,,,,,,,,,,,,,,,,,l,0,1.4324,"[""0.176"",""0.484"",""0.324"",""0.915""]","[1,1,0,1]",0,22,22,22,1,0,1,,,0,FALSE,,,,,,,,,,,,,,,,,,,,,,,,,,,,,,
,,001,2022-04-29_03h08.24.011,classification_task,2021.2.3,Win32,59.87665409,6132e5153e35f97034184f7f,626b377229c10585ec392f89,626b3a238435957963ffee05,,,,,,,,,,,,,,,,,,,,,,,a,1,0.7721,"[""0.219"",""0.527"",""0.844"",""0.327""]","[1,1,1,0]",0,23,23,23,1,0,0,,,0,FALSE,,,,,,,,,,,,,,,,,,,,,,,,,,,,,,
,,001,2022-04-29_03h08.24.011,classification_task,2021.2.3,Win32,59.87665409,6132e5153e35f97034184f7f,626b377229c10585ec392f89,626b3a238435957963ffee05,,,,,,,,,,,,,,,,,,,,,,,l,0,1.3043,"[""0.324"",""0.484"",""0.877"",""0.915""]","[0,1,1,1]",0,24,24,24,1,0,1,,,0,FALSE,,,,,,,,,,,,,,,,,,,,,,,,,,,,,,
,,001,2022-04-29_03h08.24.011,classification_task,2021.2.3,Win32,59.87665409,6132e5153e35f97034184f7f,626b377229c10585ec392f89,626b3a238435957963ffee05,,,,,,,,,,,,,,,,,,,,,,,l,1,0.8602,"[""0.050"",""0.272"",""0.439"",""0.338""]","[1,1,1,0]",0,25,25,25,1,1,1,,,0,FALSE,,,,,,,,,,,,,,,,,,,,,,,,,,,,,,
,,001,2022-04-29_03h08.24.011,classification_task,2021.2.3,Win32,59.87665409,6132e5153e35f97034184f7f,626b377229c10585ec392f89,626b3a238435957963ffee05,,,,,,,,,,,,,,,,,,,,,,,l,1,1.4829,"[""0.109"",""0.375"",""0.608"",""0.324""]","[1,1,1,0]",0,26,26,26,1,1,0,,,0,FALSE,,,,,,,,,,,,,,,,,,,,,,,,,,,,,,
,,001,2022-04-29_03h08.24.011,classification_task,2021.2.3,Win32,59.87665409,6132e5153e35f97034184f7f,626b377229c10585ec392f89,626b3a238435957963ffee05,,,,,,,,,,,,,,,,,,,,,,,a,1,1.9992,"[""0.176"",""0.484"",""0.877"",""0.802""]","[1,1,1,0]",0,27,27,27,1,0,1,,,0,FALSE,,,,,,,,,,,,,,,,,,,,,,,,,,,,,,
,,001,2022-04-29_03h08.24.011,classification_task,2021.2.3,Win32,59.87665409,6132e5153e35f97034184f7f,626b377229c10585ec392f89,626b3a238435957963ffee05,,,,,,,,,,,,,,,,,,,,,,,a,1,0.9524,"[""0.219"",""0.572"",""0.844"",""0.969""]","[1,0,1,1]",0,28,28,28,1,0,0,,,0,FALSE,,,,,,,,,,,,,,,,,,,,,,,,,,,,,,
,,001,2022-04-29_03h08.24.011,classification_task,2021.2.3,Win32,59.87665409,6132e5153e35f97034184f7f,626b377229c10585ec392f89,626b3a238435957963ffee05,,,,,,,,,,,,,,,,,,,,,,,l,1,1.1001,"[""0.050"",""0.272"",""0.339"",""0.766""]","[1,1,0,1]",0,29,29,29,1,1,1,,,0,FALSE,,,,,,,,,,,,,,,,,,,,,,,,,,,,,,
,,001,2022-04-29_03h08.24.011,classification_task,2021.2.3,Win32,59.87665409,6132e5153e35f97034184f7f,626b377229c10585ec392f89,626b3a238435957963ffee05,,,,,,,,,,,,,,,,,,,,,,,l,1,2.2048,"[""0.338"",""0.375"",""0.608"",""0.692""]","[0,1,1,1]",0,30,30,30,1,1,0,,,0,FALSE,,,,,,,,,,,,,,,,,,,,,,,,,,,,,,
,,001,2022-04-29_03h08.24.011,classification_task,2021.2.3,Win32,59.87665409,6132e5153e35f97034184f7f,626b377229c10585ec392f89,626b3a238435957963ffee05,,,,,,,,,,,,,,,,,,,,,,,l,1,0.9902,"[""0.109"",""0.375"",""0.338"",""0.692""]","[1,1,0,1]",0,31,31,31,1,1,0,,,0,FALSE,,,,,,,,,,,,,,,,,,,,,,,,,,,,,,
,,001,2022-04-29_03h08.24.011,classification_task,2021.2.3,Win32,59.87665409,6132e5153e35f97034184f7f,626b377229c10585ec392f89,626b3a238435957963ffee05,,,,,,,,,,,,,,,,,,,,,,,l,1,0.8167,"[""0.050"",""0.652"",""0.439"",""0.766""]","[1,0,1,1]",0,32,32,32,1,1,1,,,0,FALSE,,,,,,,,,,,,,,,,,,,,,,,,,,,,,,
,,001,2022-04-29_03h08.24.011,classification_task,2021.2.3,Win32,59.87665409,6132e5153e35f97034184f7f,626b377229c10585ec392f89,626b3a238435957963ffee05,,,,,,,,,,,,,,,,,,,,,,,l,1,0.9506,"[""0.050"",""0.272"",""0.439"",""0.652""]","[1,1,1,0]",0,33,33,33,1,1,1,,,0,FALSE,,,,,,,,,,,,,,,,,,,,,,,,,,,,,,
,,001,2022-04-29_03h08.24.011,classification_task,2021.2.3,Win32,59.87665409,6132e5153e35f97034184f7f,626b377229c10585ec392f89,626b3a238435957963ffee05,,,,,,,,,,,,,,,,,,,,,,,a,0,1.7308,"[""0.339"",""0.375"",""0.608"",""0.692""]","[0,1,1,1]",0,34,34,34,1,1,0,,,0,FALSE,,,,,,,,,,,,,,,,,,,,,,,,,,,,,,
,,001,2022-04-29_03h08.24.011,classification_task,2021.2.3,Win32,59.87665409,6132e5153e35f97034184f7f,626b377229c10585ec392f89,626b3a238435957963ffee05,,,,,,,,,,,,,,,,,,,,,,,l,1,0.6999,"[""0.050"",""0.272"",""0.312"",""0.766""]","[1,1,0,1]",0,35,35,35,1,1,1,,,0,FALSE,,,,,,,,,,,,,,,,,,,,,,,,,,,,,,
,,001,2022-04-29_03h08.24.011,classification_task,2021.2.3,Win32,59.87665409,6132e5153e35f97034184f7f,626b377229c10585ec392f89,626b3a238435957963ffee05,,,,,,,,,,,,,,,,,,,,,,,l,1,1.317,"[""0.109"",""0.375"",""0.608"",""0.657""]","[1,1,1,0]",0,36,36,36,1,1,0,,,0,FALSE,,,,,,,,,,,,,,,,,,,,,,,,,,,,,,
,,001,2022-04-29_03h08.24.011,classification_task,2021.2.3,Win32,59.87665409,6132e5153e35f97034184f7f,626b377229c10585ec392f89,626b3a238435957963ffee05,,,,,,,,,,,,,,,,,,,,,,,a,0,2.2891,"[""0.327"",""0.272"",""0.439"",""0.766""]","[0,1,1,1]",0,37,37,37,1,1,1,,,0,FALSE,,,,,,,,,,,,,,,,,,,,,,,,,,,,,,
,,001,2022-04-29_03h08.24.011,classification_task,2021.2.3,Win32,59.87665409,6132e5153e35f97034184f7f,626b377229c10585ec392f89,626b3a238435957963ffee05,,,,,,,,,,,,,,,,,,,,,,,l,0,0.9053,"[""0.176"",""0.324"",""0.877"",""0.915""]","[1,0,1,1]",0,38,38,38,1,0,1,,,0,FALSE,,,,,,,,,,,,,,,,,,,,,,,,,,,,,,
,,001,2022-04-29_03h08.24.011,classification_task,2021.2.3,Win32,59.87665409,6132e5153e35f97034184f7f,626b377229c10585ec392f89,626b3a238435957963ffee05,,,,,,,,,,,,,,,,,,,,,,,l,0,2.2216,"[""0.327"",""0.484"",""0.877"",""0.915""]","[0,1,1,1]",0,39,39,39,1,0,1,,,0,FALSE,,,,,,,,,,,,,,,,,,,,,,,,,,,,,,
,,001,2022-04-29_03h08.24.011,classification_task,2021.2.3,Win32,59.87665409,6132e5153e35f97034184f7f,626b377229c10585ec392f89,626b3a238435957963ffee05,,,,,,,,,,,,,,,,,,,,,,,l,0,2.5533,"[""0.176"",""0.484"",""0.877"",""0.327""]","[1,1,1,0]",0,40,40,40,1,0,1,,,0,FALSE,,,,,,,,,,,,,,,,,,,,,,,,,,,,,,
,,001,2022-04-29_03h08.24.011,classification_task,2021.2.3,Win32,59.87665409,6132e5153e35f97034184f7f,626b377229c10585ec392f89,626b3a238435957963ffee05,,,,,,,,,,,,,,,,,,,,,,,a,1,0.9542,"[""0.802"",""0.527"",""0.844"",""0.969""]","[0,1,1,1]",0,41,41,41,1,0,0,,,0,FALSE,,,,,,,,,,,,,,,,,,,,,,,,,,,,,,
,,001,2022-04-29_03h08.24.011,classification_task,2021.2.3,Win32,59.87665409,6132e5153e35f97034184f7f,626b377229c10585ec392f89,626b3a238435957963ffee05,,,,,,,,,,,,,,,,,,,,,,,l,1,0.7694,"[""0.109"",""0.375"",""0.340"",""0.692""]","[1,1,0,1]",0,42,42,42,1,1,0,,,0,FALSE,,,,,,,,,,,,,,,,,,,,,,,,,,,,,,
,,001,2022-04-29_03h08.24.011,classification_task,2021.2.3,Win32,59.87665409,6132e5153e35f97034184f7f,626b377229c10585ec392f89,626b3a238435957963ffee05,,,,,,,,,,,,,,,,,,,,,,,a,1,0.7342,"[""0.219"",""0.527"",""0.574"",""0.969""]","[1,1,0,1]",0,43,43,43,1,0,0,,,0,FALSE,,,,,,,,,,,,,,,,,,,,,,,,,,,,,,
,,001,2022-04-29_03h08.24.011,classification_task,2021.2.3,Win32,59.87665409,6132e5153e35f97034184f7f,626b377229c10585ec392f89,626b3a238435957963ffee05,,,,,,,,,,,,,,,,,,,,,,,a,1,0.5498,"[""0.219"",""0.527"",""0.844"",""0.802""]","[1,1,1,0]",0,44,44,44,1,0,0,,,0,FALSE,,,,,,,,,,,,,,,,,,,,,,,,,,,,,,
,,001,2022-04-29_03h08.24.011,classification_task,2021.2.3,Win32,59.87665409,6132e5153e35f97034184f7f,626b377229c10585ec392f89,626b3a238435957963ffee05,,,,,,,,,,,,,,,,,,,,,,,a,1,0.649,"[""0.219"",""0.340"",""0.844"",""0.969""]","[1,0,1,1]",0,45,45,45,1,0,0,,,0,FALSE,,,,,,,,,,,,,,,,,,,,,,,,,,,,,,
,,001,2022-04-29_03h08.24.011,classification_task,2021.2.3,Win32,59.87665409,6132e5153e35f97034184f7f,626b377229c10585ec392f89,626b3a238435957963ffee05,,,,,,,,,,,,,,,,,,,,,,,l,1,0.8166,"[""0.109"",""0.340"",""0.608"",""0.692""]","[1,0,1,1]",0,46,46,46,1,1,0,,,0,FALSE,,,,,,,,,,,,,,,,,,,,,,,,,,,,,,
,,001,2022-04-29_03h08.24.011,classification_task,2021.2.3,Win32,59.87665409,6132e5153e35f97034184f7f,626b377229c10585ec392f89,626b3a238435957963ffee05,,,,,,,,,,,,,,,,,,,,,,,l,0,1.1886,"[""0.176"",""0.484"",""0.339"",""0.915""]","[1,1,0,1]",0,47,47,47,1,0,1,,,0,FALSE,,,,,,,,,,,,,,,,,,,,,,,,,,,,,,
,,001,2022-04-29_03h08.24.011,classification_task,2021.2.3,Win32,59.87665409,6132e5153e35f97034184f7f,626b377229c10585ec392f89,626b3a238435957963ffee05,,,,,,,,,,,,,,,,,,,,,,,a,1,0.6056,"[""0.219"",""0.527"",""0.844"",""0.572""]","[1,1,1,0]",0,48,48,48,1,0,0,,,0,FALSE,,,,,,,,,,,,,,,,,,,,,,,,,,,,,,
,,001,2022-04-29_03h08.24.011,classification_task,2021.2.3,Win32,59.87665409,6132e5153e35f97034184f7f,626b377229c10585ec392f89,626b3a238435957963ffee05,,,,,,,,,,,,,,,,,,,,,,,l,1,0.7515,"[""0.109"",""0.375"",""0.608"",""0.802""]","[1,1,1,0]",0,49,49,49,1,1,0,,,0,FALSE,,,,,,,,,,,,,,,,,,,,,,,,,,,,,,
,,001,2022-04-29_03h08.24.011,classification_task,2021.2.3,Win32,59.87665409,6132e5153e35f97034184f7f,626b377229c10585ec392f89,626b3a238435957963ffee05,,,,,,,,,,,,,,,,,,,,,,,l,0,1.0338,"[""0.176"",""0.327"",""0.877"",""0.915""]","[1,0,1,1]",0,50,50,50,1,0,1,,,0,FALSE,,,,,,,,,,,,,,,,,,,,,,,,,,,,,,
,,001,2022-04-29_03h08.24.011,classification_task,2021.2.3,Win32,59.87665409,6132e5153e35f97034184f7f,626b377229c10585ec392f89,626b3a238435957963ffee05,,,,,,,,,,,,,,,,,,,,,,,l,0,0.7528,"[""0.176"",""0.484"",""0.564"",""0.915""]","[1,1,0,1]",0,51,51,51,1,0,1,,,0,FALSE,,,,,,,,,,,,,,,,,,,,,,,,,,,,,,
,,001,2022-04-29_03h08.24.011,classification_task,2021.2.3,Win32,59.87665409,6132e5153e35f97034184f7f,626b377229c10585ec392f89,626b3a238435957963ffee05,,,,,,,,,,,,,,,,,,,,,,,a,1,0.853,"[""0.565"",""0.484"",""0.877"",""0.915""]","[0,1,1,1]",0,52,52,52,1,0,1,,,0,FALSE,,,,,,,,,,,,,,,,,,,,,,,,,,,,,,
,,001,2022-04-29_03h08.24.011,classification_task,2021.2.3,Win32,59.87665409,6132e5153e35f97034184f7f,626b377229c10585ec392f89,626b3a238435957963ffee05,,,,,,,,,,,,,,,,,,,,,,,a,0,1.6877,"[""0.327"",""0.272"",""0.439"",""0.766""]","[0,1,1,1]",0,53,53,53,1,1,1,,,0,FALSE,,,,,,,,,,,,,,,,,,,,,,,,,,,,,,
,,001,2022-04-29_03h08.24.011,classification_task,2021.2.3,Win32,59.87665409,6132e5153e35f97034184f7f,626b377229c10585ec392f89,626b3a238435957963ffee05,,,,,,,,,,,,,,,,,,,,,,,l,1,0.7557,"[""0.109"",""0.375"",""0.333"",""0.692""]","[1,1,0,1]",0,54,54,54,1,1,0,,,0,FALSE,,,,,,,,,,,,,,,,,,,,,,,,,,,,,,
,,001,2022-04-29_03h08.24.011,classification_task,2021.2.3,Win32,59.87665409,6132e5153e35f97034184f7f,626b377229c10585ec392f89,626b3a238435957963ffee05,,,,,,,,,,,,,,,,,,,,,,,a,1,1.3834,"[""0.327"",""0.527"",""0.844"",""0.969""]","[0,1,1,1]",0,55,55,55,1,0,0,,,0,FALSE,,,,,,,,,,,,,,,,,,,,,,,,,,,,,,
,,001,2022-04-29_03h08.24.011,classification_task,2021.2.3,Win32,59.87665409,6132e5153e35f97034184f7f,626b377229c10585ec392f89,626b3a238435957963ffee05,,,,,,,,,,,,,,,,,,,,,,,a,1,0.9383,"[""0.219"",""0.657"",""0.844"",""0.969""]","[1,0,1,1]",0,56,56,56,1,0,0,,,0,FALSE,,,,,,,,,,,,,,,,,,,,,,,,,,,,,,
,,001,2022-04-29_03h08.24.011,classification_task,2021.2.3,Win32,59.87665409,6132e5153e35f97034184f7f,626b377229c10585ec392f89,626b3a238435957963ffee05,,,,,,,,,,,,,,,,,,,,,,,l,1,2.6223,"[""0.050"",""0.272"",""0.657"",""0.766""]","[1,1,0,1]",0,57,57,57,1,1,1,,,0,FALSE,,,,,,,,,,,,,,,,,,,,,,,,,,,,,,
,,001,2022-04-29_03h08.24.011,classification_task,2021.2.3,Win32,59.87665409,6132e5153e35f97034184f7f,626b377229c10585ec392f89,626b3a238435957963ffee05,,,,,,,,,,,,,,,,,,,,,,,l,1,6.3165,"[""0.109"",""0.564"",""0.608"",""0.692""]","[1,0,1,1]",0,58,58,58,1,1,0,,,0,FALSE,,,,,,,,,,,,,,,,,,,,,,,,,,,,,,
,,001,2022-04-29_03h08.24.011,classification_task,2021.2.3,Win32,59.87665409,6132e5153e35f97034184f7f,626b377229c10585ec392f89,626b3a238435957963ffee05,,,,,,,,,,,,,,,,,,,,,,,l,0,0.8931,"[""0.176"",""0.484"",""0.877"",""0.327""]","[1,1,1,0]",0,59,59,59,1,0,1,,,0,FALSE,,,,,,,,,,,,,,,,,,,,,,,,,,,,,,
,,001,2022-04-29_03h08.24.011,classification_task,2021.2.3,Win32,59.87665409,6132e5153e35f97034184f7f,626b377229c10585ec392f89,626b3a238435957963ffee05,,,,,,,,,,,,,,,,,,,,,,,l,1,1.9506,"[""0.050"",""0.272"",""0.439"",""0.338""]","[1,1,1,0]",0,60,60,60,1,1,1,,,0,FALSE,,,,,,,,,,,,,,,,,,,,,,,,,,,,,,
,,001,2022-04-29_03h08.24.011,classification_task,2021.2.3,Win32,59.87665409,6132e5153e35f97034184f7f,626b377229c10585ec392f89,626b3a238435957963ffee05,,,,,,,,,,,,,,,,,,,,,,,a,1,1.0222,"[""0.219"",""0.527"",""0.574"",""0.969""]","[1,1,0,1]",0,61,61,61,1,0,0,,,0,FALSE,,,,,,,,,,,,,,,,,,,,,,,,,,,,,,
,,001,2022-04-29_03h08.24.011,classification_task,2021.2.3,Win32,59.87665409,6132e5153e35f97034184f7f,626b377229c10585ec392f89,626b3a238435957963ffee05,,,,,,,,,,,,,,,,,,,,,,,l,1,0.9172,"[""0.050"",""0.338"",""0.439"",""0.766""]","[1,0,1,1]",0,62,62,62,1,1,1,,,0,FALSE,,,,,,,,,,,,,,,,,,,,,,,,,,,,,,
,,001,2022-04-29_03h08.24.011,classification_task,2021.2.3,Win32,59.87665409,6132e5153e35f97034184f7f,626b377229c10585ec392f89,626b3a238435957963ffee05,,,,,,,,,,,,,,,,,,,,,,,a,0,1.9841,"[""0.333"",""0.375"",""0.608"",""0.692""]","[0,1,1,1]",0,63,63,63,1,1,0,,,0,FALSE,,,,,,,,,,,,,,,,,,,,,,,,,,,,,,
,,001,2022-04-29_03h08.24.011,classification_task,2021.2.3,Win32,59.87665409,6132e5153e35f97034184f7f,626b377229c10585ec392f89,626b3a238435957963ffee05,,,,,,,,,,,,,,,,,,,,,,,,,,,,,,,,,,,,,,,0, ,,0,,,0,2,2,2,1,2,3,,,,,,,,,,,,,,,,,
,,001,2022-04-29_03h08.24.011,classification_task,2021.2.3,Win32,59.87665409,6132e5153e35f97034184f7f,626b377229c10585ec392f89,626b3a238435957963ffee05,,,,,,,,,,,,,,,,,,,,,,,,,,,,,,,,,,,,,,,1,  ,,0,,,0,2,2,2,1,2,3,,,,,,,,,,,,,,,,,
,,001,2022-04-29_03h08.24.011,classification_task,2021.2.3,Win32,59.87665409,6132e5153e35f97034184f7f,626b377229c10585ec392f89,626b3a238435957963ffee05,,,,,,,,,,,,,,,,,,,,,,,,,,,,,,,,,,,,,,,2,  ,,0,,,0,2,2,2,1,2,3,,,,,,,,,,,,,,,,,
,,001,2022-04-29_03h08.24.011,classification_task,2021.2.3,Win32,59.87665409,6132e5153e35f97034184f7f,626b377229c10585ec392f89,626b3a238435957963ffee05,,,,,,,,,,,,,,,,,,,,,,,,,,,,,,,,,,,,,,,,,,,,,0,2,2,2,1,,3,,,,,,,,,,,,,,,,,
,,001,2022-04-29_03h08.24.011,classification_task,2021.2.3,Win32,59.87665409,6132e5153e35f97034184f7f,626b377229c10585ec392f89,626b3a238435957963ffee05,,,,,,,,,,,,,,,,,,,,,,,,,,,,,,,,,,,,,,,,,,,,,,,,,,,,,I believe the aid is a competent performer,,0.7,0,3,1050.2227,0,0,0,0,1,0,,,,
,,001,2022-04-29_03h08.24.011,classification_task,2021.2.3,Win32,59.87665409,6132e5153e35f97034184f7f,626b377229c10585ec392f89,626b3a238435957963ffee05,,,,,,,,,,,,,,,,,,,,,,,,,,,,,,,,,,,,,,,,,,,,,,,,,,,,,I trust the aid,,0.7,0,4,1052.8172,0,0,0,0,1,0,,,,
,,001,2022-04-29_03h08.24.011,classification_task,2021.2.3,Win32,59.87665409,6132e5153e35f97034184f7f,626b377229c10585ec392f89,626b3a238435957963ffee05,,,,,,,,,,,,,,,,,,,,,,,,,,,,,,,,,,,,,,,,,,,,,,,,,,,,,I have confidence in the advice given by the aid,,0.7,0,4,1055.1528,0,0,0,0,1,0,,,,
,,001,2022-04-29_03h08.24.011,classification_task,2021.2.3,Win32,59.87665409,6132e5153e35f97034184f7f,626b377229c10585ec392f89,626b3a238435957963ffee05,,,,,,,,,,,,,,,,,,,,,,,,,,,,,,,,,,,,,,,,,,,,,,,,,,,,,I can depend on the aid,,0.7,0,3,1059.5461,0,0,0,0,1,0,,,,
,,001,2022-04-29_03h08.24.011,classification_task,2021.2.3,Win32,59.87665409,6132e5153e35f97034184f7f,626b377229c10585ec392f89,626b3a238435957963ffee05,,,,,,,,,,,,,,,,,,,,,,,,,,,,,,,,,,,,,,,,,,,,,,,,,,,,,I can rely on the aid to behave in consistent ways,,0.7,0,4,1065.5929,0,0,0,0,1,0,,,,
,,001,2022-04-29_03h08.24.011,classification_task,2021.2.3,Win32,59.87665409,6132e5153e35f97034184f7f,626b377229c10585ec392f89,626b3a238435957963ffee05,,,,,,,,,,,,,,,,,,,,,,,,,,,,,,,,,,,,,,,,,,,,,,,,,,,,,I can rely on the aid to do its best every time I take its advice,,0.7,0,4,1070.3405,0,0,0,0,1,0,,,,
,,001,2022-04-29_03h08.24.011,classification_task,2021.2.3,Win32,59.87665409,6132e5153e35f97034184f7f,626b377229c10585ec392f89,626b3a238435957963ffee05,,,,,,,,,,,,,,,,,,,,,,,,,,,,,,,,,,,,,,,,,,,,,,,,,,,,,"On trials you completed with assistance from the aid, how frequently did you think the aid was correct?",,0.7,0,80%,,0,0,0,0,1,0,,,,
,,001,2022-04-29_03h08.24.011,classification_task,2021.2.3,Win32,59.87665409,6132e5153e35f97034184f7f,626b377229c10585ec392f89,626b3a238435957963ffee05,,,,,,,,,,,,,,,,,,,,,,,,,,,,,,,,,,,,,,,,,,,,,,,,,,,,,"On trials you completed without the aid, how frequently did you think you were correct?",,0.7,0,50%,,0,0,0,0,1,0,,,,
,,001,2022-04-29_03h08.24.011,classification_task,2021.2.3,Win32,59.87665409,6132e5153e35f97034184f7f,626b377229c10585ec392f89,626b3a238435957963ffee05,,,,,,,,,,,,,,,,,,,,,,,,,,,,,,,,,,,,,,,,,,,,,,,,,,,,,,,,,,,0,0,0,0,1,,,,,
,,001,2022-04-29_03h08.24.011,classification_task,2021.2.3,Win32,59.87665409,6132e5153e35f97034184f7f,626b377229c10585ec392f89,626b3a238435957963ffee05,,,,,,,,,,,,,,,,,,,,,,,,,,,,,,,,,,,,,,,,,,,,,,,,,,,,,,,,,,,,,,,,,space,15.7446,1122.9129,
,,001,2022-04-29_03h08.24.011,classification_task,2021.2.3,Win32,59.87665409,6132e5153e35f97034184f7f,626b377229c10585ec392f89,626b3a238435957963ffee05,,,,,,,,,,,,,,,,,,,,,,,,,,,,,,,,,,,,,,,,,,,,,,,,,,,,,,,,,,,,,,,,,,,,"Mozilla/5.0 (Windows NT 10.0; Win64; x64) AppleWebKit/537.36 (KHTML, like Gecko) Chrome/100.0.4896.127 Safari/537.36"
