usingWebGL,participant,session,date,expName,psychopyVersion,OS,frameRate,PROLIFIC_PID,STUDY_ID,SESSION_ID,signatures_friend,signatures_foe,band_ranges_top,band_ranges_bottom,formitemText,formtype,formundefined,formitemWidth,formindex,formresponse,formrt,key_resp_2.keys,key_resp_2.rt,tute_resp.keys,tute_resp.rt,tutorial.thisRepN,tutorial.thisTrialN,tutorial.thisN,tutorial.thisIndex,tutorial.ran,key_resp_4.keys,key_resp_4.rt,key_resp.keys,key_resp.corr,key_resp.rt,lines_presented,is_signal_presented,trials.thisRepN,trials.thisTrialN,trials.thisN,trials.thisIndex,trials.ran,vessel,active_band,lines,is_signal,supported_pos,catch_trial,debrief_formindex,debrief_formitemText,debrief_formtype,debrief_formitemWidth,debrief_formresponse,debrief_formrt,phases.thisRepN,phases.thisTrialN,phases.thisN,phases.thisIndex,phases.ran,phases.order,phase,key_resp_3.keys,trustitemText,trusttype,trustitemWidth,trustindex,trustresponse,trustrt,support_status.thisRepN,support_status.thisTrialN,support_status.thisN,support_status.thisIndex,support_status.ran,support_status.order,key_resp_5.keys,key_resp_5.rt,globalClockTime,userAgent
TRUE,,001,2022-04-29_03h08.46.302,classification_task,2021.2.3,Win32,60.0024001,60ed422f77c903379187954a,626b377229c10585ec392f89,626b3a296d81ac3f00fd6d95,,,,,,,,,,,,,,,,,,,,,,,,,,,,,,,,,,,,,,,,,,,,,,,,,,,,,,,,,,,,,,,,,,,,
,,001,2022-04-29_03h08.46.302,classification_task,2021.2.3,Win32,60.0024001,60ed422f77c903379187954a,626b377229c10585ec392f89,626b3a296d81ac3f00fd6d95,"[[""0.258"",""0.374"",""0.609"",""0.967""],[""0.199"",""0.562"",""0.755"",""0.883""]]","[[""0.111"",""0.418"",""0.528"",""0.837""],[""0.077"",""0.331"",""0.461"",""0.702""]]","[1,10]","[100,1000]",Video game experience,,,0.7,0,,,,,,,,,,,,,,,,,,,,,,,,,,,,,,,,,,,,,,,,,,,,,,,,,,,,,,,,,,,
,,001,2022-04-29_03h08.46.302,classification_task,2021.2.3,Win32,60.0024001,60ed422f77c903379187954a,626b377229c10585ec392f89,626b3a296d81ac3f00fd6d95,,,,,Approximately how many hours did you spend playing video games in the last week?,,,0.7,0,15,,,,,,,,,,,,,,,,,,,,,,,,,,,,,,,,,,,,,,,,,,,,,,,,,,,,,,,,,,
,,001,2022-04-29_03h08.46.302,classification_task,2021.2.3,Win32,60.0024001,60ed422f77c903379187954a,626b377229c10585ec392f89,626b3a296d81ac3f00fd6d95,,,,,"Which game did you play the most this year? (Enter ""None"" if you didn't play any)",,,0.7,0,FIFA,,,,,,,,,,,,,,,,,,,,,,,,,,,,,,,,,,,,,,,,,,,,,,,,,,,,,,,,,,
,,001,2022-04-29_03h08.46.302,classification_task,2021.2.3,Win32,60.0024001,60ed422f77c903379187954a,626b377229c10585ec392f89,626b3a296d81ac3f00fd6d95,,,,,Visual perception,,,0.7,0,,,,,,,,,,,,,,,,,,,,,,,,,,,,,,,,,,,,,,,,,,,,,,,,,,,,,,,,,,,
,,001,2022-04-29_03h08.46.302,classification_task,2021.2.3,Win32,60.0024001,60ed422f77c903379187954a,626b377229c10585ec392f89,626b3a296d81ac3f00fd6d95,,,,,Do you have any form of color blindness?,,,0.7,0,No,32.7734,,,,,,,,,,,,,,,,,,,,,,,,,,,,,,,,,,,,,,,,,,,,,,,,,,,,,,,,,
,,001,2022-04-29_03h08.46.302,classification_task,2021.2.3,Win32,60.0024001,60ed422f77c903379187954a,626b377229c10585ec392f89,626b3a296d81ac3f00fd6d95,,,,,Do you use software to change the colour temperature of your screen (e.g. f.lux)?,,,0.7,0,No,42.1921,,,,,,,,,,,,,,,,,,,,,,,,,,,,,,,,,,,,,,,,,,,,,,,,,,,,,,,,,
,,001,2022-04-29_03h08.46.302,classification_task,2021.2.3,Win32,60.0024001,60ed422f77c903379187954a,626b377229c10585ec392f89,626b3a296d81ac3f00fd6d95,,,,,,,,,,,,space,43.6993,space,12.3845,0,0,0,0,1,,,,,,,,,,,,,,,,,,,,,,,,,,,,,,,,,,,,,,,,,,,,,,,,
,,001,2022-04-29_03h08.46.302,classification_task,2021.2.3,Win32,60.0024001,60ed422f77c903379187954a,626b377229c10585ec392f89,626b3a296d81ac3f00fd6d95,,,,,,,,,,,,,,space,10.3065,1,0,1,0,1,,,,,,,,,,,,,,,,,,,,,,,,,,,,,,,,,,,,,,,,,,,,,,,,
,,001,2022-04-29_03h08.46.302,classification_task,2021.2.3,Win32,60.0024001,60ed422f77c903379187954a,626b377229c10585ec392f89,626b3a296d81ac3f00fd6d95,,,,,,,,,,,,,,space,20.3834,2,0,2,0,1,,,,,,,,,,,,,,,,,,,,,,,,,,,,,,,,,,,,,,,,,,,,,,,,
,,001,2022-04-29_03h08.46.302,classification_task,2021.2.3,Win32,60.0024001,60ed422f77c903379187954a,626b377229c10585ec392f89,626b3a296d81ac3f00fd6d95,,,,,,,,,,,,,,space,34.0971,3,0,3,0,1,,,,,,,,,,,,,,,,,,,,,,,,,,,,,,,,,,,,,,,,,,,,,,,,
,,001,2022-04-29_03h08.46.302,classification_task,2021.2.3,Win32,60.0024001,60ed422f77c903379187954a,626b377229c10585ec392f89,626b3a296d81ac3f00fd6d95,,,,,,,,,,,,,,space,16.7135,4,0,4,0,1,,,,,,,,,,,,,,,,,,,,,,,,,,,,,,,,,,,,,,,,,,,,,,,,
,,001,2022-04-29_03h08.46.302,classification_task,2021.2.3,Win32,60.0024001,60ed422f77c903379187954a,626b377229c10585ec392f89,626b3a296d81ac3f00fd6d95,,,,,,,,,,,,,,,,,,,,,space,25.619,a,1,6.842,"[""0.258"",""0.374"",""0.609"",""0.149""]","[1,1,1,0]",0,0,0,0,1,0,0,,,1,FALSE,,,,,,,,,,,,,,,,,,,,,,,,,,,,,,
,,001,2022-04-29_03h08.46.302,classification_task,2021.2.3,Win32,60.0024001,60ed422f77c903379187954a,626b377229c10585ec392f89,626b3a296d81ac3f00fd6d95,,,,,,,,,,,,,,,,,,,,,,,l,1,4.0229,"[""0.111"",""0.801"",""0.528"",""0.837""]","[1,0,1,1]",0,1,1,1,1,1,0,,,1,FALSE,,,,,,,,,,,,,,,,,,,,,,,,,,,,,,
,,001,2022-04-29_03h08.46.302,classification_task,2021.2.3,Win32,60.0024001,60ed422f77c903379187954a,626b377229c10585ec392f89,626b3a296d81ac3f00fd6d95,,,,,,,,,,,,,,,,,,,,,,,l,1,5.0747,"[""0.111"",""0.418"",""0.039"",""0.837""]","[1,1,0,1]",0,2,2,2,1,1,0,,,1,FALSE,,,,,,,,,,,,,,,,,,,,,,,,,,,,,,
,,001,2022-04-29_03h08.46.302,classification_task,2021.2.3,Win32,60.0024001,60ed422f77c903379187954a,626b377229c10585ec392f89,626b3a296d81ac3f00fd6d95,,,,,,,,,,,,,,,,,,,,,,,l,1,8.8576,"[""0.077"",""0.331"",""0.666"",""0.702""]","[1,1,0,1]",0,3,3,3,1,1,1,,,1,FALSE,,,,,,,,,,,,,,,,,,,,,,,,,,,,,,
,,001,2022-04-29_03h08.46.302,classification_task,2021.2.3,Win32,60.0024001,60ed422f77c903379187954a,626b377229c10585ec392f89,626b3a296d81ac3f00fd6d95,,,,,,,,,,,,,,,,,,,,,,,a,1,6.5424,"[""0.258"",""0.374"",""0.666"",""0.967""]","[1,1,0,1]",0,4,4,4,1,0,0,,,1,FALSE,,,,,,,,,,,,,,,,,,,,,,,,,,,,,,
,,001,2022-04-29_03h08.46.302,classification_task,2021.2.3,Win32,60.0024001,60ed422f77c903379187954a,626b377229c10585ec392f89,626b3a296d81ac3f00fd6d95,,,,,,,,,,,,,,,,,,,,,,,a,1,5.4952,"[""0.199"",""0.801"",""0.755"",""0.883""]","[1,0,1,1]",0,5,5,5,1,0,1,,,1,FALSE,,,,,,,,,,,,,,,,,,,,,,,,,,,,,,
,,001,2022-04-29_03h08.46.302,classification_task,2021.2.3,Win32,60.0024001,60ed422f77c903379187954a,626b377229c10585ec392f89,626b3a296d81ac3f00fd6d95,,,,,,,,,,,,,,,,,,,,,,,a,1,4.7738,"[""0.199"",""0.562"",""0.755"",""0.666""]","[1,1,1,0]",0,6,6,6,1,0,1,,,1,FALSE,,,,,,,,,,,,,,,,,,,,,,,,,,,,,,
,,001,2022-04-29_03h08.46.302,classification_task,2021.2.3,Win32,60.0024001,60ed422f77c903379187954a,626b377229c10585ec392f89,626b3a296d81ac3f00fd6d95,,,,,,,,,,,,,,,,,,,,,,,a,0,6.8156,"[""0.027"",""0.418"",""0.528"",""0.837""]","[0,1,1,1]",0,7,7,7,1,1,0,,,1,FALSE,,,,,,,,,,,,,,,,,,,,,,,,,,,,,,
,,001,2022-04-29_03h08.46.302,classification_task,2021.2.3,Win32,60.0024001,60ed422f77c903379187954a,626b377229c10585ec392f89,626b3a296d81ac3f00fd6d95,,,,,,,,,,,,,,,,,,,,,,,a,1,5.8899,"[""0.801"",""0.562"",""0.755"",""0.883""]","[0,1,1,1]",0,8,8,8,1,0,1,,,1,FALSE,,,,,,,,,,,,,,,,,,,,,,,,,,,,,,
,,001,2022-04-29_03h08.46.302,classification_task,2021.2.3,Win32,60.0024001,60ed422f77c903379187954a,626b377229c10585ec392f89,626b3a296d81ac3f00fd6d95,,,,,,,,,,,,,,,,,,,,,,,a,1,7.1757,"[""0.799"",""0.374"",""0.609"",""0.967""]","[0,1,1,1]",0,9,9,9,1,0,0,,,1,FALSE,,,,,,,,,,,,,,,,,,,,,,,,,,,,,,
,,001,2022-04-29_03h08.46.302,classification_task,2021.2.3,Win32,60.0024001,60ed422f77c903379187954a,626b377229c10585ec392f89,626b3a296d81ac3f00fd6d95,,,,,,,,,,,,,,,,,,,,,,,l,1,5.0629,"[""0.077"",""0.331"",""0.461"",""0.799""]","[1,1,1,0]",0,10,10,10,1,1,1,,,1,FALSE,,,,,,,,,,,,,,,,,,,,,,,,,,,,,,
,,001,2022-04-29_03h08.46.302,classification_task,2021.2.3,Win32,60.0024001,60ed422f77c903379187954a,626b377229c10585ec392f89,626b3a296d81ac3f00fd6d95,,,,,,,,,,,,,,,,,,,,,,,a,1,5.2297,"[""0.199"",""0.562"",""0.648"",""0.883""]","[1,1,0,1]",0,11,11,11,1,0,1,,,1,FALSE,,,,,,,,,,,,,,,,,,,,,,,,,,,,,,
,,001,2022-04-29_03h08.46.302,classification_task,2021.2.3,Win32,60.0024001,60ed422f77c903379187954a,626b377229c10585ec392f89,626b3a296d81ac3f00fd6d95,,,,,,,,,,,,,,,,,,,,,,,l,1,5.3496,"[""0.077"",""0.801"",""0.461"",""0.702""]","[1,0,1,1]",0,12,12,12,1,1,1,,,1,FALSE,,,,,,,,,,,,,,,,,,,,,,,,,,,,,,
,,001,2022-04-29_03h08.46.302,classification_task,2021.2.3,Win32,60.0024001,60ed422f77c903379187954a,626b377229c10585ec392f89,626b3a296d81ac3f00fd6d95,,,,,,,,,,,,,,,,,,,,,,,l,0,6.7895,"[""0.258"",""0.035"",""0.609"",""0.967""]","[1,0,1,1]",0,13,13,13,1,0,0,,,1,FALSE,,,,,,,,,,,,,,,,,,,,,,,,,,,,,,
,,001,2022-04-29_03h08.46.302,classification_task,2021.2.3,Win32,60.0024001,60ed422f77c903379187954a,626b377229c10585ec392f89,626b3a296d81ac3f00fd6d95,,,,,,,,,,,,,,,,,,,,,,,l,1,4.2292,"[""0.111"",""0.418"",""0.528"",""0.035""]","[1,1,1,0]",0,14,14,14,1,1,0,,,1,FALSE,,,,,,,,,,,,,,,,,,,,,,,,,,,,,,
,,001,2022-04-29_03h08.46.302,classification_task,2021.2.3,Win32,60.0024001,60ed422f77c903379187954a,626b377229c10585ec392f89,626b3a296d81ac3f00fd6d95,,,,,,,,,,,,,,,,,,,,,,,l,1,8.3774,"[""0.039"",""0.331"",""0.461"",""0.702""]","[0,1,1,1]",0,15,15,15,1,1,1,,,1,FALSE,,,,,,,,,,,,,,,,,,,,,,,,,,,,,,
,,001,2022-04-29_03h08.46.302,classification_task,2021.2.3,Win32,60.0024001,60ed422f77c903379187954a,626b377229c10585ec392f89,626b3a296d81ac3f00fd6d95,,,,,,,,,,,,,,,,,,,,,,,l,1,3.9073,"[""0.799"",""0.331"",""0.461"",""0.702""]","[0,1,1,1]",0,16,16,16,1,1,1,,,1,FALSE,,,,,,,,,,,,,,,,,,,,,,,,,,,,,,
,,001,2022-04-29_03h08.46.302,classification_task,2021.2.3,Win32,60.0024001,60ed422f77c903379187954a,626b377229c10585ec392f89,626b3a296d81ac3f00fd6d95,,,,,,,,,,,,,,,,,,,,,,,a,1,6.0906,"[""0.923"",""0.374"",""0.609"",""0.967""]","[0,1,1,1]",0,17,17,17,1,0,0,,,1,FALSE,,,,,,,,,,,,,,,,,,,,,,,,,,,,,,
,,001,2022-04-29_03h08.46.302,classification_task,2021.2.3,Win32,60.0024001,60ed422f77c903379187954a,626b377229c10585ec392f89,626b3a296d81ac3f00fd6d95,,,,,,,,,,,,,,,,,,,,,,,l,1,3.7534,"[""0.077"",""0.331"",""0.461"",""0.801""]","[1,1,1,0]",0,18,18,18,1,1,1,,,1,FALSE,,,,,,,,,,,,,,,,,,,,,,,,,,,,,,
,,001,2022-04-29_03h08.46.302,classification_task,2021.2.3,Win32,60.0024001,60ed422f77c903379187954a,626b377229c10585ec392f89,626b3a296d81ac3f00fd6d95,,,,,,,,,,,,,,,,,,,,,,,a,1,5.1907,"[""0.258"",""0.374"",""0.609"",""0.035""]","[1,1,1,0]",0,19,19,19,1,0,0,,,1,FALSE,,,,,,,,,,,,,,,,,,,,,,,,,,,,,,
,,001,2022-04-29_03h08.46.302,classification_task,2021.2.3,Win32,60.0024001,60ed422f77c903379187954a,626b377229c10585ec392f89,626b3a296d81ac3f00fd6d95,,,,,,,,,,,,,,,,,,,,,,,a,1,6.0377,"[""0.199"",""0.032"",""0.755"",""0.883""]","[1,0,1,1]",0,20,20,20,1,0,1,,,1,FALSE,,,,,,,,,,,,,,,,,,,,,,,,,,,,,,
,,001,2022-04-29_03h08.46.302,classification_task,2021.2.3,Win32,60.0024001,60ed422f77c903379187954a,626b377229c10585ec392f89,626b3a296d81ac3f00fd6d95,,,,,,,,,,,,,,,,,,,,,,,l,1,3.259,"[""0.111"",""0.149"",""0.528"",""0.837""]","[1,0,1,1]",0,21,21,21,1,1,0,,,1,FALSE,,,,,,,,,,,,,,,,,,,,,,,,,,,,,,
,,001,2022-04-29_03h08.46.302,classification_task,2021.2.3,Win32,60.0024001,60ed422f77c903379187954a,626b377229c10585ec392f89,626b3a296d81ac3f00fd6d95,,,,,,,,,,,,,,,,,,,,,,,l,1,2.7065,"[""0.111"",""0.418"",""0.528"",""0.665""]","[1,1,1,0]",0,22,22,22,1,1,0,,,1,FALSE,,,,,,,,,,,,,,,,,,,,,,,,,,,,,,
,,001,2022-04-29_03h08.46.302,classification_task,2021.2.3,Win32,60.0024001,60ed422f77c903379187954a,626b377229c10585ec392f89,626b3a296d81ac3f00fd6d95,,,,,,,,,,,,,,,,,,,,,,,a,1,5.9282,"[""0.665"",""0.562"",""0.755"",""0.883""]","[0,1,1,1]",0,23,23,23,1,0,1,,,1,FALSE,,,,,,,,,,,,,,,,,,,,,,,,,,,,,,
,,001,2022-04-29_03h08.46.302,classification_task,2021.2.3,Win32,60.0024001,60ed422f77c903379187954a,626b377229c10585ec392f89,626b3a296d81ac3f00fd6d95,,,,,,,,,,,,,,,,,,,,,,,a,1,8.1608,"[""0.258"",""0.039"",""0.609"",""0.967""]","[1,0,1,1]",0,24,24,24,1,0,0,,,1,FALSE,,,,,,,,,,,,,,,,,,,,,,,,,,,,,,
,,001,2022-04-29_03h08.46.302,classification_task,2021.2.3,Win32,60.0024001,60ed422f77c903379187954a,626b377229c10585ec392f89,626b3a296d81ac3f00fd6d95,,,,,,,,,,,,,,,,,,,,,,,l,1,4.8005,"[""0.077"",""0.331"",""0.039"",""0.702""]","[1,1,0,1]",0,25,25,25,1,1,1,,,1,FALSE,,,,,,,,,,,,,,,,,,,,,,,,,,,,,,
,,001,2022-04-29_03h08.46.302,classification_task,2021.2.3,Win32,60.0024001,60ed422f77c903379187954a,626b377229c10585ec392f89,626b3a296d81ac3f00fd6d95,,,,,,,,,,,,,,,,,,,,,,,a,0,7.9204,"[""0.032"",""0.418"",""0.528"",""0.837""]","[0,1,1,1]",0,26,26,26,1,1,0,,,1,FALSE,,,,,,,,,,,,,,,,,,,,,,,,,,,,,,
,,001,2022-04-29_03h08.46.302,classification_task,2021.2.3,Win32,60.0024001,60ed422f77c903379187954a,626b377229c10585ec392f89,626b3a296d81ac3f00fd6d95,,,,,,,,,,,,,,,,,,,,,,,a,1,6.2417,"[""0.199"",""0.562"",""0.755"",""0.035""]","[1,1,1,0]",0,27,27,27,1,0,1,,,1,FALSE,,,,,,,,,,,,,,,,,,,,,,,,,,,,,,
,,001,2022-04-29_03h08.46.302,classification_task,2021.2.3,Win32,60.0024001,60ed422f77c903379187954a,626b377229c10585ec392f89,626b3a296d81ac3f00fd6d95,,,,,,,,,,,,,,,,,,,,,,,a,1,3.519,"[""0.199"",""0.562"",""0.666"",""0.883""]","[1,1,0,1]",0,28,28,28,1,0,1,,,1,FALSE,,,,,,,,,,,,,,,,,,,,,,,,,,,,,,
,,001,2022-04-29_03h08.46.302,classification_task,2021.2.3,Win32,60.0024001,60ed422f77c903379187954a,626b377229c10585ec392f89,626b3a296d81ac3f00fd6d95,,,,,,,,,,,,,,,,,,,,,,,l,1,7.1736,"[""0.077"",""0.033"",""0.461"",""0.702""]","[1,0,1,1]",0,29,29,29,1,1,1,,,1,FALSE,,,,,,,,,,,,,,,,,,,,,,,,,,,,,,
,,001,2022-04-29_03h08.46.302,classification_task,2021.2.3,Win32,60.0024001,60ed422f77c903379187954a,626b377229c10585ec392f89,626b3a296d81ac3f00fd6d95,,,,,,,,,,,,,,,,,,,,,,,l,1,3.6899,"[""0.111"",""0.418"",""0.801"",""0.837""]","[1,1,0,1]",0,30,30,30,1,1,0,,,1,FALSE,,,,,,,,,,,,,,,,,,,,,,,,,,,,,,
,,001,2022-04-29_03h08.46.302,classification_task,2021.2.3,Win32,60.0024001,60ed422f77c903379187954a,626b377229c10585ec392f89,626b3a296d81ac3f00fd6d95,,,,,,,,,,,,,,,,,,,,,,,a,1,5.436,"[""0.258"",""0.374"",""0.035"",""0.967""]","[1,1,0,1]",0,31,31,31,1,0,0,,,1,FALSE,,,,,,,,,,,,,,,,,,,,,,,,,,,,,,
,,001,2022-04-29_03h08.46.302,classification_task,2021.2.3,Win32,60.0024001,60ed422f77c903379187954a,626b377229c10585ec392f89,626b3a296d81ac3f00fd6d95,,,,,,,,,,,,,,,,,,,,,,,a,1,8.366,"[""0.258"",""0.374"",""0.609"",""0.033""]","[1,1,1,0]",0,32,32,32,1,0,0,,,1,FALSE,,,,,,,,,,,,,,,,,,,,,,,,,,,,,,
,,001,2022-04-29_03h08.46.302,classification_task,2021.2.3,Win32,60.0024001,60ed422f77c903379187954a,626b377229c10585ec392f89,626b3a296d81ac3f00fd6d95,,,,,,,,,,,,,,,,,,,,,,,l,1,7.6582,"[""0.077"",""0.331"",""0.461"",""0.801""]","[1,1,1,0]",0,33,33,33,1,1,1,,,1,FALSE,,,,,,,,,,,,,,,,,,,,,,,,,,,,,,
,,001,2022-04-29_03h08.46.302,classification_task,2021.2.3,Win32,60.0024001,60ed422f77c903379187954a,626b377229c10585ec392f89,626b3a296d81ac3f00fd6d95,,,,,,,,,,,,,,,,,,,,,,,a,1,3.8733,"[""0.199"",""0.562"",""0.027"",""0.883""]","[1,1,0,1]",0,34,34,34,1,0,1,,,1,FALSE,,,,,,,,,,,,,,,,,,,,,,,,,,,,,,
,,001,2022-04-29_03h08.46.302,classification_task,2021.2.3,Win32,60.0024001,60ed422f77c903379187954a,626b377229c10585ec392f89,626b3a296d81ac3f00fd6d95,,,,,,,,,,,,,,,,,,,,,,,l,1,3.7184,"[""0.111"",""0.418"",""0.039"",""0.837""]","[1,1,0,1]",0,35,35,35,1,1,0,,,1,FALSE,,,,,,,,,,,,,,,,,,,,,,,,,,,,,,
,,001,2022-04-29_03h08.46.302,classification_task,2021.2.3,Win32,60.0024001,60ed422f77c903379187954a,626b377229c10585ec392f89,626b3a296d81ac3f00fd6d95,,,,,,,,,,,,,,,,,,,,,,,a,0,2.8073,"[""0.077"",""0.923"",""0.461"",""0.702""]","[1,0,1,1]",0,36,36,36,1,1,1,,,1,FALSE,,,,,,,,,,,,,,,,,,,,,,,,,,,,,,
,,001,2022-04-29_03h08.46.302,classification_task,2021.2.3,Win32,60.0024001,60ed422f77c903379187954a,626b377229c10585ec392f89,626b3a296d81ac3f00fd6d95,,,,,,,,,,,,,,,,,,,,,,,a,0,3.1417,"[""0.111"",""0.027"",""0.528"",""0.837""]","[1,0,1,1]",0,37,37,37,1,1,0,,,1,FALSE,,,,,,,,,,,,,,,,,,,,,,,,,,,,,,
,,001,2022-04-29_03h08.46.302,classification_task,2021.2.3,Win32,60.0024001,60ed422f77c903379187954a,626b377229c10585ec392f89,626b3a296d81ac3f00fd6d95,,,,,,,,,,,,,,,,,,,,,,,l,0,2.9631,"[""0.258"",""0.648"",""0.609"",""0.967""]","[1,0,1,1]",0,38,38,38,1,0,0,,,1,FALSE,,,,,,,,,,,,,,,,,,,,,,,,,,,,,,
,,001,2022-04-29_03h08.46.302,classification_task,2021.2.3,Win32,60.0024001,60ed422f77c903379187954a,626b377229c10585ec392f89,626b3a296d81ac3f00fd6d95,,,,,,,,,,,,,,,,,,,,,,,a,0,3.9124,"[""0.077"",""0.331"",""0.039"",""0.702""]","[1,1,0,1]",0,39,39,39,1,1,1,,,1,FALSE,,,,,,,,,,,,,,,,,,,,,,,,,,,,,,
,,001,2022-04-29_03h08.46.302,classification_task,2021.2.3,Win32,60.0024001,60ed422f77c903379187954a,626b377229c10585ec392f89,626b3a296d81ac3f00fd6d95,,,,,,,,,,,,,,,,,,,,,,,a,1,3.2552,"[""0.149"",""0.562"",""0.755"",""0.883""]","[0,1,1,1]",0,40,40,40,1,0,1,,,1,FALSE,,,,,,,,,,,,,,,,,,,,,,,,,,,,,,
,,001,2022-04-29_03h08.46.302,classification_task,2021.2.3,Win32,60.0024001,60ed422f77c903379187954a,626b377229c10585ec392f89,626b3a296d81ac3f00fd6d95,,,,,,,,,,,,,,,,,,,,,,,a,0,4.1616,"[""0.799"",""0.418"",""0.528"",""0.837""]","[0,1,1,1]",0,41,41,41,1,1,0,,,1,FALSE,,,,,,,,,,,,,,,,,,,,,,,,,,,,,,
,,001,2022-04-29_03h08.46.302,classification_task,2021.2.3,Win32,60.0024001,60ed422f77c903379187954a,626b377229c10585ec392f89,626b3a296d81ac3f00fd6d95,,,,,,,,,,,,,,,,,,,,,,,a,0,2.664,"[""0.111"",""0.418"",""0.528"",""0.039""]","[1,1,1,0]",0,42,42,42,1,1,0,,,1,FALSE,,,,,,,,,,,,,,,,,,,,,,,,,,,,,,
,,001,2022-04-29_03h08.46.302,classification_task,2021.2.3,Win32,60.0024001,60ed422f77c903379187954a,626b377229c10585ec392f89,626b3a296d81ac3f00fd6d95,,,,,,,,,,,,,,,,,,,,,,,l,0,3.3467,"[""0.199"",""0.562"",""0.755"",""0.039""]","[1,1,1,0]",0,43,43,43,1,0,1,,,1,FALSE,,,,,,,,,,,,,,,,,,,,,,,,,,,,,,
,,001,2022-04-29_03h08.46.302,classification_task,2021.2.3,Win32,60.0024001,60ed422f77c903379187954a,626b377229c10585ec392f89,626b3a296d81ac3f00fd6d95,,,,,,,,,,,,,,,,,,,,,,,l,0,3.6421,"[""0.199"",""0.799"",""0.755"",""0.883""]","[1,0,1,1]",0,44,44,44,1,0,1,,,1,FALSE,,,,,,,,,,,,,,,,,,,,,,,,,,,,,,
,,001,2022-04-29_03h08.46.302,classification_task,2021.2.3,Win32,60.0024001,60ed422f77c903379187954a,626b377229c10585ec392f89,626b3a296d81ac3f00fd6d95,,,,,,,,,,,,,,,,,,,,,,,l,0,3.8622,"[""0.258"",""0.374"",""0.801"",""0.967""]","[1,1,0,1]",0,45,45,45,1,0,0,,,1,FALSE,,,,,,,,,,,,,,,,,,,,,,,,,,,,,,
,,001,2022-04-29_03h08.46.302,classification_task,2021.2.3,Win32,60.0024001,60ed422f77c903379187954a,626b377229c10585ec392f89,626b3a296d81ac3f00fd6d95,,,,,,,,,,,,,,,,,,,,,,,l,0,4.2436,"[""0.149"",""0.374"",""0.609"",""0.967""]","[0,1,1,1]",0,46,46,46,1,0,0,,,1,FALSE,,,,,,,,,,,,,,,,,,,,,,,,,,,,,,
,,001,2022-04-29_03h08.46.302,classification_task,2021.2.3,Win32,60.0024001,60ed422f77c903379187954a,626b377229c10585ec392f89,626b3a296d81ac3f00fd6d95,,,,,,,,,,,,,,,,,,,,,,,a,0,2.1739,"[""0.801"",""0.331"",""0.461"",""0.702""]","[0,1,1,1]",0,47,47,47,1,1,1,,,1,FALSE,,,,,,,,,,,,,,,,,,,,,,,,,,,,,,
,,001,2022-04-29_03h08.46.302,classification_task,2021.2.3,Win32,60.0024001,60ed422f77c903379187954a,626b377229c10585ec392f89,626b3a296d81ac3f00fd6d95,,,,,,,,,,,,,,,,,,,,,,,a,1,1.2399,"[""0.258"",""0.923"",""0.609"",""0.967""]","[1,0,1,1]",0,48,48,48,1,0,0,,,1,FALSE,,,,,,,,,,,,,,,,,,,,,,,,,,,,,,
,,001,2022-04-29_03h08.46.302,classification_task,2021.2.3,Win32,60.0024001,60ed422f77c903379187954a,626b377229c10585ec392f89,626b3a296d81ac3f00fd6d95,,,,,,,,,,,,,,,,,,,,,,,a,1,1.5814,"[""0.199"",""0.562"",""0.033"",""0.883""]","[1,1,0,1]",0,49,49,49,1,0,1,,,1,FALSE,,,,,,,,,,,,,,,,,,,,,,,,,,,,,,
,,001,2022-04-29_03h08.46.302,classification_task,2021.2.3,Win32,60.0024001,60ed422f77c903379187954a,626b377229c10585ec392f89,626b3a296d81ac3f00fd6d95,,,,,,,,,,,,,,,,,,,,,,,a,0,1.5689,"[""0.039"",""0.331"",""0.461"",""0.702""]","[0,1,1,1]",0,50,50,50,1,1,1,,,1,FALSE,,,,,,,,,,,,,,,,,,,,,,,,,,,,,,
,,001,2022-04-29_03h08.46.302,classification_task,2021.2.3,Win32,60.0024001,60ed422f77c903379187954a,626b377229c10585ec392f89,626b3a296d81ac3f00fd6d95,,,,,,,,,,,,,,,,,,,,,,,a,1,1.4233,"[""0.801"",""0.562"",""0.755"",""0.883""]","[0,1,1,1]",0,51,51,51,1,0,1,,,1,FALSE,,,,,,,,,,,,,,,,,,,,,,,,,,,,,,
,,001,2022-04-29_03h08.46.302,classification_task,2021.2.3,Win32,60.0024001,60ed422f77c903379187954a,626b377229c10585ec392f89,626b3a296d81ac3f00fd6d95,,,,,,,,,,,,,,,,,,,,,,,a,0,2.0879,"[""0.111"",""0.027"",""0.528"",""0.837""]","[1,0,1,1]",0,52,52,52,1,1,0,,,1,FALSE,,,,,,,,,,,,,,,,,,,,,,,,,,,,,,
,,001,2022-04-29_03h08.46.302,classification_task,2021.2.3,Win32,60.0024001,60ed422f77c903379187954a,626b377229c10585ec392f89,626b3a296d81ac3f00fd6d95,,,,,,,,,,,,,,,,,,,,,,,a,0,1.8866,"[""0.111"",""0.418"",""0.665"",""0.837""]","[1,1,0,1]",0,53,53,53,1,1,0,,,1,FALSE,,,,,,,,,,,,,,,,,,,,,,,,,,,,,,
,,001,2022-04-29_03h08.46.302,classification_task,2021.2.3,Win32,60.0024001,60ed422f77c903379187954a,626b377229c10585ec392f89,626b3a296d81ac3f00fd6d95,,,,,,,,,,,,,,,,,,,,,,,a,1,1.7557,"[""0.258"",""0.374"",""0.609"",""0.923""]","[1,1,1,0]",0,54,54,54,1,0,0,,,1,FALSE,,,,,,,,,,,,,,,,,,,,,,,,,,,,,,
,,001,2022-04-29_03h08.46.302,classification_task,2021.2.3,Win32,60.0024001,60ed422f77c903379187954a,626b377229c10585ec392f89,626b3a296d81ac3f00fd6d95,,,,,,,,,,,,,,,,,,,,,,,a,1,2.4497,"[""0.199"",""0.039"",""0.755"",""0.883""]","[1,0,1,1]",0,55,55,55,1,0,1,,,1,FALSE,,,,,,,,,,,,,,,,,,,,,,,,,,,,,,
,,001,2022-04-29_03h08.46.302,classification_task,2021.2.3,Win32,60.0024001,60ed422f77c903379187954a,626b377229c10585ec392f89,626b3a296d81ac3f00fd6d95,,,,,,,,,,,,,,,,,,,,,,,a,1,2.5138,"[""0.799"",""0.374"",""0.609"",""0.967""]","[0,1,1,1]",0,56,56,56,1,0,0,,,1,FALSE,,,,,,,,,,,,,,,,,,,,,,,,,,,,,,
,,001,2022-04-29_03h08.46.302,classification_task,2021.2.3,Win32,60.0024001,60ed422f77c903379187954a,626b377229c10585ec392f89,626b3a296d81ac3f00fd6d95,,,,,,,,,,,,,,,,,,,,,,,l,0,1.4863,"[""0.199"",""0.562"",""0.755"",""0.799""]","[1,1,1,0]",0,57,57,57,1,0,1,,,1,FALSE,,,,,,,,,,,,,,,,,,,,,,,,,,,,,,
,,001,2022-04-29_03h08.46.302,classification_task,2021.2.3,Win32,60.0024001,60ed422f77c903379187954a,626b377229c10585ec392f89,626b3a296d81ac3f00fd6d95,,,,,,,,,,,,,,,,,,,,,,,l,1,1.2105,"[""0.077"",""0.039"",""0.461"",""0.702""]","[1,0,1,1]",0,58,58,58,1,1,1,,,1,FALSE,,,,,,,,,,,,,,,,,,,,,,,,,,,,,,
,,001,2022-04-29_03h08.46.302,classification_task,2021.2.3,Win32,60.0024001,60ed422f77c903379187954a,626b377229c10585ec392f89,626b3a296d81ac3f00fd6d95,,,,,,,,,,,,,,,,,,,,,,,l,1,1.4362,"[""0.665"",""0.418"",""0.528"",""0.837""]","[0,1,1,1]",0,59,59,59,1,1,0,,,1,FALSE,,,,,,,,,,,,,,,,,,,,,,,,,,,,,,
,,001,2022-04-29_03h08.46.302,classification_task,2021.2.3,Win32,60.0024001,60ed422f77c903379187954a,626b377229c10585ec392f89,626b3a296d81ac3f00fd6d95,,,,,,,,,,,,,,,,,,,,,,,l,1,1.9336,"[""0.111"",""0.418"",""0.528"",""0.039""]","[1,1,1,0]",0,60,60,60,1,1,0,,,1,FALSE,,,,,,,,,,,,,,,,,,,,,,,,,,,,,,
,,001,2022-04-29_03h08.46.302,classification_task,2021.2.3,Win32,60.0024001,60ed422f77c903379187954a,626b377229c10585ec392f89,626b3a296d81ac3f00fd6d95,,,,,,,,,,,,,,,,,,,,,,,a,1,1.3284,"[""0.258"",""0.374"",""0.801"",""0.967""]","[1,1,0,1]",0,61,61,61,1,0,0,,,1,FALSE,,,,,,,,,,,,,,,,,,,,,,,,,,,,,,
,,001,2022-04-29_03h08.46.302,classification_task,2021.2.3,Win32,60.0024001,60ed422f77c903379187954a,626b377229c10585ec392f89,626b3a296d81ac3f00fd6d95,,,,,,,,,,,,,,,,,,,,,,,a,0,1.6824,"[""0.077"",""0.331"",""0.461"",""0.801""]","[1,1,1,0]",0,62,62,62,1,1,1,,,1,FALSE,,,,,,,,,,,,,,,,,,,,,,,,,,,,,,
,,001,2022-04-29_03h08.46.302,classification_task,2021.2.3,Win32,60.0024001,60ed422f77c903379187954a,626b377229c10585ec392f89,626b3a296d81ac3f00fd6d95,,,,,,,,,,,,,,,,,,,,,,,a,0,1.1214,"[""0.077"",""0.331"",""0.033"",""0.702""]","[1,1,0,1]",0,63,63,63,1,1,1,,,1,FALSE,,,,,,,,,,,,,,,,,,,,,,,,,,,,,,
,,001,2022-04-29_03h08.46.302,classification_task,2021.2.3,Win32,60.0024001,60ed422f77c903379187954a,626b377229c10585ec392f89,626b3a296d81ac3f00fd6d95,,,,,,,,,,,,,,,,,,,,,,,,,,,,,,,,,,,,,,,0, ,,0,8.858024691,586.198,0,0,0,0,1,2,1,,,,,,,,,,,,,,,,,
,,001,2022-04-29_03h08.46.302,classification_task,2021.2.3,Win32,60.0024001,60ed422f77c903379187954a,626b377229c10585ec392f89,626b3a296d81ac3f00fd6d95,,,,,,,,,,,,,,,,,,,,,,,,,,,,,,,,,,,,,,,1,  ,,0,9.443617725,594.2393,0,0,0,0,1,2,1,,,,,,,,,,,,,,,,,
,,001,2022-04-29_03h08.46.302,classification_task,2021.2.3,Win32,60.0024001,60ed422f77c903379187954a,626b377229c10585ec392f89,626b3a296d81ac3f00fd6d95,,,,,,,,,,,,,,,,,,,,,,,,,,,,,,,,,,,,,,,2,  ,,0,7.996858466,608.3195,0,0,0,0,1,2,1,,,,,,,,,,,,,,,,,
,,001,2022-04-29_03h08.46.302,classification_task,2021.2.3,Win32,60.0024001,60ed422f77c903379187954a,626b377229c10585ec392f89,626b3a296d81ac3f00fd6d95,,,,,,,,,,,,,,,,,,,,,,,,,,,,,,,,,,,,,,,,,,,,,0,0,0,0,1,,1,,,,,,,,,,,,,,,,,
,,001,2022-04-29_03h08.46.302,classification_task,2021.2.3,Win32,60.0024001,60ed422f77c903379187954a,626b377229c10585ec392f89,626b3a296d81ac3f00fd6d95,,,,,,,,,,,,,,,,,,,,,space,14.4875,a,0,5.9981,"[""0.111"",""0.665"",""0.528"",""0.837""]","[1,0,1,1]",0,0,0,0,1,1,0,,,1,FALSE,,,,,,,,,,,,,,,,,,,,,,,,,,,,,,
,,001,2022-04-29_03h08.46.302,classification_task,2021.2.3,Win32,60.0024001,60ed422f77c903379187954a,626b377229c10585ec392f89,626b3a296d81ac3f00fd6d95,,,,,,,,,,,,,,,,,,,,,,,a,1,6.1134,"[""0.799"",""0.374"",""0.609"",""0.967""]","[0,1,1,1]",0,1,1,1,1,0,0,,,1,FALSE,,,,,,,,,,,,,,,,,,,,,,,,,,,,,,
,,001,2022-04-29_03h08.46.302,classification_task,2021.2.3,Win32,60.0024001,60ed422f77c903379187954a,626b377229c10585ec392f89,626b3a296d81ac3f00fd6d95,,,,,,,,,,,,,,,,,,,,,,,l,1,3.8893,"[""0.077"",""0.331"",""0.461"",""0.155""]","[1,1,1,0]",0,2,2,2,1,1,1,,,1,FALSE,,,,,,,,,,,,,,,,,,,,,,,,,,,,,,
,,001,2022-04-29_03h08.46.302,classification_task,2021.2.3,Win32,60.0024001,60ed422f77c903379187954a,626b377229c10585ec392f89,626b3a296d81ac3f00fd6d95,,,,,,,,,,,,,,,,,,,,,,,a,1,2.9058,"[""0.258"",""0.033"",""0.609"",""0.967""]","[1,0,1,1]",0,3,3,3,1,0,0,,,1,FALSE,,,,,,,,,,,,,,,,,,,,,,,,,,,,,,
,,001,2022-04-29_03h08.46.302,classification_task,2021.2.3,Win32,60.0024001,60ed422f77c903379187954a,626b377229c10585ec392f89,626b3a296d81ac3f00fd6d95,,,,,,,,,,,,,,,,,,,,,,,a,1,3.836,"[""0.199"",""0.562"",""0.799"",""0.883""]","[1,1,0,1]",0,4,4,4,1,0,1,,,1,FALSE,,,,,,,,,,,,,,,,,,,,,,,,,,,,,,
,,001,2022-04-29_03h08.46.302,classification_task,2021.2.3,Win32,60.0024001,60ed422f77c903379187954a,626b377229c10585ec392f89,626b3a296d81ac3f00fd6d95,,,,,,,,,,,,,,,,,,,,,,,a,1,2.8481,"[""0.258"",""0.374"",""0.035"",""0.967""]","[1,1,0,1]",0,5,5,5,1,0,0,,,1,FALSE,,,,,,,,,,,,,,,,,,,,,,,,,,,,,,
,,001,2022-04-29_03h08.46.302,classification_task,2021.2.3,Win32,60.0024001,60ed422f77c903379187954a,626b377229c10585ec392f89,626b3a296d81ac3f00fd6d95,,,,,,,,,,,,,,,,,,,,,,,a,0,1.8105,"[""0.077"",""0.799"",""0.461"",""0.702""]","[1,0,1,1]",0,6,6,6,1,1,1,,,1,FALSE,,,,,,,,,,,,,,,,,,,,,,,,,,,,,,
,,001,2022-04-29_03h08.46.302,classification_task,2021.2.3,Win32,60.0024001,60ed422f77c903379187954a,626b377229c10585ec392f89,626b3a296d81ac3f00fd6d95,,,,,,,,,,,,,,,,,,,,,,,l,0,1.6448,"[""0.199"",""0.033"",""0.755"",""0.883""]","[1,0,1,1]",0,7,7,7,1,0,1,,,1,FALSE,,,,,,,,,,,,,,,,,,,,,,,,,,,,,,
,,001,2022-04-29_03h08.46.302,classification_task,2021.2.3,Win32,60.0024001,60ed422f77c903379187954a,626b377229c10585ec392f89,626b3a296d81ac3f00fd6d95,,,,,,,,,,,,,,,,,,,,,,,l,0,1.3478,"[""0.258"",""0.374"",""0.609"",""0.149""]","[1,1,1,0]",0,8,8,8,1,0,0,,,1,FALSE,,,,,,,,,,,,,,,,,,,,,,,,,,,,,,
,,001,2022-04-29_03h08.46.302,classification_task,2021.2.3,Win32,60.0024001,60ed422f77c903379187954a,626b377229c10585ec392f89,626b3a296d81ac3f00fd6d95,,,,,,,,,,,,,,,,,,,,,,,a,1,1.4979,"[""0.199"",""0.562"",""0.755"",""0.665""]","[1,1,1,0]",0,9,9,9,1,0,1,,,1,FALSE,,,,,,,,,,,,,,,,,,,,,,,,,,,,,,
,,001,2022-04-29_03h08.46.302,classification_task,2021.2.3,Win32,60.0024001,60ed422f77c903379187954a,626b377229c10585ec392f89,626b3a296d81ac3f00fd6d95,,,,,,,,,,,,,,,,,,,,,,,a,0,2.844,"[""0.032"",""0.418"",""0.528"",""0.837""]","[0,1,1,1]",0,10,10,10,1,1,0,,,1,FALSE,,,,,,,,,,,,,,,,,,,,,,,,,,,,,,
,,001,2022-04-29_03h08.46.302,classification_task,2021.2.3,Win32,60.0024001,60ed422f77c903379187954a,626b377229c10585ec392f89,626b3a296d81ac3f00fd6d95,,,,,,,,,,,,,,,,,,,,,,,a,0,2.4611,"[""0.077"",""0.331"",""0.039"",""0.702""]","[1,1,0,1]",0,11,11,11,1,1,1,,,1,FALSE,,,,,,,,,,,,,,,,,,,,,,,,,,,,,,
,,001,2022-04-29_03h08.46.302,classification_task,2021.2.3,Win32,60.0024001,60ed422f77c903379187954a,626b377229c10585ec392f89,626b3a296d81ac3f00fd6d95,,,,,,,,,,,,,,,,,,,,,,,a,0,1.9562,"[""0.111"",""0.418"",""0.039"",""0.837""]","[1,1,0,1]",0,12,12,12,1,1,0,,,1,FALSE,,,,,,,,,,,,,,,,,,,,,,,,,,,,,,
,,001,2022-04-29_03h08.46.302,classification_task,2021.2.3,Win32,60.0024001,60ed422f77c903379187954a,626b377229c10585ec392f89,626b3a296d81ac3f00fd6d95,,,,,,,,,,,,,,,,,,,,,,,l,1,0.628,"[""0.032"",""0.331"",""0.461"",""0.702""]","[0,1,1,1]",0,13,13,13,1,1,1,,,1,FALSE,,,,,,,,,,,,,,,,,,,,,,,,,,,,,,
,,001,2022-04-29_03h08.46.302,classification_task,2021.2.3,Win32,60.0024001,60ed422f77c903379187954a,626b377229c10585ec392f89,626b3a296d81ac3f00fd6d95,,,,,,,,,,,,,,,,,,,,,,,l,1,0.8702,"[""0.111"",""0.418"",""0.528"",""0.801""]","[1,1,1,0]",0,14,14,14,1,1,0,,,1,FALSE,,,,,,,,,,,,,,,,,,,,,,,,,,,,,,
,,001,2022-04-29_03h08.46.302,classification_task,2021.2.3,Win32,60.0024001,60ed422f77c903379187954a,626b377229c10585ec392f89,626b3a296d81ac3f00fd6d95,,,,,,,,,,,,,,,,,,,,,,,l,0,0.9324,"[""0.666"",""0.562"",""0.755"",""0.883""]","[0,1,1,1]",0,15,15,15,1,0,1,,,1,FALSE,,,,,,,,,,,,,,,,,,,,,,,,,,,,,,
,,001,2022-04-29_03h08.46.302,classification_task,2021.2.3,Win32,60.0024001,60ed422f77c903379187954a,626b377229c10585ec392f89,626b3a296d81ac3f00fd6d95,,,,,,,,,,,,,,,,,,,,,,,a,1,0.5913,"[""0.258"",""0.374"",""0.609"",""0.801""]","[1,1,1,0]",0,16,16,16,1,0,0,,,1,FALSE,,,,,,,,,,,,,,,,,,,,,,,,,,,,,,
,,001,2022-04-29_03h08.46.302,classification_task,2021.2.3,Win32,60.0024001,60ed422f77c903379187954a,626b377229c10585ec392f89,626b3a296d81ac3f00fd6d95,,,,,,,,,,,,,,,,,,,,,,,a,0,1.5767,"[""0.111"",""0.418"",""0.528"",""0.035""]","[1,1,1,0]",0,17,17,17,1,1,0,,,1,FALSE,,,,,,,,,,,,,,,,,,,,,,,,,,,,,,
,,001,2022-04-29_03h08.46.302,classification_task,2021.2.3,Win32,60.0024001,60ed422f77c903379187954a,626b377229c10585ec392f89,626b3a296d81ac3f00fd6d95,,,,,,,,,,,,,,,,,,,,,,,l,1,3.0784,"[""0.111"",""0.155"",""0.528"",""0.837""]","[1,0,1,1]",0,18,18,18,1,1,0,,,1,FALSE,,,,,,,,,,,,,,,,,,,,,,,,,,,,,,
,,001,2022-04-29_03h08.46.302,classification_task,2021.2.3,Win32,60.0024001,60ed422f77c903379187954a,626b377229c10585ec392f89,626b3a296d81ac3f00fd6d95,,,,,,,,,,,,,,,,,,,,,,,l,0,3.1488,"[""0.258"",""0.033"",""0.609"",""0.967""]","[1,0,1,1]",0,19,19,19,1,0,0,,,1,FALSE,,,,,,,,,,,,,,,,,,,,,,,,,,,,,,
,,001,2022-04-29_03h08.46.302,classification_task,2021.2.3,Win32,60.0024001,60ed422f77c903379187954a,626b377229c10585ec392f89,626b3a296d81ac3f00fd6d95,,,,,,,,,,,,,,,,,,,,,,,a,0,2.268,"[""0.035"",""0.418"",""0.528"",""0.837""]","[0,1,1,1]",0,20,20,20,1,1,0,,,1,FALSE,,,,,,,,,,,,,,,,,,,,,,,,,,,,,,
,,001,2022-04-29_03h08.46.302,classification_task,2021.2.3,Win32,60.0024001,60ed422f77c903379187954a,626b377229c10585ec392f89,626b3a296d81ac3f00fd6d95,,,,,,,,,,,,,,,,,,,,,,,a,1,2.4976,"[""0.258"",""0.374"",""0.155"",""0.967""]","[1,1,0,1]",0,21,21,21,1,0,0,,,1,FALSE,,,,,,,,,,,,,,,,,,,,,,,,,,,,,,
,,001,2022-04-29_03h08.46.302,classification_task,2021.2.3,Win32,60.0024001,60ed422f77c903379187954a,626b377229c10585ec392f89,626b3a296d81ac3f00fd6d95,,,,,,,,,,,,,,,,,,,,,,,a,1,2.6954,"[""0.155"",""0.374"",""0.609"",""0.967""]","[0,1,1,1]",0,22,22,22,1,0,0,,,1,FALSE,,,,,,,,,,,,,,,,,,,,,,,,,,,,,,
,,001,2022-04-29_03h08.46.302,classification_task,2021.2.3,Win32,60.0024001,60ed422f77c903379187954a,626b377229c10585ec392f89,626b3a296d81ac3f00fd6d95,,,,,,,,,,,,,,,,,,,,,,,a,1,2.3431,"[""0.199"",""0.027"",""0.755"",""0.883""]","[1,0,1,1]",0,23,23,23,1,0,1,,,1,FALSE,,,,,,,,,,,,,,,,,,,,,,,,,,,,,,
,,001,2022-04-29_03h08.46.302,classification_task,2021.2.3,Win32,60.0024001,60ed422f77c903379187954a,626b377229c10585ec392f89,626b3a296d81ac3f00fd6d95,,,,,,,,,,,,,,,,,,,,,,,a,1,3.061,"[""0.801"",""0.562"",""0.755"",""0.883""]","[0,1,1,1]",0,24,24,24,1,0,1,,,1,FALSE,,,,,,,,,,,,,,,,,,,,,,,,,,,,,,
,,001,2022-04-29_03h08.46.302,classification_task,2021.2.3,Win32,60.0024001,60ed422f77c903379187954a,626b377229c10585ec392f89,626b3a296d81ac3f00fd6d95,,,,,,,,,,,,,,,,,,,,,,,l,0,3.7066,"[""0.199"",""0.562"",""0.755"",""0.799""]","[1,1,1,0]",0,25,25,25,1,0,1,,,1,FALSE,,,,,,,,,,,,,,,,,,,,,,,,,,,,,,
,,001,2022-04-29_03h08.46.302,classification_task,2021.2.3,Win32,60.0024001,60ed422f77c903379187954a,626b377229c10585ec392f89,626b3a296d81ac3f00fd6d95,,,,,,,,,,,,,,,,,,,,,,,a,0,1.2281,"[""0.111"",""0.418"",""0.155"",""0.837""]","[1,1,0,1]",0,26,26,26,1,1,0,,,1,FALSE,,,,,,,,,,,,,,,,,,,,,,,,,,,,,,
,,001,2022-04-29_03h08.46.302,classification_task,2021.2.3,Win32,60.0024001,60ed422f77c903379187954a,626b377229c10585ec392f89,626b3a296d81ac3f00fd6d95,,,,,,,,,,,,,,,,,,,,,,,a,1,0.4974,"[""0.199"",""0.562"",""0.033"",""0.883""]","[1,1,0,1]",0,27,27,27,1,0,1,,,1,FALSE,,,,,,,,,,,,,,,,,,,,,,,,,,,,,,
,,001,2022-04-29_03h08.46.302,classification_task,2021.2.3,Win32,60.0024001,60ed422f77c903379187954a,626b377229c10585ec392f89,626b3a296d81ac3f00fd6d95,,,,,,,,,,,,,,,,,,,,,,,a,0,2.8775,"[""0.077"",""0.331"",""0.799"",""0.702""]","[1,1,0,1]",0,28,28,28,1,1,1,,,1,FALSE,,,,,,,,,,,,,,,,,,,,,,,,,,,,,,
,,001,2022-04-29_03h08.46.302,classification_task,2021.2.3,Win32,60.0024001,60ed422f77c903379187954a,626b377229c10585ec392f89,626b3a296d81ac3f00fd6d95,,,,,,,,,,,,,,,,,,,,,,,a,0,1.124,"[""0.077"",""0.155"",""0.461"",""0.702""]","[1,0,1,1]",0,29,29,29,1,1,1,,,1,FALSE,,,,,,,,,,,,,,,,,,,,,,,,,,,,,,
,,001,2022-04-29_03h08.46.302,classification_task,2021.2.3,Win32,60.0024001,60ed422f77c903379187954a,626b377229c10585ec392f89,626b3a296d81ac3f00fd6d95,,,,,,,,,,,,,,,,,,,,,,,a,0,0.9105,"[""0.077"",""0.331"",""0.461"",""0.149""]","[1,1,1,0]",0,30,30,30,1,1,1,,,1,FALSE,,,,,,,,,,,,,,,,,,,,,,,,,,,,,,
,,001,2022-04-29_03h08.46.302,classification_task,2021.2.3,Win32,60.0024001,60ed422f77c903379187954a,626b377229c10585ec392f89,626b3a296d81ac3f00fd6d95,,,,,,,,,,,,,,,,,,,,,,,l,1,0.284,"[""0.039"",""0.331"",""0.461"",""0.702""]","[0,1,1,1]",0,31,31,31,1,1,1,,,1,FALSE,,,,,,,,,,,,,,,,,,,,,,,,,,,,,,
,,001,2022-04-29_03h08.46.302,classification_task,2021.2.3,Win32,60.0024001,60ed422f77c903379187954a,626b377229c10585ec392f89,626b3a296d81ac3f00fd6d95,,,,,,,,,,,,,,,,,,,,,,,l,0,0.4312,"[""0.035"",""0.562"",""0.755"",""0.883""]","[0,1,1,1]",0,32,32,32,1,0,1,,,1,FALSE,,,,,,,,,,,,,,,,,,,,,,,,,,,,,,
,,001,2022-04-29_03h08.46.302,classification_task,2021.2.3,Win32,60.0024001,60ed422f77c903379187954a,626b377229c10585ec392f89,626b3a296d81ac3f00fd6d95,,,,,,,,,,,,,,,,,,,,,,,a,0,0.3167,"[""0.155"",""0.418"",""0.528"",""0.837""]","[0,1,1,1]",0,33,33,33,1,1,0,,,1,FALSE,,,,,,,,,,,,,,,,,,,,,,,,,,,,,,
,,001,2022-04-29_03h08.46.302,classification_task,2021.2.3,Win32,60.0024001,60ed422f77c903379187954a,626b377229c10585ec392f89,626b3a296d81ac3f00fd6d95,,,,,,,,,,,,,,,,,,,,,,,a,0,0.3467,"[""0.111"",""0.418"",""0.923"",""0.837""]","[1,1,0,1]",0,34,34,34,1,1,0,,,1,FALSE,,,,,,,,,,,,,,,,,,,,,,,,,,,,,,
,,001,2022-04-29_03h08.46.302,classification_task,2021.2.3,Win32,60.0024001,60ed422f77c903379187954a,626b377229c10585ec392f89,626b3a296d81ac3f00fd6d95,,,,,,,,,,,,,,,,,,,,,,,a,1,0.6851,"[""0.258"",""0.374"",""0.799"",""0.967""]","[1,1,0,1]",0,35,35,35,1,0,0,,,1,FALSE,,,,,,,,,,,,,,,,,,,,,,,,,,,,,,
,,001,2022-04-29_03h08.46.302,classification_task,2021.2.3,Win32,60.0024001,60ed422f77c903379187954a,626b377229c10585ec392f89,626b3a296d81ac3f00fd6d95,,,,,,,,,,,,,,,,,,,,,,,a,1,2.0056,"[""0.199"",""0.149"",""0.755"",""0.883""]","[1,0,1,1]",0,36,36,36,1,0,1,,,1,FALSE,,,,,,,,,,,,,,,,,,,,,,,,,,,,,,
,,001,2022-04-29_03h08.46.302,classification_task,2021.2.3,Win32,60.0024001,60ed422f77c903379187954a,626b377229c10585ec392f89,626b3a296d81ac3f00fd6d95,,,,,,,,,,,,,,,,,,,,,,,a,1,1.358,"[""0.199"",""0.562"",""0.755"",""0.035""]","[1,1,1,0]",0,37,37,37,1,0,1,,,1,FALSE,,,,,,,,,,,,,,,,,,,,,,,,,,,,,,
,,001,2022-04-29_03h08.46.302,classification_task,2021.2.3,Win32,60.0024001,60ed422f77c903379187954a,626b377229c10585ec392f89,626b3a296d81ac3f00fd6d95,,,,,,,,,,,,,,,,,,,,,,,a,0,1.1193,"[""0.077"",""0.331"",""0.039"",""0.702""]","[1,1,0,1]",0,38,38,38,1,1,1,,,1,FALSE,,,,,,,,,,,,,,,,,,,,,,,,,,,,,,
,,001,2022-04-29_03h08.46.302,classification_task,2021.2.3,Win32,60.0024001,60ed422f77c903379187954a,626b377229c10585ec392f89,626b3a296d81ac3f00fd6d95,,,,,,,,,,,,,,,,,,,,,,,l,1,0.2097,"[""0.111"",""0.799"",""0.528"",""0.837""]","[1,0,1,1]",0,39,39,39,1,1,0,,,1,FALSE,,,,,,,,,,,,,,,,,,,,,,,,,,,,,,
,,001,2022-04-29_03h08.46.302,classification_task,2021.2.3,Win32,60.0024001,60ed422f77c903379187954a,626b377229c10585ec392f89,626b3a296d81ac3f00fd6d95,,,,,,,,,,,,,,,,,,,,,,,l,0,0.9293,"[""0.258"",""0.801"",""0.609"",""0.967""]","[1,0,1,1]",0,40,40,40,1,0,0,,,1,FALSE,,,,,,,,,,,,,,,,,,,,,,,,,,,,,,
,,001,2022-04-29_03h08.46.302,classification_task,2021.2.3,Win32,60.0024001,60ed422f77c903379187954a,626b377229c10585ec392f89,626b3a296d81ac3f00fd6d95,,,,,,,,,,,,,,,,,,,,,,,a,1,0.3927,"[""0.258"",""0.374"",""0.609"",""0.799""]","[1,1,1,0]",0,41,41,41,1,0,0,,,1,FALSE,,,,,,,,,,,,,,,,,,,,,,,,,,,,,,
,,001,2022-04-29_03h08.46.302,classification_task,2021.2.3,Win32,60.0024001,60ed422f77c903379187954a,626b377229c10585ec392f89,626b3a296d81ac3f00fd6d95,,,,,,,,,,,,,,,,,,,,,,,a,0,1.7132,"[""0.077"",""0.331"",""0.461"",""0.648""]","[1,1,1,0]",0,42,42,42,1,1,1,,,1,FALSE,,,,,,,,,,,,,,,,,,,,,,,,,,,,,,
,,001,2022-04-29_03h08.46.302,classification_task,2021.2.3,Win32,60.0024001,60ed422f77c903379187954a,626b377229c10585ec392f89,626b3a296d81ac3f00fd6d95,,,,,,,,,,,,,,,,,,,,,,,l,1,2.2869,"[""0.111"",""0.418"",""0.528"",""0.035""]","[1,1,1,0]",0,43,43,43,1,1,0,,,1,FALSE,,,,,,,,,,,,,,,,,,,,,,,,,,,,,,
,,001,2022-04-29_03h08.46.302,classification_task,2021.2.3,Win32,60.0024001,60ed422f77c903379187954a,626b377229c10585ec392f89,626b3a296d81ac3f00fd6d95,,,,,,,,,,,,,,,,,,,,,,,l,1,2.1517,"[""0.077"",""0.149"",""0.461"",""0.702""]","[1,0,1,1]",0,44,44,44,1,1,1,,,1,FALSE,,,,,,,,,,,,,,,,,,,,,,,,,,,,,,
,,001,2022-04-29_03h08.46.302,classification_task,2021.2.3,Win32,60.0024001,60ed422f77c903379187954a,626b377229c10585ec392f89,626b3a296d81ac3f00fd6d95,,,,,,,,,,,,,,,,,,,,,,,a,0,1.9852,"[""0.039"",""0.331"",""0.461"",""0.702""]","[0,1,1,1]",0,45,45,45,1,1,1,,,1,FALSE,,,,,,,,,,,,,,,,,,,,,,,,,,,,,,
,,001,2022-04-29_03h08.46.302,classification_task,2021.2.3,Win32,60.0024001,60ed422f77c903379187954a,626b377229c10585ec392f89,626b3a296d81ac3f00fd6d95,,,,,,,,,,,,,,,,,,,,,,,l,0,0.2045,"[""0.199"",""0.562"",""0.027"",""0.883""]","[1,1,0,1]",0,46,46,46,1,0,1,,,1,FALSE,,,,,,,,,,,,,,,,,,,,,,,,,,,,,,
,,001,2022-04-29_03h08.46.302,classification_task,2021.2.3,Win32,60.0024001,60ed422f77c903379187954a,626b377229c10585ec392f89,626b3a296d81ac3f00fd6d95,,,,,,,,,,,,,,,,,,,,,,,a,1,0.4031,"[""0.665"",""0.374"",""0.609"",""0.967""]","[0,1,1,1]",0,47,47,47,1,0,0,,,1,FALSE,,,,,,,,,,,,,,,,,,,,,,,,,,,,,,
,,001,2022-04-29_03h08.46.302,classification_task,2021.2.3,Win32,60.0024001,60ed422f77c903379187954a,626b377229c10585ec392f89,626b3a296d81ac3f00fd6d95,,,,,,,,,,,,,,,,,,,,,,,a,1,0.9689,"[""0.258"",""0.648"",""0.609"",""0.967""]","[1,0,1,1]",0,48,48,48,1,0,0,,,1,FALSE,,,,,,,,,,,,,,,,,,,,,,,,,,,,,,
,,001,2022-04-29_03h08.46.302,classification_task,2021.2.3,Win32,60.0024001,60ed422f77c903379187954a,626b377229c10585ec392f89,626b3a296d81ac3f00fd6d95,,,,,,,,,,,,,,,,,,,,,,,a,1,1.8426,"[""0.258"",""0.374"",""0.609"",""0.665""]","[1,1,1,0]",0,49,49,49,1,0,0,,,1,FALSE,,,,,,,,,,,,,,,,,,,,,,,,,,,,,,
,,001,2022-04-29_03h08.46.302,classification_task,2021.2.3,Win32,60.0024001,60ed422f77c903379187954a,626b377229c10585ec392f89,626b3a296d81ac3f00fd6d95,,,,,,,,,,,,,,,,,,,,,,,a,1,3.0786,"[""0.199"",""0.562"",""0.755"",""0.027""]","[1,1,1,0]",0,50,50,50,1,0,1,,,1,FALSE,,,,,,,,,,,,,,,,,,,,,,,,,,,,,,
,,001,2022-04-29_03h08.46.302,classification_task,2021.2.3,Win32,60.0024001,60ed422f77c903379187954a,626b377229c10585ec392f89,626b3a296d81ac3f00fd6d95,,,,,,,,,,,,,,,,,,,,,,,a,0,1.7744,"[""0.111"",""0.039"",""0.528"",""0.837""]","[1,0,1,1]",0,51,51,51,1,1,0,,,1,FALSE,,,,,,,,,,,,,,,,,,,,,,,,,,,,,,
,,001,2022-04-29_03h08.46.302,classification_task,2021.2.3,Win32,60.0024001,60ed422f77c903379187954a,626b377229c10585ec392f89,626b3a296d81ac3f00fd6d95,,,,,,,,,,,,,,,,,,,,,,,l,1,0.3738,"[""0.799"",""0.418"",""0.528"",""0.837""]","[0,1,1,1]",0,52,52,52,1,1,0,,,1,FALSE,,,,,,,,,,,,,,,,,,,,,,,,,,,,,,
,,001,2022-04-29_03h08.46.302,classification_task,2021.2.3,Win32,60.0024001,60ed422f77c903379187954a,626b377229c10585ec392f89,626b3a296d81ac3f00fd6d95,,,,,,,,,,,,,,,,,,,,,,,l,1,0.6714,"[""0.111"",""0.418"",""0.648"",""0.837""]","[1,1,0,1]",0,53,53,53,1,1,0,,,1,FALSE,,,,,,,,,,,,,,,,,,,,,,,,,,,,,,
,,001,2022-04-29_03h08.46.302,classification_task,2021.2.3,Win32,60.0024001,60ed422f77c903379187954a,626b377229c10585ec392f89,626b3a296d81ac3f00fd6d95,,,,,,,,,,,,,,,,,,,,,,,l,1,1.4233,"[""0.077"",""0.331"",""0.801"",""0.702""]","[1,1,0,1]",0,54,54,54,1,1,1,,,1,FALSE,,,,,,,,,,,,,,,,,,,,,,,,,,,,,,
,,001,2022-04-29_03h08.46.302,classification_task,2021.2.3,Win32,60.0024001,60ed422f77c903379187954a,626b377229c10585ec392f89,626b3a296d81ac3f00fd6d95,,,,,,,,,,,,,,,,,,,,,,,l,0,0.8729,"[""0.199"",""0.032"",""0.755"",""0.883""]","[1,0,1,1]",0,55,55,55,1,0,1,,,1,FALSE,,,,,,,,,,,,,,,,,,,,,,,,,,,,,,
,,001,2022-04-29_03h08.46.302,classification_task,2021.2.3,Win32,60.0024001,60ed422f77c903379187954a,626b377229c10585ec392f89,626b3a296d81ac3f00fd6d95,,,,,,,,,,,,,,,,,,,,,,,a,0,0.2849,"[""0.799"",""0.331"",""0.461"",""0.702""]","[0,1,1,1]",0,56,56,56,1,1,1,,,1,FALSE,,,,,,,,,,,,,,,,,,,,,,,,,,,,,,
,,001,2022-04-29_03h08.46.302,classification_task,2021.2.3,Win32,60.0024001,60ed422f77c903379187954a,626b377229c10585ec392f89,626b3a296d81ac3f00fd6d95,,,,,,,,,,,,,,,,,,,,,,,a,1,0.2763,"[""0.199"",""0.562"",""0.039"",""0.883""]","[1,1,0,1]",0,57,57,57,1,0,1,,,1,FALSE,,,,,,,,,,,,,,,,,,,,,,,,,,,,,,
,,001,2022-04-29_03h08.46.302,classification_task,2021.2.3,Win32,60.0024001,60ed422f77c903379187954a,626b377229c10585ec392f89,626b3a296d81ac3f00fd6d95,,,,,,,,,,,,,,,,,,,,,,,a,0,2.5452,"[""0.077"",""0.331"",""0.461"",""0.799""]","[1,1,1,0]",0,58,58,58,1,1,1,,,1,FALSE,,,,,,,,,,,,,,,,,,,,,,,,,,,,,,
,,001,2022-04-29_03h08.46.302,classification_task,2021.2.3,Win32,60.0024001,60ed422f77c903379187954a,626b377229c10585ec392f89,626b3a296d81ac3f00fd6d95,,,,,,,,,,,,,,,,,,,,,,,l,0,0.2287,"[""0.801"",""0.374"",""0.609"",""0.967""]","[0,1,1,1]",0,59,59,59,1,0,0,,,1,FALSE,,,,,,,,,,,,,,,,,,,,,,,,,,,,,,
,,001,2022-04-29_03h08.46.302,classification_task,2021.2.3,Win32,60.0024001,60ed422f77c903379187954a,626b377229c10585ec392f89,626b3a296d81ac3f00fd6d95,,,,,,,,,,,,,,,,,,,,,,,a,1,0.2853,"[""0.027"",""0.562"",""0.755"",""0.883""]","[0,1,1,1]",0,60,60,60,1,0,1,,,1,FALSE,,,,,,,,,,,,,,,,,,,,,,,,,,,,,,
,,001,2022-04-29_03h08.46.302,classification_task,2021.2.3,Win32,60.0024001,60ed422f77c903379187954a,626b377229c10585ec392f89,626b3a296d81ac3f00fd6d95,,,,,,,,,,,,,,,,,,,,,,,a,1,1.859,"[""0.258"",""0.374"",""0.648"",""0.967""]","[1,1,0,1]",0,61,61,61,1,0,0,,,1,FALSE,,,,,,,,,,,,,,,,,,,,,,,,,,,,,,
,,001,2022-04-29_03h08.46.302,classification_task,2021.2.3,Win32,60.0024001,60ed422f77c903379187954a,626b377229c10585ec392f89,626b3a296d81ac3f00fd6d95,,,,,,,,,,,,,,,,,,,,,,,a,0,1.7476,"[""0.077"",""0.801"",""0.461"",""0.702""]","[1,0,1,1]",0,62,62,62,1,1,1,,,1,FALSE,,,,,,,,,,,,,,,,,,,,,,,,,,,,,,
,,001,2022-04-29_03h08.46.302,classification_task,2021.2.3,Win32,60.0024001,60ed422f77c903379187954a,626b377229c10585ec392f89,626b3a296d81ac3f00fd6d95,,,,,,,,,,,,,,,,,,,,,,,a,0,2.359,"[""0.111"",""0.418"",""0.528"",""0.033""]","[1,1,1,0]",0,63,63,63,1,1,0,,,1,FALSE,,,,,,,,,,,,,,,,,,,,,,,,,,,,,,
,,001,2022-04-29_03h08.46.302,classification_task,2021.2.3,Win32,60.0024001,60ed422f77c903379187954a,626b377229c10585ec392f89,626b3a296d81ac3f00fd6d95,,,,,,,,,,,,,,,,,,,,,,,,,,,,,,,,,,,,,,,0, ,,0,5.757826279,206.3041,0,1,1,1,1,2,2,,,,,,,,,,,,,,,,,
,,001,2022-04-29_03h08.46.302,classification_task,2021.2.3,Win32,60.0024001,60ed422f77c903379187954a,626b377229c10585ec392f89,626b3a296d81ac3f00fd6d95,,,,,,,,,,,,,,,,,,,,,,,,,,,,,,,,,,,,,,,1,  ,,0,8.651344797,209.4537,0,1,1,1,1,2,2,,,,,,,,,,,,,,,,,
,,001,2022-04-29_03h08.46.302,classification_task,2021.2.3,Win32,60.0024001,60ed422f77c903379187954a,626b377229c10585ec392f89,626b3a296d81ac3f00fd6d95,,,,,,,,,,,,,,,,,,,,,,,,,,,,,,,,,,,,,,,2,  ,,0,9.719190917,214.2003,0,1,1,1,1,2,2,,,,,,,,,,,,,,,,,
,,001,2022-04-29_03h08.46.302,classification_task,2021.2.3,Win32,60.0024001,60ed422f77c903379187954a,626b377229c10585ec392f89,626b3a296d81ac3f00fd6d95,,,,,,,,,,,,,,,,,,,,,,,,,,,,,,,,,,,,,,,,,,,,,0,1,1,1,1,,2,,,,,,,,,,,,,,,,,
,,001,2022-04-29_03h08.46.302,classification_task,2021.2.3,Win32,60.0024001,60ed422f77c903379187954a,626b377229c10585ec392f89,626b3a296d81ac3f00fd6d95,,,,,,,,,,,,,,,,,,,,,space,13.8354,a,1,6.9187,"[""0.199"",""0.799"",""0.755"",""0.883""]","[1,0,1,1]",0,0,0,0,1,0,1,,,1,FALSE,,,,,,,,,,,,,,,,,,,,,,,,,,,,,,
,,001,2022-04-29_03h08.46.302,classification_task,2021.2.3,Win32,60.0024001,60ed422f77c903379187954a,626b377229c10585ec392f89,626b3a296d81ac3f00fd6d95,,,,,,,,,,,,,,,,,,,,,,,a,1,3.9431,"[""0.666"",""0.374"",""0.609"",""0.967""]","[0,1,1,1]",0,1,1,1,1,0,0,,,1,FALSE,,,,,,,,,,,,,,,,,,,,,,,,,,,,,,
,,001,2022-04-29_03h08.46.302,classification_task,2021.2.3,Win32,60.0024001,60ed422f77c903379187954a,626b377229c10585ec392f89,626b3a296d81ac3f00fd6d95,,,,,,,,,,,,,,,,,,,,,,,l,0,1.828,"[""0.199"",""0.562"",""0.801"",""0.883""]","[1,1,0,1]",0,2,2,2,1,0,1,,,1,FALSE,,,,,,,,,,,,,,,,,,,,,,,,,,,,,,
,,001,2022-04-29_03h08.46.302,classification_task,2021.2.3,Win32,60.0024001,60ed422f77c903379187954a,626b377229c10585ec392f89,626b3a296d81ac3f00fd6d95,,,,,,,,,,,,,,,,,,,,,,,l,1,2.6563,"[""0.077"",""0.149"",""0.461"",""0.702""]","[1,0,1,1]",0,3,3,3,1,1,1,,,1,FALSE,,,,,,,,,,,,,,,,,,,,,,,,,,,,,,
,,001,2022-04-29_03h08.46.302,classification_task,2021.2.3,Win32,60.0024001,60ed422f77c903379187954a,626b377229c10585ec392f89,626b3a296d81ac3f00fd6d95,,,,,,,,,,,,,,,,,,,,,,,l,1,2.5938,"[""0.077"",""0.331"",""0.799"",""0.702""]","[1,1,0,1]",0,4,4,4,1,1,1,,,1,FALSE,,,,,,,,,,,,,,,,,,,,,,,,,,,,,,
,,001,2022-04-29_03h08.46.302,classification_task,2021.2.3,Win32,60.0024001,60ed422f77c903379187954a,626b377229c10585ec392f89,626b3a296d81ac3f00fd6d95,,,,,,,,,,,,,,,,,,,,,,,a,0,6.562,"[""0.111"",""0.418"",""0.801"",""0.837""]","[1,1,0,1]",0,5,5,5,1,1,0,,,1,FALSE,,,,,,,,,,,,,,,,,,,,,,,,,,,,,,
,,001,2022-04-29_03h08.46.302,classification_task,2021.2.3,Win32,60.0024001,60ed422f77c903379187954a,626b377229c10585ec392f89,626b3a296d81ac3f00fd6d95,,,,,,,,,,,,,,,,,,,,,,,a,0,2.1773,"[""0.077"",""0.331"",""0.461"",""0.027""]","[1,1,1,0]",0,6,6,6,1,1,1,,,1,FALSE,,,,,,,,,,,,,,,,,,,,,,,,,,,,,,
,,001,2022-04-29_03h08.46.302,classification_task,2021.2.3,Win32,60.0024001,60ed422f77c903379187954a,626b377229c10585ec392f89,626b3a296d81ac3f00fd6d95,,,,,,,,,,,,,,,,,,,,,,,a,0,2.5158,"[""0.111"",""0.032"",""0.528"",""0.837""]","[1,0,1,1]",0,7,7,7,1,1,0,,,1,FALSE,,,,,,,,,,,,,,,,,,,,,,,,,,,,,,
,,001,2022-04-29_03h08.46.302,classification_task,2021.2.3,Win32,60.0024001,60ed422f77c903379187954a,626b377229c10585ec392f89,626b3a296d81ac3f00fd6d95,,,,,,,,,,,,,,,,,,,,,,,a,1,1.5493,"[""0.258"",""0.374"",""0.609"",""0.035""]","[1,1,1,0]",0,8,8,8,1,0,0,,,1,FALSE,,,,,,,,,,,,,,,,,,,,,,,,,,,,,,
,,001,2022-04-29_03h08.46.302,classification_task,2021.2.3,Win32,60.0024001,60ed422f77c903379187954a,626b377229c10585ec392f89,626b3a296d81ac3f00fd6d95,,,,,,,,,,,,,,,,,,,,,,,l,1,6.4062,"[""0.111"",""0.418"",""0.528"",""0.035""]","[1,1,1,0]",0,9,9,9,1,1,0,,,1,FALSE,,,,,,,,,,,,,,,,,,,,,,,,,,,,,,
,,001,2022-04-29_03h08.46.302,classification_task,2021.2.3,Win32,60.0024001,60ed422f77c903379187954a,626b377229c10585ec392f89,626b3a296d81ac3f00fd6d95,,,,,,,,,,,,,,,,,,,,,,,l,0,1.5527,"[""0.199"",""0.562"",""0.755"",""0.666""]","[1,1,1,0]",0,10,10,10,1,0,1,,,1,FALSE,,,,,,,,,,,,,,,,,,,,,,,,,,,,,,
,,001,2022-04-29_03h08.46.302,classification_task,2021.2.3,Win32,60.0024001,60ed422f77c903379187954a,626b377229c10585ec392f89,626b3a296d81ac3f00fd6d95,,,,,,,,,,,,,,,,,,,,,,,a,1,1.3949,"[""0.665"",""0.562"",""0.755"",""0.883""]","[0,1,1,1]",0,11,11,11,1,0,1,,,1,FALSE,,,,,,,,,,,,,,,,,,,,,,,,,,,,,,
,,001,2022-04-29_03h08.46.302,classification_task,2021.2.3,Win32,60.0024001,60ed422f77c903379187954a,626b377229c10585ec392f89,626b3a296d81ac3f00fd6d95,,,,,,,,,,,,,,,,,,,,,,,a,1,2.7077,"[""0.258"",""0.374"",""0.923"",""0.967""]","[1,1,0,1]",0,12,12,12,1,0,0,,,1,FALSE,,,,,,,,,,,,,,,,,,,,,,,,,,,,,,
,,001,2022-04-29_03h08.46.302,classification_task,2021.2.3,Win32,60.0024001,60ed422f77c903379187954a,626b377229c10585ec392f89,626b3a296d81ac3f00fd6d95,,,,,,,,,,,,,,,,,,,,,,,l,1,1.4933,"[""0.801"",""0.418"",""0.528"",""0.837""]","[0,1,1,1]",0,13,13,13,1,1,0,,,1,FALSE,,,,,,,,,,,,,,,,,,,,,,,,,,,,,,
,,001,2022-04-29_03h08.46.302,classification_task,2021.2.3,Win32,60.0024001,60ed422f77c903379187954a,626b377229c10585ec392f89,626b3a296d81ac3f00fd6d95,,,,,,,,,,,,,,,,,,,,,,,l,0,1.3145,"[""0.258"",""0.027"",""0.609"",""0.967""]","[1,0,1,1]",0,14,14,14,1,0,0,,,1,FALSE,,,,,,,,,,,,,,,,,,,,,,,,,,,,,,
,,001,2022-04-29_03h08.46.302,classification_task,2021.2.3,Win32,60.0024001,60ed422f77c903379187954a,626b377229c10585ec392f89,626b3a296d81ac3f00fd6d95,,,,,,,,,,,,,,,,,,,,,,,l,1,1.4656,"[""0.801"",""0.331"",""0.461"",""0.702""]","[0,1,1,1]",0,15,15,15,1,1,1,,,1,FALSE,,,,,,,,,,,,,,,,,,,,,,,,,,,,,,
,,001,2022-04-29_03h08.46.302,classification_task,2021.2.3,Win32,60.0024001,60ed422f77c903379187954a,626b377229c10585ec392f89,626b3a296d81ac3f00fd6d95,,,,,,,,,,,,,,,,,,,,,,,l,0,1.1974,"[""0.199"",""0.035"",""0.755"",""0.883""]","[1,0,1,1]",0,16,16,16,1,0,1,,,1,FALSE,,,,,,,,,,,,,,,,,,,,,,,,,,,,,,
,,001,2022-04-29_03h08.46.302,classification_task,2021.2.3,Win32,60.0024001,60ed422f77c903379187954a,626b377229c10585ec392f89,626b3a296d81ac3f00fd6d95,,,,,,,,,,,,,,,,,,,,,,,l,1,1.4705,"[""0.666"",""0.418"",""0.528"",""0.837""]","[0,1,1,1]",0,17,17,17,1,1,0,,,1,FALSE,,,,,,,,,,,,,,,,,,,,,,,,,,,,,,
,,001,2022-04-29_03h08.46.302,classification_task,2021.2.3,Win32,60.0024001,60ed422f77c903379187954a,626b377229c10585ec392f89,626b3a296d81ac3f00fd6d95,,,,,,,,,,,,,,,,,,,,,,,a,0,1.1094,"[""0.039"",""0.331"",""0.461"",""0.702""]","[0,1,1,1]",0,18,18,18,1,1,1,,,1,FALSE,,,,,,,,,,,,,,,,,,,,,,,,,,,,,,
,,001,2022-04-29_03h08.46.302,classification_task,2021.2.3,Win32,60.0024001,60ed422f77c903379187954a,626b377229c10585ec392f89,626b3a296d81ac3f00fd6d95,,,,,,,,,,,,,,,,,,,,,,,a,1,1.1034,"[""0.258"",""0.374"",""0.035"",""0.967""]","[1,1,0,1]",0,19,19,19,1,0,0,,,1,FALSE,,,,,,,,,,,,,,,,,,,,,,,,,,,,,,
,,001,2022-04-29_03h08.46.302,classification_task,2021.2.3,Win32,60.0024001,60ed422f77c903379187954a,626b377229c10585ec392f89,626b3a296d81ac3f00fd6d95,,,,,,,,,,,,,,,,,,,,,,,a,1,1.3162,"[""0.039"",""0.562"",""0.755"",""0.883""]","[0,1,1,1]",0,20,20,20,1,0,1,,,1,FALSE,,,,,,,,,,,,,,,,,,,,,,,,,,,,,,
,,001,2022-04-29_03h08.46.302,classification_task,2021.2.3,Win32,60.0024001,60ed422f77c903379187954a,626b377229c10585ec392f89,626b3a296d81ac3f00fd6d95,,,,,,,,,,,,,,,,,,,,,,,a,0,1.2734,"[""0.111"",""0.418"",""0.801"",""0.837""]","[1,1,0,1]",0,21,21,21,1,1,0,,,1,FALSE,,,,,,,,,,,,,,,,,,,,,,,,,,,,,,
,,001,2022-04-29_03h08.46.302,classification_task,2021.2.3,Win32,60.0024001,60ed422f77c903379187954a,626b377229c10585ec392f89,626b3a296d81ac3f00fd6d95,,,,,,,,,,,,,,,,,,,,,,,l,1,0.8709,"[""0.077"",""0.033"",""0.461"",""0.702""]","[1,0,1,1]",0,22,22,22,1,1,1,,,1,FALSE,,,,,,,,,,,,,,,,,,,,,,,,,,,,,,
,,001,2022-04-29_03h08.46.302,classification_task,2021.2.3,Win32,60.0024001,60ed422f77c903379187954a,626b377229c10585ec392f89,626b3a296d81ac3f00fd6d95,,,,,,,,,,,,,,,,,,,,,,,l,0,0.4944,"[""0.258"",""0.039"",""0.609"",""0.967""]","[1,0,1,1]",0,23,23,23,1,0,0,,,1,FALSE,,,,,,,,,,,,,,,,,,,,,,,,,,,,,,
,,001,2022-04-29_03h08.46.302,classification_task,2021.2.3,Win32,60.0024001,60ed422f77c903379187954a,626b377229c10585ec392f89,626b3a296d81ac3f00fd6d95,,,,,,,,,,,,,,,,,,,,,,,a,0,0.2759,"[""0.111"",""0.801"",""0.528"",""0.837""]","[1,0,1,1]",0,24,24,24,1,1,0,,,1,FALSE,,,,,,,,,,,,,,,,,,,,,,,,,,,,,,
,,001,2022-04-29_03h08.46.302,classification_task,2021.2.3,Win32,60.0024001,60ed422f77c903379187954a,626b377229c10585ec392f89,626b3a296d81ac3f00fd6d95,,,,,,,,,,,,,,,,,,,,,,,a,1,0.7184,"[""0.648"",""0.374"",""0.609"",""0.967""]","[0,1,1,1]",0,25,25,25,1,0,0,,,1,FALSE,,,,,,,,,,,,,,,,,,,,,,,,,,,,,,
,,001,2022-04-29_03h08.46.302,classification_task,2021.2.3,Win32,60.0024001,60ed422f77c903379187954a,626b377229c10585ec392f89,626b3a296d81ac3f00fd6d95,,,,,,,,,,,,,,,,,,,,,,,l,1,1.5087,"[""0.077"",""0.331"",""0.799"",""0.702""]","[1,1,0,1]",0,26,26,26,1,1,1,,,1,FALSE,,,,,,,,,,,,,,,,,,,,,,,,,,,,,,
,,001,2022-04-29_03h08.46.302,classification_task,2021.2.3,Win32,60.0024001,60ed422f77c903379187954a,626b377229c10585ec392f89,626b3a296d81ac3f00fd6d95,,,,,,,,,,,,,,,,,,,,,,,l,0,0.8841,"[""0.199"",""0.562"",""0.032"",""0.883""]","[1,1,0,1]",0,27,27,27,1,0,1,,,1,FALSE,,,,,,,,,,,,,,,,,,,,,,,,,,,,,,
,,001,2022-04-29_03h08.46.302,classification_task,2021.2.3,Win32,60.0024001,60ed422f77c903379187954a,626b377229c10585ec392f89,626b3a296d81ac3f00fd6d95,,,,,,,,,,,,,,,,,,,,,,,l,0,0.8504,"[""0.199"",""0.562"",""0.755"",""0.801""]","[1,1,1,0]",0,28,28,28,1,0,1,,,1,FALSE,,,,,,,,,,,,,,,,,,,,,,,,,,,,,,
,,001,2022-04-29_03h08.46.302,classification_task,2021.2.3,Win32,60.0024001,60ed422f77c903379187954a,626b377229c10585ec392f89,626b3a296d81ac3f00fd6d95,,,,,,,,,,,,,,,,,,,,,,,a,0,0.7377,"[""0.111"",""0.418"",""0.528"",""0.799""]","[1,1,1,0]",0,29,29,29,1,1,0,,,1,FALSE,,,,,,,,,,,,,,,,,,,,,,,,,,,,,,
,,001,2022-04-29_03h08.46.302,classification_task,2021.2.3,Win32,60.0024001,60ed422f77c903379187954a,626b377229c10585ec392f89,626b3a296d81ac3f00fd6d95,,,,,,,,,,,,,,,,,,,,,,,a,1,0.6975,"[""0.258"",""0.374"",""0.609"",""0.666""]","[1,1,1,0]",0,30,30,30,1,0,0,,,1,FALSE,,,,,,,,,,,,,,,,,,,,,,,,,,,,,,
,,001,2022-04-29_03h08.46.302,classification_task,2021.2.3,Win32,60.0024001,60ed422f77c903379187954a,626b377229c10585ec392f89,626b3a296d81ac3f00fd6d95,,,,,,,,,,,,,,,,,,,,,,,l,1,0.66,"[""0.077"",""0.331"",""0.461"",""0.801""]","[1,1,1,0]",0,31,31,31,1,1,1,,,1,FALSE,,,,,,,,,,,,,,,,,,,,,,,,,,,,,,
,,001,2022-04-29_03h08.46.302,classification_task,2021.2.3,Win32,60.0024001,60ed422f77c903379187954a,626b377229c10585ec392f89,626b3a296d81ac3f00fd6d95,,,,,,,,,,,,,,,,,,,,,,,a,1,4.5274,"[""0.258"",""0.374"",""0.923"",""0.967""]","[1,1,0,1]",0,32,32,32,1,0,0,,,1,FALSE,,,,,,,,,,,,,,,,,,,,,,,,,,,,,,
,,001,2022-04-29_03h08.46.302,classification_task,2021.2.3,Win32,60.0024001,60ed422f77c903379187954a,626b377229c10585ec392f89,626b3a296d81ac3f00fd6d95,,,,,,,,,,,,,,,,,,,,,,,l,1,0.9945,"[""0.077"",""0.331"",""0.801"",""0.702""]","[1,1,0,1]",0,33,33,33,1,1,1,,,1,FALSE,,,,,,,,,,,,,,,,,,,,,,,,,,,,,,
,,001,2022-04-29_03h08.46.302,classification_task,2021.2.3,Win32,60.0024001,60ed422f77c903379187954a,626b377229c10585ec392f89,626b3a296d81ac3f00fd6d95,,,,,,,,,,,,,,,,,,,,,,,l,0,1.151,"[""0.039"",""0.562"",""0.755"",""0.883""]","[0,1,1,1]",0,34,34,34,1,0,1,,,1,FALSE,,,,,,,,,,,,,,,,,,,,,,,,,,,,,,
,,001,2022-04-29_03h08.46.302,classification_task,2021.2.3,Win32,60.0024001,60ed422f77c903379187954a,626b377229c10585ec392f89,626b3a296d81ac3f00fd6d95,,,,,,,,,,,,,,,,,,,,,,,a,1,0.7899,"[""0.258"",""0.374"",""0.609"",""0.648""]","[1,1,1,0]",0,35,35,35,1,0,0,,,1,FALSE,,,,,,,,,,,,,,,,,,,,,,,,,,,,,,
,,001,2022-04-29_03h08.46.302,classification_task,2021.2.3,Win32,60.0024001,60ed422f77c903379187954a,626b377229c10585ec392f89,626b3a296d81ac3f00fd6d95,,,,,,,,,,,,,,,,,,,,,,,a,0,0.6626,"[""0.111"",""0.418"",""0.799"",""0.837""]","[1,1,0,1]",0,36,36,36,1,1,0,,,1,FALSE,,,,,,,,,,,,,,,,,,,,,,,,,,,,,,
,,001,2022-04-29_03h08.46.302,classification_task,2021.2.3,Win32,60.0024001,60ed422f77c903379187954a,626b377229c10585ec392f89,626b3a296d81ac3f00fd6d95,,,,,,,,,,,,,,,,,,,,,,,l,1,0.6003,"[""0.033"",""0.331"",""0.461"",""0.702""]","[0,1,1,1]",0,37,37,37,1,1,1,,,1,FALSE,,,,,,,,,,,,,,,,,,,,,,,,,,,,,,
,,001,2022-04-29_03h08.46.302,classification_task,2021.2.3,Win32,60.0024001,60ed422f77c903379187954a,626b377229c10585ec392f89,626b3a296d81ac3f00fd6d95,,,,,,,,,,,,,,,,,,,,,,,l,0,0.8506,"[""0.199"",""0.562"",""0.039"",""0.883""]","[1,1,0,1]",0,38,38,38,1,0,1,,,1,FALSE,,,,,,,,,,,,,,,,,,,,,,,,,,,,,,
,,001,2022-04-29_03h08.46.302,classification_task,2021.2.3,Win32,60.0024001,60ed422f77c903379187954a,626b377229c10585ec392f89,626b3a296d81ac3f00fd6d95,,,,,,,,,,,,,,,,,,,,,,,a,0,0.7624,"[""0.111"",""0.418"",""0.528"",""0.665""]","[1,1,1,0]",0,39,39,39,1,1,0,,,1,FALSE,,,,,,,,,,,,,,,,,,,,,,,,,,,,,,
,,001,2022-04-29_03h08.46.302,classification_task,2021.2.3,Win32,60.0024001,60ed422f77c903379187954a,626b377229c10585ec392f89,626b3a296d81ac3f00fd6d95,,,,,,,,,,,,,,,,,,,,,,,a,0,0.8448,"[""0.111"",""0.027"",""0.528"",""0.837""]","[1,0,1,1]",0,40,40,40,1,1,0,,,1,FALSE,,,,,,,,,,,,,,,,,,,,,,,,,,,,,,
,,001,2022-04-29_03h08.46.302,classification_task,2021.2.3,Win32,60.0024001,60ed422f77c903379187954a,626b377229c10585ec392f89,626b3a296d81ac3f00fd6d95,,,,,,,,,,,,,,,,,,,,,,,l,0,1.7465,"[""0.199"",""0.039"",""0.755"",""0.883""]","[1,0,1,1]",0,41,41,41,1,0,1,,,1,FALSE,,,,,,,,,,,,,,,,,,,,,,,,,,,,,,
,,001,2022-04-29_03h08.46.302,classification_task,2021.2.3,Win32,60.0024001,60ed422f77c903379187954a,626b377229c10585ec392f89,626b3a296d81ac3f00fd6d95,,,,,,,,,,,,,,,,,,,,,,,l,0,0.6605,"[""0.199"",""0.562"",""0.755"",""0.666""]","[1,1,1,0]",0,42,42,42,1,0,1,,,1,FALSE,,,,,,,,,,,,,,,,,,,,,,,,,,,,,,
,,001,2022-04-29_03h08.46.302,classification_task,2021.2.3,Win32,60.0024001,60ed422f77c903379187954a,626b377229c10585ec392f89,626b3a296d81ac3f00fd6d95,,,,,,,,,,,,,,,,,,,,,,,l,1,0.619,"[""0.077"",""0.801"",""0.461"",""0.702""]","[1,0,1,1]",0,43,43,43,1,1,1,,,1,FALSE,,,,,,,,,,,,,,,,,,,,,,,,,,,,,,
,,001,2022-04-29_03h08.46.302,classification_task,2021.2.3,Win32,60.0024001,60ed422f77c903379187954a,626b377229c10585ec392f89,626b3a296d81ac3f00fd6d95,,,,,,,,,,,,,,,,,,,,,,,a,1,0.4766,"[""0.258"",""0.801"",""0.609"",""0.967""]","[1,0,1,1]",0,44,44,44,1,0,0,,,1,FALSE,,,,,,,,,,,,,,,,,,,,,,,,,,,,,,
,,001,2022-04-29_03h08.46.302,classification_task,2021.2.3,Win32,60.0024001,60ed422f77c903379187954a,626b377229c10585ec392f89,626b3a296d81ac3f00fd6d95,,,,,,,,,,,,,,,,,,,,,,,l,1,1.269,"[""0.077"",""0.331"",""0.461"",""0.149""]","[1,1,1,0]",0,45,45,45,1,1,1,,,1,FALSE,,,,,,,,,,,,,,,,,,,,,,,,,,,,,,
,,001,2022-04-29_03h08.46.302,classification_task,2021.2.3,Win32,60.0024001,60ed422f77c903379187954a,626b377229c10585ec392f89,626b3a296d81ac3f00fd6d95,,,,,,,,,,,,,,,,,,,,,,,a,1,0.5742,"[""0.033"",""0.374"",""0.609"",""0.967""]","[0,1,1,1]",0,46,46,46,1,0,0,,,1,FALSE,,,,,,,,,,,,,,,,,,,,,,,,,,,,,,
,,001,2022-04-29_03h08.46.302,classification_task,2021.2.3,Win32,60.0024001,60ed422f77c903379187954a,626b377229c10585ec392f89,626b3a296d81ac3f00fd6d95,,,,,,,,,,,,,,,,,,,,,,,a,0,0.813,"[""0.923"",""0.418"",""0.528"",""0.837""]","[0,1,1,1]",0,47,47,47,1,1,0,,,1,FALSE,,,,,,,,,,,,,,,,,,,,,,,,,,,,,,
,,001,2022-04-29_03h08.46.302,classification_task,2021.2.3,Win32,60.0024001,60ed422f77c903379187954a,626b377229c10585ec392f89,626b3a296d81ac3f00fd6d95,,,,,,,,,,,,,,,,,,,,,,,a,0,0.7575,"[""0.032"",""0.418"",""0.528"",""0.837""]","[0,1,1,1]",0,48,48,48,1,1,0,,,1,FALSE,,,,,,,,,,,,,,,,,,,,,,,,,,,,,,
,,001,2022-04-29_03h08.46.302,classification_task,2021.2.3,Win32,60.0024001,60ed422f77c903379187954a,626b377229c10585ec392f89,626b3a296d81ac3f00fd6d95,,,,,,,,,,,,,,,,,,,,,,,a,0,0.8444,"[""0.111"",""0.418"",""0.528"",""0.801""]","[1,1,1,0]",0,49,49,49,1,1,0,,,1,FALSE,,,,,,,,,,,,,,,,,,,,,,,,,,,,,,
,,001,2022-04-29_03h08.46.302,classification_task,2021.2.3,Win32,60.0024001,60ed422f77c903379187954a,626b377229c10585ec392f89,626b3a296d81ac3f00fd6d95,,,,,,,,,,,,,,,,,,,,,,,l,1,0.5938,"[""0.077"",""0.039"",""0.461"",""0.702""]","[1,0,1,1]",0,50,50,50,1,1,1,,,1,FALSE,,,,,,,,,,,,,,,,,,,,,,,,,,,,,,
,,001,2022-04-29_03h08.46.302,classification_task,2021.2.3,Win32,60.0024001,60ed422f77c903379187954a,626b377229c10585ec392f89,626b3a296d81ac3f00fd6d95,,,,,,,,,,,,,,,,,,,,,,,a,1,0.6741,"[""0.665"",""0.374"",""0.609"",""0.967""]","[0,1,1,1]",0,51,51,51,1,0,0,,,1,FALSE,,,,,,,,,,,,,,,,,,,,,,,,,,,,,,
,,001,2022-04-29_03h08.46.302,classification_task,2021.2.3,Win32,60.0024001,60ed422f77c903379187954a,626b377229c10585ec392f89,626b3a296d81ac3f00fd6d95,,,,,,,,,,,,,,,,,,,,,,,l,0,0.6469,"[""0.199"",""0.562"",""0.032"",""0.883""]","[1,1,0,1]",0,52,52,52,1,0,1,,,1,FALSE,,,,,,,,,,,,,,,,,,,,,,,,,,,,,,
,,001,2022-04-29_03h08.46.302,classification_task,2021.2.3,Win32,60.0024001,60ed422f77c903379187954a,626b377229c10585ec392f89,626b3a296d81ac3f00fd6d95,,,,,,,,,,,,,,,,,,,,,,,l,1,1.2191,"[""0.077"",""0.331"",""0.461"",""0.039""]","[1,1,1,0]",0,53,53,53,1,1,1,,,1,FALSE,,,,,,,,,,,,,,,,,,,,,,,,,,,,,,
,,001,2022-04-29_03h08.46.302,classification_task,2021.2.3,Win32,60.0024001,60ed422f77c903379187954a,626b377229c10585ec392f89,626b3a296d81ac3f00fd6d95,,,,,,,,,,,,,,,,,,,,,,,l,0,0.7901,"[""0.199"",""0.562"",""0.755"",""0.027""]","[1,1,1,0]",0,54,54,54,1,0,1,,,1,FALSE,,,,,,,,,,,,,,,,,,,,,,,,,,,,,,
,,001,2022-04-29_03h08.46.302,classification_task,2021.2.3,Win32,60.0024001,60ed422f77c903379187954a,626b377229c10585ec392f89,626b3a296d81ac3f00fd6d95,,,,,,,,,,,,,,,,,,,,,,,l,1,1.0166,"[""0.077"",""0.331"",""0.665"",""0.702""]","[1,1,0,1]",0,55,55,55,1,1,1,,,1,FALSE,,,,,,,,,,,,,,,,,,,,,,,,,,,,,,
,,001,2022-04-29_03h08.46.302,classification_task,2021.2.3,Win32,60.0024001,60ed422f77c903379187954a,626b377229c10585ec392f89,626b3a296d81ac3f00fd6d95,,,,,,,,,,,,,,,,,,,,,,,l,1,0.6055,"[""0.923"",""0.331"",""0.461"",""0.702""]","[0,1,1,1]",0,56,56,56,1,1,1,,,1,FALSE,,,,,,,,,,,,,,,,,,,,,,,,,,,,,,
,,001,2022-04-29_03h08.46.302,classification_task,2021.2.3,Win32,60.0024001,60ed422f77c903379187954a,626b377229c10585ec392f89,626b3a296d81ac3f00fd6d95,,,,,,,,,,,,,,,,,,,,,,,l,0,0.6229,"[""0.199"",""0.648"",""0.755"",""0.883""]","[1,0,1,1]",0,57,57,57,1,0,1,,,1,FALSE,,,,,,,,,,,,,,,,,,,,,,,,,,,,,,
,,001,2022-04-29_03h08.46.302,classification_task,2021.2.3,Win32,60.0024001,60ed422f77c903379187954a,626b377229c10585ec392f89,626b3a296d81ac3f00fd6d95,,,,,,,,,,,,,,,,,,,,,,,a,0,0.6406,"[""0.111"",""0.801"",""0.528"",""0.837""]","[1,0,1,1]",0,58,58,58,1,1,0,,,1,FALSE,,,,,,,,,,,,,,,,,,,,,,,,,,,,,,
,,001,2022-04-29_03h08.46.302,classification_task,2021.2.3,Win32,60.0024001,60ed422f77c903379187954a,626b377229c10585ec392f89,626b3a296d81ac3f00fd6d95,,,,,,,,,,,,,,,,,,,,,,,l,0,0.6428,"[""0.039"",""0.562"",""0.755"",""0.883""]","[0,1,1,1]",0,59,59,59,1,0,1,,,1,FALSE,,,,,,,,,,,,,,,,,,,,,,,,,,,,,,
,,001,2022-04-29_03h08.46.302,classification_task,2021.2.3,Win32,60.0024001,60ed422f77c903379187954a,626b377229c10585ec392f89,626b3a296d81ac3f00fd6d95,,,,,,,,,,,,,,,,,,,,,,,a,0,1.9403,"[""0.111"",""0.418"",""0.033"",""0.837""]","[1,1,0,1]",0,60,60,60,1,1,0,,,1,FALSE,,,,,,,,,,,,,,,,,,,,,,,,,,,,,,
,,001,2022-04-29_03h08.46.302,classification_task,2021.2.3,Win32,60.0024001,60ed422f77c903379187954a,626b377229c10585ec392f89,626b3a296d81ac3f00fd6d95,,,,,,,,,,,,,,,,,,,,,,,a,1,5.3595,"[""0.258"",""0.374"",""0.609"",""0.039""]","[1,1,1,0]",0,61,61,61,1,0,0,,,1,FALSE,,,,,,,,,,,,,,,,,,,,,,,,,,,,,,
,,001,2022-04-29_03h08.46.302,classification_task,2021.2.3,Win32,60.0024001,60ed422f77c903379187954a,626b377229c10585ec392f89,626b3a296d81ac3f00fd6d95,,,,,,,,,,,,,,,,,,,,,,,a,1,3.1953,"[""0.258"",""0.665"",""0.609"",""0.967""]","[1,0,1,1]",0,62,62,62,1,0,0,,,1,FALSE,,,,,,,,,,,,,,,,,,,,,,,,,,,,,,
,,001,2022-04-29_03h08.46.302,classification_task,2021.2.3,Win32,60.0024001,60ed422f77c903379187954a,626b377229c10585ec392f89,626b3a296d81ac3f00fd6d95,,,,,,,,,,,,,,,,,,,,,,,a,1,0.9035,"[""0.258"",""0.374"",""0.039"",""0.967""]","[1,1,0,1]",0,63,63,63,1,0,0,,,1,FALSE,,,,,,,,,,,,,,,,,,,,,,,,,,,,,,
,,001,2022-04-29_03h08.46.302,classification_task,2021.2.3,Win32,60.0024001,60ed422f77c903379187954a,626b377229c10585ec392f89,626b3a296d81ac3f00fd6d95,,,,,,,,,,,,,,,,,,,,,,,,,,,,,,,,,,,,,,,0, ,,0,2.037588183,188.9839,0,2,2,2,1,2,3,,,,,,,,,,,,,,,,,
,,001,2022-04-29_03h08.46.302,classification_task,2021.2.3,Win32,60.0024001,60ed422f77c903379187954a,626b377229c10585ec392f89,626b3a296d81ac3f00fd6d95,,,,,,,,,,,,,,,,,,,,,,,,,,,,,,,,,,,,,,,1,  ,,0,9.822530864,194.631,0,2,2,2,1,2,3,,,,,,,,,,,,,,,,,
,,001,2022-04-29_03h08.46.302,classification_task,2021.2.3,Win32,60.0024001,60ed422f77c903379187954a,626b377229c10585ec392f89,626b3a296d81ac3f00fd6d95,,,,,,,,,,,,,,,,,,,,,,,,,,,,,,,,,,,,,,,2,  ,,0,9.133597884,199.7309,0,2,2,2,1,2,3,,,,,,,,,,,,,,,,,
,,001,2022-04-29_03h08.46.302,classification_task,2021.2.3,Win32,60.0024001,60ed422f77c903379187954a,626b377229c10585ec392f89,626b3a296d81ac3f00fd6d95,,,,,,,,,,,,,,,,,,,,,,,,,,,,,,,,,,,,,,,,,,,,,0,2,2,2,1,,3,,,,,,,,,,,,,,,,,
,,001,2022-04-29_03h08.46.302,classification_task,2021.2.3,Win32,60.0024001,60ed422f77c903379187954a,626b377229c10585ec392f89,626b3a296d81ac3f00fd6d95,,,,,,,,,,,,,,,,,,,,,,,,,,,,,,,,,,,,,,,,,,,,,,,,,,,,,I believe the aid is a competent performer,,0.7,0,3,1055.2439,0,0,0,0,1,0,,,,
,,001,2022-04-29_03h08.46.302,classification_task,2021.2.3,Win32,60.0024001,60ed422f77c903379187954a,626b377229c10585ec392f89,626b3a296d81ac3f00fd6d95,,,,,,,,,,,,,,,,,,,,,,,,,,,,,,,,,,,,,,,,,,,,,,,,,,,,,I trust the aid,,0.7,0,4,1057.2242,0,0,0,0,1,0,,,,
,,001,2022-04-29_03h08.46.302,classification_task,2021.2.3,Win32,60.0024001,60ed422f77c903379187954a,626b377229c10585ec392f89,626b3a296d81ac3f00fd6d95,,,,,,,,,,,,,,,,,,,,,,,,,,,,,,,,,,,,,,,,,,,,,,,,,,,,,I have confidence in the advice given by the aid,,0.7,0,4,1060.1217,0,0,0,0,1,0,,,,
,,001,2022-04-29_03h08.46.302,classification_task,2021.2.3,Win32,60.0024001,60ed422f77c903379187954a,626b377229c10585ec392f89,626b3a296d81ac3f00fd6d95,,,,,,,,,,,,,,,,,,,,,,,,,,,,,,,,,,,,,,,,,,,,,,,,,,,,,I can depend on the aid,,0.7,0,4,1062.5359,0,0,0,0,1,0,,,,
,,001,2022-04-29_03h08.46.302,classification_task,2021.2.3,Win32,60.0024001,60ed422f77c903379187954a,626b377229c10585ec392f89,626b3a296d81ac3f00fd6d95,,,,,,,,,,,,,,,,,,,,,,,,,,,,,,,,,,,,,,,,,,,,,,,,,,,,,I can rely on the aid to behave in consistent ways,,0.7,0,4,1065.073,0,0,0,0,1,0,,,,
,,001,2022-04-29_03h08.46.302,classification_task,2021.2.3,Win32,60.0024001,60ed422f77c903379187954a,626b377229c10585ec392f89,626b3a296d81ac3f00fd6d95,,,,,,,,,,,,,,,,,,,,,,,,,,,,,,,,,,,,,,,,,,,,,,,,,,,,,I can rely on the aid to do its best every time I take its advice,,0.7,0,4,1068.8991,0,0,0,0,1,0,,,,
,,001,2022-04-29_03h08.46.302,classification_task,2021.2.3,Win32,60.0024001,60ed422f77c903379187954a,626b377229c10585ec392f89,626b3a296d81ac3f00fd6d95,,,,,,,,,,,,,,,,,,,,,,,,,,,,,,,,,,,,,,,,,,,,,,,,,,,,,"On trials you completed with assistance from the aid, how frequently did you think the aid was correct?",,0.7,0,95,,0,0,0,0,1,0,,,,
,,001,2022-04-29_03h08.46.302,classification_task,2021.2.3,Win32,60.0024001,60ed422f77c903379187954a,626b377229c10585ec392f89,626b3a296d81ac3f00fd6d95,,,,,,,,,,,,,,,,,,,,,,,,,,,,,,,,,,,,,,,,,,,,,,,,,,,,,"On trials you completed without the aid, how frequently did you think you were correct?",,0.7,0,80,,0,0,0,0,1,0,,,,
,,001,2022-04-29_03h08.46.302,classification_task,2021.2.3,Win32,60.0024001,60ed422f77c903379187954a,626b377229c10585ec392f89,626b3a296d81ac3f00fd6d95,,,,,,,,,,,,,,,,,,,,,,,,,,,,,,,,,,,,,,,,,,,,,,,,,,,,,,,,,,,0,0,0,0,1,,,,,
,,001,2022-04-29_03h08.46.302,classification_task,2021.2.3,Win32,60.0024001,60ed422f77c903379187954a,626b377229c10585ec392f89,626b3a296d81ac3f00fd6d95,,,,,,,,,,,,,,,,,,,,,,,,,,,,,,,,,,,,,,,,,,,,,,,,,,,,,,,,,,,,,,,,,space,16.6193,1116.8714,
,,001,2022-04-29_03h08.46.302,classification_task,2021.2.3,Win32,60.0024001,60ed422f77c903379187954a,626b377229c10585ec392f89,626b3a296d81ac3f00fd6d95,,,,,,,,,,,,,,,,,,,,,,,,,,,,,,,,,,,,,,,,,,,,,,,,,,,,,,,,,,,,,,,,,,,,"Mozilla/5.0 (Windows NT 10.0; Win64; x64) AppleWebKit/537.36 (KHTML, like Gecko) Chrome/100.0.4896.127 Safari/537.36"
