usingWebGL,participant,session,date,expName,psychopyVersion,OS,frameRate,PROLIFIC_PID,STUDY_ID,SESSION_ID,signatures_friend,signatures_foe,band_ranges_top,band_ranges_bottom,formitemText,formtype,formundefined,formitemWidth,formindex,formresponse,formrt,key_resp_2.keys,key_resp_2.rt,tute_resp.keys,tute_resp.rt,tutorial.thisRepN,tutorial.thisTrialN,tutorial.thisN,tutorial.thisIndex,tutorial.ran,key_resp_4.keys,key_resp_4.rt,key_resp.keys,key_resp.corr,key_resp.rt,lines_presented,is_signal_presented,trials.thisRepN,trials.thisTrialN,trials.thisN,trials.thisIndex,trials.ran,vessel,active_band,lines,is_signal,supported_pos,catch_trial,debrief_formindex,debrief_formitemText,debrief_formtype,debrief_formitemWidth,debrief_formresponse,debrief_formrt,phases.thisRepN,phases.thisTrialN,phases.thisN,phases.thisIndex,phases.ran,phases.order,phase,key_resp_3.keys,trustitemText,trusttype,trustitemWidth,trustindex,trustresponse,trustrt,support_status.thisRepN,support_status.thisTrialN,support_status.thisN,support_status.thisIndex,support_status.ran,support_status.order,key_resp_5.keys,key_resp_5.rt,globalClockTime,userAgent
TRUE,,001,2022-04-29_01h58.27.998,classification_task,2021.2.3,Win32,59.73715651,5fe7b6d7baa7c46725b4e530,626b377229c10585ec392f89,626b37fd35585663c1f2ff7f,,,,,,,,,,,,,,,,,,,,,,,,,,,,,,,,,,,,,,,,,,,,,,,,,,,,,,,,,,,,,,,,,,,,
,,001,2022-04-29_01h58.27.998,classification_task,2021.2.3,Win32,59.73715651,5fe7b6d7baa7c46725b4e530,626b377229c10585ec392f89,626b37fd35585663c1f2ff7f,"[[""0.185"",""0.443"",""0.884"",""0.960""],[""0.326"",""0.519"",""0.807"",""0.850""]]","[[""0.071"",""0.290"",""0.562"",""0.762""],[""0.028"",""0.228"",""0.613"",""0.719""]]","[1,10]","[100,1000]",Video game experience,,,0.7,0,,,,,,,,,,,,,,,,,,,,,,,,,,,,,,,,,,,,,,,,,,,,,,,,,,,,,,,,,,,
,,001,2022-04-29_01h58.27.998,classification_task,2021.2.3,Win32,59.73715651,5fe7b6d7baa7c46725b4e530,626b377229c10585ec392f89,626b37fd35585663c1f2ff7f,,,,,Approximately how many hours did you spend playing video games in the last week?,,,0.7,0,28,,,,,,,,,,,,,,,,,,,,,,,,,,,,,,,,,,,,,,,,,,,,,,,,,,,,,,,,,,
,,001,2022-04-29_01h58.27.998,classification_task,2021.2.3,Win32,59.73715651,5fe7b6d7baa7c46725b4e530,626b377229c10585ec392f89,626b37fd35585663c1f2ff7f,,,,,"Which game did you play the most this year? (Enter ""None"" if you didn't play any)",,,0.7,0,CS,,,,,,,,,,,,,,,,,,,,,,,,,,,,,,,,,,,,,,,,,,,,,,,,,,,,,,,,,,
,,001,2022-04-29_01h58.27.998,classification_task,2021.2.3,Win32,59.73715651,5fe7b6d7baa7c46725b4e530,626b377229c10585ec392f89,626b37fd35585663c1f2ff7f,,,,,Visual perception,,,0.7,0,,,,,,,,,,,,,,,,,,,,,,,,,,,,,,,,,,,,,,,,,,,,,,,,,,,,,,,,,,,
,,001,2022-04-29_01h58.27.998,classification_task,2021.2.3,Win32,59.73715651,5fe7b6d7baa7c46725b4e530,626b377229c10585ec392f89,626b37fd35585663c1f2ff7f,,,,,Do you have any form of color blindness?,,,0.7,0,No,17.4291,,,,,,,,,,,,,,,,,,,,,,,,,,,,,,,,,,,,,,,,,,,,,,,,,,,,,,,,,
,,001,2022-04-29_01h58.27.998,classification_task,2021.2.3,Win32,59.73715651,5fe7b6d7baa7c46725b4e530,626b377229c10585ec392f89,626b37fd35585663c1f2ff7f,,,,,Do you use software to change the colour temperature of your screen (e.g. f.lux)?,,,0.7,0,Yes,16.2102,,,,,,,,,,,,,,,,,,,,,,,,,,,,,,,,,,,,,,,,,,,,,,,,,,,,,,,,,
,,001,2022-04-29_01h58.27.998,classification_task,2021.2.3,Win32,59.73715651,5fe7b6d7baa7c46725b4e530,626b377229c10585ec392f89,626b37fd35585663c1f2ff7f,,,,,,,,,,,,space,33.1718,space,3.7978,0,0,0,0,1,,,,,,,,,,,,,,,,,,,,,,,,,,,,,,,,,,,,,,,,,,,,,,,,
,,001,2022-04-29_01h58.27.998,classification_task,2021.2.3,Win32,59.73715651,5fe7b6d7baa7c46725b4e530,626b377229c10585ec392f89,626b37fd35585663c1f2ff7f,,,,,,,,,,,,,,space,10.6946,1,0,1,0,1,,,,,,,,,,,,,,,,,,,,,,,,,,,,,,,,,,,,,,,,,,,,,,,,
,,001,2022-04-29_01h58.27.998,classification_task,2021.2.3,Win32,59.73715651,5fe7b6d7baa7c46725b4e530,626b377229c10585ec392f89,626b37fd35585663c1f2ff7f,,,,,,,,,,,,,,space,45.1951,2,0,2,0,1,,,,,,,,,,,,,,,,,,,,,,,,,,,,,,,,,,,,,,,,,,,,,,,,
,,001,2022-04-29_01h58.27.998,classification_task,2021.2.3,Win32,59.73715651,5fe7b6d7baa7c46725b4e530,626b377229c10585ec392f89,626b37fd35585663c1f2ff7f,,,,,,,,,,,,,,space,19.3567,3,0,3,0,1,,,,,,,,,,,,,,,,,,,,,,,,,,,,,,,,,,,,,,,,,,,,,,,,
,,001,2022-04-29_01h58.27.998,classification_task,2021.2.3,Win32,59.73715651,5fe7b6d7baa7c46725b4e530,626b377229c10585ec392f89,626b37fd35585663c1f2ff7f,,,,,,,,,,,,,,space,9.5149,4,0,4,0,1,,,,,,,,,,,,,,,,,,,,,,,,,,,,,,,,,,,,,,,,,,,,,,,,
,,001,2022-04-29_01h58.27.998,classification_task,2021.2.3,Win32,59.73715651,5fe7b6d7baa7c46725b4e530,626b377229c10585ec392f89,626b37fd35585663c1f2ff7f,,,,,,,,,,,,,,,,,,,,,space,32.6724,a,0,6.003,"[""0.071"",""0.360"",""0.562"",""0.762""]","[1,0,1,1]",0,0,0,0,1,1,0,,,0,FALSE,,,,,,,,,,,,,,,,,,,,,,,,,,,,,,
,,001,2022-04-29_01h58.27.998,classification_task,2021.2.3,Win32,59.73715651,5fe7b6d7baa7c46725b4e530,626b377229c10585ec392f89,626b37fd35585663c1f2ff7f,,,,,,,,,,,,,,,,,,,,,,,l,1,7.6115,"[""0.028"",""0.671"",""0.613"",""0.719""]","[1,0,1,1]",0,1,1,1,1,1,1,,,0,FALSE,,,,,,,,,,,,,,,,,,,,,,,,,,,,,,
,,001,2022-04-29_01h58.27.998,classification_task,2021.2.3,Win32,59.73715651,5fe7b6d7baa7c46725b4e530,626b377229c10585ec392f89,626b37fd35585663c1f2ff7f,,,,,,,,,,,,,,,,,,,,,,,a,1,5.0469,"[""0.326"",""0.519"",""0.478"",""0.850""]","[1,1,0,1]",0,2,2,2,1,0,1,,,0,FALSE,,,,,,,,,,,,,,,,,,,,,,,,,,,,,,
,,001,2022-04-29_01h58.27.998,classification_task,2021.2.3,Win32,59.73715651,5fe7b6d7baa7c46725b4e530,626b377229c10585ec392f89,626b37fd35585663c1f2ff7f,,,,,,,,,,,,,,,,,,,,,,,l,1,7.5799,"[""0.123"",""0.228"",""0.613"",""0.719""]","[0,1,1,1]",0,3,3,3,1,1,1,,,0,FALSE,,,,,,,,,,,,,,,,,,,,,,,,,,,,,,
,,001,2022-04-29_01h58.27.998,classification_task,2021.2.3,Win32,59.73715651,5fe7b6d7baa7c46725b4e530,626b377229c10585ec392f89,626b37fd35585663c1f2ff7f,,,,,,,,,,,,,,,,,,,,,,,l,1,6.2364,"[""0.071"",""0.290"",""0.478"",""0.762""]","[1,1,0,1]",0,4,4,4,1,1,0,,,0,FALSE,,,,,,,,,,,,,,,,,,,,,,,,,,,,,,
,,001,2022-04-29_01h58.27.998,classification_task,2021.2.3,Win32,59.73715651,5fe7b6d7baa7c46725b4e530,626b377229c10585ec392f89,626b37fd35585663c1f2ff7f,,,,,,,,,,,,,,,,,,,,,,,l,1,7.1932,"[""0.661"",""0.290"",""0.562"",""0.762""]","[0,1,1,1]",0,5,5,5,1,1,0,,,0,FALSE,,,,,,,,,,,,,,,,,,,,,,,,,,,,,,
,,001,2022-04-29_01h58.27.998,classification_task,2021.2.3,Win32,59.73715651,5fe7b6d7baa7c46725b4e530,626b377229c10585ec392f89,626b37fd35585663c1f2ff7f,,,,,,,,,,,,,,,,,,,,,,,a,1,8.1392,"[""0.141"",""0.443"",""0.884"",""0.960""]","[0,1,1,1]",0,6,6,6,1,0,0,,,0,FALSE,,,,,,,,,,,,,,,,,,,,,,,,,,,,,,
,,001,2022-04-29_01h58.27.998,classification_task,2021.2.3,Win32,59.73715651,5fe7b6d7baa7c46725b4e530,626b377229c10585ec392f89,626b37fd35585663c1f2ff7f,,,,,,,,,,,,,,,,,,,,,,,a,1,7.0039,"[""0.326"",""0.141"",""0.807"",""0.850""]","[1,0,1,1]",0,7,7,7,1,0,1,,,0,FALSE,,,,,,,,,,,,,,,,,,,,,,,,,,,,,,
,,001,2022-04-29_01h58.27.998,classification_task,2021.2.3,Win32,59.73715651,5fe7b6d7baa7c46725b4e530,626b377229c10585ec392f89,626b37fd35585663c1f2ff7f,,,,,,,,,,,,,,,,,,,,,,,a,1,6.4409,"[""0.661"",""0.519"",""0.807"",""0.850""]","[0,1,1,1]",0,8,8,8,1,0,1,,,0,FALSE,,,,,,,,,,,,,,,,,,,,,,,,,,,,,,
,,001,2022-04-29_01h58.27.998,classification_task,2021.2.3,Win32,59.73715651,5fe7b6d7baa7c46725b4e530,626b377229c10585ec392f89,626b37fd35585663c1f2ff7f,,,,,,,,,,,,,,,,,,,,,,,a,1,6.9963,"[""0.326"",""0.519"",""0.807"",""0.478""]","[1,1,1,0]",0,9,9,9,1,0,1,,,0,FALSE,,,,,,,,,,,,,,,,,,,,,,,,,,,,,,
,,001,2022-04-29_01h58.27.998,classification_task,2021.2.3,Win32,59.73715651,5fe7b6d7baa7c46725b4e530,626b377229c10585ec392f89,626b37fd35585663c1f2ff7f,,,,,,,,,,,,,,,,,,,,,,,a,1,3.9591,"[""0.185"",""0.443"",""0.674"",""0.960""]","[1,1,0,1]",0,10,10,10,1,0,0,,,0,FALSE,,,,,,,,,,,,,,,,,,,,,,,,,,,,,,
,,001,2022-04-29_01h58.27.998,classification_task,2021.2.3,Win32,59.73715651,5fe7b6d7baa7c46725b4e530,626b377229c10585ec392f89,626b37fd35585663c1f2ff7f,,,,,,,,,,,,,,,,,,,,,,,a,1,5.9256,"[""0.185"",""0.443"",""0.884"",""0.360""]","[1,1,1,0]",0,11,11,11,1,0,0,,,0,FALSE,,,,,,,,,,,,,,,,,,,,,,,,,,,,,,
,,001,2022-04-29_01h58.27.998,classification_task,2021.2.3,Win32,59.73715651,5fe7b6d7baa7c46725b4e530,626b377229c10585ec392f89,626b37fd35585663c1f2ff7f,,,,,,,,,,,,,,,,,,,,,,,l,0,4.6935,"[""0.185"",""0.391"",""0.884"",""0.960""]","[1,0,1,1]",0,12,12,12,1,0,0,,,0,FALSE,,,,,,,,,,,,,,,,,,,,,,,,,,,,,,
,,001,2022-04-29_01h58.27.998,classification_task,2021.2.3,Win32,59.73715651,5fe7b6d7baa7c46725b4e530,626b377229c10585ec392f89,626b37fd35585663c1f2ff7f,,,,,,,,,,,,,,,,,,,,,,,l,1,6.5029,"[""0.028"",""0.228"",""0.478"",""0.719""]","[1,1,0,1]",0,13,13,13,1,1,1,,,0,FALSE,,,,,,,,,,,,,,,,,,,,,,,,,,,,,,
,,001,2022-04-29_01h58.27.998,classification_task,2021.2.3,Win32,59.73715651,5fe7b6d7baa7c46725b4e530,626b377229c10585ec392f89,626b37fd35585663c1f2ff7f,,,,,,,,,,,,,,,,,,,,,,,l,1,6.4755,"[""0.071"",""0.290"",""0.562"",""0.360""]","[1,1,1,0]",0,14,14,14,1,1,0,,,0,FALSE,,,,,,,,,,,,,,,,,,,,,,,,,,,,,,
,,001,2022-04-29_01h58.27.998,classification_task,2021.2.3,Win32,59.73715651,5fe7b6d7baa7c46725b4e530,626b377229c10585ec392f89,626b37fd35585663c1f2ff7f,,,,,,,,,,,,,,,,,,,,,,,l,1,5.5706,"[""0.028"",""0.228"",""0.613"",""0.377""]","[1,1,1,0]",0,15,15,15,1,1,1,,,0,FALSE,,,,,,,,,,,,,,,,,,,,,,,,,,,,,,
,,001,2022-04-29_01h58.27.998,classification_task,2021.2.3,Win32,59.73715651,5fe7b6d7baa7c46725b4e530,626b377229c10585ec392f89,626b37fd35585663c1f2ff7f,,,,,,,,,,,,,,,,,,,,,,,l,1,5.4131,"[""0.123"",""0.228"",""0.613"",""0.719""]","[0,1,1,1]",0,16,16,16,1,1,1,,,0,FALSE,,,,,,,,,,,,,,,,,,,,,,,,,,,,,,
,,001,2022-04-29_01h58.27.998,classification_task,2021.2.3,Win32,59.73715651,5fe7b6d7baa7c46725b4e530,626b377229c10585ec392f89,626b37fd35585663c1f2ff7f,,,,,,,,,,,,,,,,,,,,,,,l,1,3.2769,"[""0.028"",""0.228"",""0.613"",""0.377""]","[1,1,1,0]",0,17,17,17,1,1,1,,,0,FALSE,,,,,,,,,,,,,,,,,,,,,,,,,,,,,,
,,001,2022-04-29_01h58.27.998,classification_task,2021.2.3,Win32,59.73715651,5fe7b6d7baa7c46725b4e530,626b377229c10585ec392f89,626b37fd35585663c1f2ff7f,,,,,,,,,,,,,,,,,,,,,,,a,1,6.088,"[""0.185"",""0.443"",""0.123"",""0.960""]","[1,1,0,1]",0,18,18,18,1,0,0,,,0,FALSE,,,,,,,,,,,,,,,,,,,,,,,,,,,,,,
,,001,2022-04-29_01h58.27.998,classification_task,2021.2.3,Win32,59.73715651,5fe7b6d7baa7c46725b4e530,626b377229c10585ec392f89,626b37fd35585663c1f2ff7f,,,,,,,,,,,,,,,,,,,,,,,a,1,5.2376,"[""0.326"",""0.519"",""0.674"",""0.850""]","[1,1,0,1]",0,19,19,19,1,0,1,,,0,FALSE,,,,,,,,,,,,,,,,,,,,,,,,,,,,,,
,,001,2022-04-29_01h58.27.998,classification_task,2021.2.3,Win32,59.73715651,5fe7b6d7baa7c46725b4e530,626b377229c10585ec392f89,626b37fd35585663c1f2ff7f,,,,,,,,,,,,,,,,,,,,,,,l,1,5.5044,"[""0.071"",""0.290"",""0.126"",""0.762""]","[1,1,0,1]",0,20,20,20,1,1,0,,,0,FALSE,,,,,,,,,,,,,,,,,,,,,,,,,,,,,,
,,001,2022-04-29_01h58.27.998,classification_task,2021.2.3,Win32,59.73715651,5fe7b6d7baa7c46725b4e530,626b377229c10585ec392f89,626b37fd35585663c1f2ff7f,,,,,,,,,,,,,,,,,,,,,,,a,1,7.2196,"[""0.370"",""0.519"",""0.807"",""0.850""]","[0,1,1,1]",0,21,21,21,1,0,1,,,0,FALSE,,,,,,,,,,,,,,,,,,,,,,,,,,,,,,
,,001,2022-04-29_01h58.27.998,classification_task,2021.2.3,Win32,59.73715651,5fe7b6d7baa7c46725b4e530,626b377229c10585ec392f89,626b37fd35585663c1f2ff7f,,,,,,,,,,,,,,,,,,,,,,,l,1,8.321,"[""0.071"",""0.290"",""0.562"",""0.126""]","[1,1,1,0]",0,22,22,22,1,1,0,,,0,FALSE,,,,,,,,,,,,,,,,,,,,,,,,,,,,,,
,,001,2022-04-29_01h58.27.998,classification_task,2021.2.3,Win32,59.73715651,5fe7b6d7baa7c46725b4e530,626b377229c10585ec392f89,626b37fd35585663c1f2ff7f,,,,,,,,,,,,,,,,,,,,,,,a,1,8.8218,"[""0.326"",""0.391"",""0.807"",""0.850""]","[1,0,1,1]",0,23,23,23,1,0,1,,,0,FALSE,,,,,,,,,,,,,,,,,,,,,,,,,,,,,,
,,001,2022-04-29_01h58.27.998,classification_task,2021.2.3,Win32,59.73715651,5fe7b6d7baa7c46725b4e530,626b377229c10585ec392f89,626b37fd35585663c1f2ff7f,,,,,,,,,,,,,,,,,,,,,,,a,1,8.286,"[""0.185"",""0.443"",""0.884"",""0.661""]","[1,1,1,0]",0,24,24,24,1,0,0,,,0,FALSE,,,,,,,,,,,,,,,,,,,,,,,,,,,,,,
,,001,2022-04-29_01h58.27.998,classification_task,2021.2.3,Win32,59.73715651,5fe7b6d7baa7c46725b4e530,626b377229c10585ec392f89,626b37fd35585663c1f2ff7f,,,,,,,,,,,,,,,,,,,,,,,l,1,6.003,"[""0.028"",""0.146"",""0.613"",""0.719""]","[1,0,1,1]",0,25,25,25,1,1,1,,,0,FALSE,,,,,,,,,,,,,,,,,,,,,,,,,,,,,,
,,001,2022-04-29_01h58.27.998,classification_task,2021.2.3,Win32,59.73715651,5fe7b6d7baa7c46725b4e530,626b377229c10585ec392f89,626b37fd35585663c1f2ff7f,,,,,,,,,,,,,,,,,,,,,,,l,1,4.775,"[""0.028"",""0.228"",""0.674"",""0.719""]","[1,1,0,1]",0,26,26,26,1,1,1,,,0,FALSE,,,,,,,,,,,,,,,,,,,,,,,,,,,,,,
,,001,2022-04-29_01h58.27.998,classification_task,2021.2.3,Win32,59.73715651,5fe7b6d7baa7c46725b4e530,626b377229c10585ec392f89,626b37fd35585663c1f2ff7f,,,,,,,,,,,,,,,,,,,,,,,a,1,6.5543,"[""0.126"",""0.443"",""0.884"",""0.960""]","[0,1,1,1]",0,27,27,27,1,0,0,,,0,FALSE,,,,,,,,,,,,,,,,,,,,,,,,,,,,,,
,,001,2022-04-29_01h58.27.998,classification_task,2021.2.3,Win32,59.73715651,5fe7b6d7baa7c46725b4e530,626b377229c10585ec392f89,626b37fd35585663c1f2ff7f,,,,,,,,,,,,,,,,,,,,,,,l,1,6.69,"[""0.135"",""0.290"",""0.562"",""0.762""]","[0,1,1,1]",0,28,28,28,1,1,0,,,0,FALSE,,,,,,,,,,,,,,,,,,,,,,,,,,,,,,
,,001,2022-04-29_01h58.27.998,classification_task,2021.2.3,Win32,59.73715651,5fe7b6d7baa7c46725b4e530,626b377229c10585ec392f89,626b37fd35585663c1f2ff7f,,,,,,,,,,,,,,,,,,,,,,,l,0,8.9908,"[""0.185"",""0.146"",""0.884"",""0.960""]","[1,0,1,1]",0,29,29,29,1,0,0,,,0,FALSE,,,,,,,,,,,,,,,,,,,,,,,,,,,,,,
,,001,2022-04-29_01h58.27.998,classification_task,2021.2.3,Win32,59.73715651,5fe7b6d7baa7c46725b4e530,626b377229c10585ec392f89,626b37fd35585663c1f2ff7f,,,,,,,,,,,,,,,,,,,,,,,l,1,6.1912,"[""0.071"",""0.123"",""0.562"",""0.762""]","[1,0,1,1]",0,30,30,30,1,1,0,,,0,FALSE,,,,,,,,,,,,,,,,,,,,,,,,,,,,,,
,,001,2022-04-29_01h58.27.998,classification_task,2021.2.3,Win32,59.73715651,5fe7b6d7baa7c46725b4e530,626b377229c10585ec392f89,626b37fd35585663c1f2ff7f,,,,,,,,,,,,,,,,,,,,,,,a,1,6.2516,"[""0.326"",""0.519"",""0.807"",""0.126""]","[1,1,1,0]",0,31,31,31,1,0,1,,,0,FALSE,,,,,,,,,,,,,,,,,,,,,,,,,,,,,,
,,001,2022-04-29_01h58.27.998,classification_task,2021.2.3,Win32,59.73715651,5fe7b6d7baa7c46725b4e530,626b377229c10585ec392f89,626b37fd35585663c1f2ff7f,,,,,,,,,,,,,,,,,,,,,,,l,0,7.0692,"[""0.185"",""0.443"",""0.661"",""0.960""]","[1,1,0,1]",0,32,32,32,1,0,0,,,0,FALSE,,,,,,,,,,,,,,,,,,,,,,,,,,,,,,
,,001,2022-04-29_01h58.27.998,classification_task,2021.2.3,Win32,59.73715651,5fe7b6d7baa7c46725b4e530,626b377229c10585ec392f89,626b37fd35585663c1f2ff7f,,,,,,,,,,,,,,,,,,,,,,,,0,,"[""0.326"",""0.519"",""0.143"",""0.850""]","[1,1,0,1]",0,33,33,33,1,0,1,,,0,FALSE,,,,,,,,,,,,,,,,,,,,,,,,,,,,,,
,,001,2022-04-29_01h58.27.998,classification_task,2021.2.3,Win32,59.73715651,5fe7b6d7baa7c46725b4e530,626b377229c10585ec392f89,626b37fd35585663c1f2ff7f,,,,,,,,,,,,,,,,,,,,,,,l,1,7.3444,"[""0.071"",""0.290"",""0.562"",""0.370""]","[1,1,1,0]",0,34,34,34,1,1,0,,,0,FALSE,,,,,,,,,,,,,,,,,,,,,,,,,,,,,,
,,001,2022-04-29_01h58.27.998,classification_task,2021.2.3,Win32,59.73715651,5fe7b6d7baa7c46725b4e530,626b377229c10585ec392f89,626b37fd35585663c1f2ff7f,,,,,,,,,,,,,,,,,,,,,,,l,1,5.908,"[""0.028"",""0.360"",""0.613"",""0.719""]","[1,0,1,1]",0,35,35,35,1,1,1,,,0,FALSE,,,,,,,,,,,,,,,,,,,,,,,,,,,,,,
,,001,2022-04-29_01h58.27.998,classification_task,2021.2.3,Win32,59.73715651,5fe7b6d7baa7c46725b4e530,626b377229c10585ec392f89,626b37fd35585663c1f2ff7f,,,,,,,,,,,,,,,,,,,,,,,a,0,7.9084,"[""0.377"",""0.290"",""0.562"",""0.762""]","[0,1,1,1]",0,36,36,36,1,1,0,,,0,FALSE,,,,,,,,,,,,,,,,,,,,,,,,,,,,,,
,,001,2022-04-29_01h58.27.998,classification_task,2021.2.3,Win32,59.73715651,5fe7b6d7baa7c46725b4e530,626b377229c10585ec392f89,626b37fd35585663c1f2ff7f,,,,,,,,,,,,,,,,,,,,,,,a,1,6.0237,"[""0.326"",""0.141"",""0.807"",""0.850""]","[1,0,1,1]",0,37,37,37,1,0,1,,,0,FALSE,,,,,,,,,,,,,,,,,,,,,,,,,,,,,,
,,001,2022-04-29_01h58.27.998,classification_task,2021.2.3,Win32,59.73715651,5fe7b6d7baa7c46725b4e530,626b377229c10585ec392f89,626b37fd35585663c1f2ff7f,,,,,,,,,,,,,,,,,,,,,,,l,1,5.808,"[""0.071"",""0.478"",""0.562"",""0.762""]","[1,0,1,1]",0,38,38,38,1,1,0,,,0,FALSE,,,,,,,,,,,,,,,,,,,,,,,,,,,,,,
,,001,2022-04-29_01h58.27.998,classification_task,2021.2.3,Win32,59.73715651,5fe7b6d7baa7c46725b4e530,626b377229c10585ec392f89,626b37fd35585663c1f2ff7f,,,,,,,,,,,,,,,,,,,,,,,a,1,3.7597,"[""0.135"",""0.519"",""0.807"",""0.850""]","[0,1,1,1]",0,39,39,39,1,0,1,,,0,FALSE,,,,,,,,,,,,,,,,,,,,,,,,,,,,,,
,,001,2022-04-29_01h58.27.998,classification_task,2021.2.3,Win32,59.73715651,5fe7b6d7baa7c46725b4e530,626b377229c10585ec392f89,626b37fd35585663c1f2ff7f,,,,,,,,,,,,,,,,,,,,,,,l,1,1.4322,"[""0.028"",""0.228"",""0.613"",""0.360""]","[1,1,1,0]",0,40,40,40,1,1,1,,,0,FALSE,,,,,,,,,,,,,,,,,,,,,,,,,,,,,,
,,001,2022-04-29_01h58.27.998,classification_task,2021.2.3,Win32,59.73715651,5fe7b6d7baa7c46725b4e530,626b377229c10585ec392f89,626b37fd35585663c1f2ff7f,,,,,,,,,,,,,,,,,,,,,,,l,0,2.4362,"[""0.185"",""0.135"",""0.884"",""0.960""]","[1,0,1,1]",0,41,41,41,1,0,0,,,0,FALSE,,,,,,,,,,,,,,,,,,,,,,,,,,,,,,
,,001,2022-04-29_01h58.27.998,classification_task,2021.2.3,Win32,59.73715651,5fe7b6d7baa7c46725b4e530,626b377229c10585ec392f89,626b37fd35585663c1f2ff7f,,,,,,,,,,,,,,,,,,,,,,,l,0,3.3597,"[""0.478"",""0.443"",""0.884"",""0.960""]","[0,1,1,1]",0,42,42,42,1,0,0,,,0,FALSE,,,,,,,,,,,,,,,,,,,,,,,,,,,,,,
,,001,2022-04-29_01h58.27.998,classification_task,2021.2.3,Win32,59.73715651,5fe7b6d7baa7c46725b4e530,626b377229c10585ec392f89,626b37fd35585663c1f2ff7f,,,,,,,,,,,,,,,,,,,,,,,a,1,4.513,"[""0.326"",""0.519"",""0.807"",""0.126""]","[1,1,1,0]",0,43,43,43,1,0,1,,,0,FALSE,,,,,,,,,,,,,,,,,,,,,,,,,,,,,,
,,001,2022-04-29_01h58.27.998,classification_task,2021.2.3,Win32,59.73715651,5fe7b6d7baa7c46725b4e530,626b377229c10585ec392f89,626b37fd35585663c1f2ff7f,,,,,,,,,,,,,,,,,,,,,,,l,1,3.4262,"[""0.071"",""0.290"",""0.135"",""0.762""]","[1,1,0,1]",0,44,44,44,1,1,0,,,0,FALSE,,,,,,,,,,,,,,,,,,,,,,,,,,,,,,
,,001,2022-04-29_01h58.27.998,classification_task,2021.2.3,Win32,59.73715651,5fe7b6d7baa7c46725b4e530,626b377229c10585ec392f89,626b37fd35585663c1f2ff7f,,,,,,,,,,,,,,,,,,,,,,,l,0,2.8084,"[""0.185"",""0.443"",""0.884"",""0.146""]","[1,1,1,0]",0,45,45,45,1,0,0,,,0,FALSE,,,,,,,,,,,,,,,,,,,,,,,,,,,,,,
,,001,2022-04-29_01h58.27.998,classification_task,2021.2.3,Win32,59.73715651,5fe7b6d7baa7c46725b4e530,626b377229c10585ec392f89,626b37fd35585663c1f2ff7f,,,,,,,,,,,,,,,,,,,,,,,l,1,2.8601,"[""0.146"",""0.228"",""0.613"",""0.719""]","[0,1,1,1]",0,46,46,46,1,1,1,,,0,FALSE,,,,,,,,,,,,,,,,,,,,,,,,,,,,,,
,,001,2022-04-29_01h58.27.998,classification_task,2021.2.3,Win32,59.73715651,5fe7b6d7baa7c46725b4e530,626b377229c10585ec392f89,626b37fd35585663c1f2ff7f,,,,,,,,,,,,,,,,,,,,,,,l,1,1.16,"[""0.028"",""0.228"",""0.134"",""0.719""]","[1,1,0,1]",0,47,47,47,1,1,1,,,0,FALSE,,,,,,,,,,,,,,,,,,,,,,,,,,,,,,
,,001,2022-04-29_01h58.27.998,classification_task,2021.2.3,Win32,59.73715651,5fe7b6d7baa7c46725b4e530,626b377229c10585ec392f89,626b37fd35585663c1f2ff7f,,,,,,,,,,,,,,,,,,,,,,,a,1,3.216,"[""0.326"",""0.519"",""0.370"",""0.850""]","[1,1,0,1]",0,48,48,48,1,0,1,,,0,FALSE,,,,,,,,,,,,,,,,,,,,,,,,,,,,,,
,,001,2022-04-29_01h58.27.998,classification_task,2021.2.3,Win32,59.73715651,5fe7b6d7baa7c46725b4e530,626b377229c10585ec392f89,626b37fd35585663c1f2ff7f,,,,,,,,,,,,,,,,,,,,,,,l,1,2.8095,"[""0.071"",""0.478"",""0.562"",""0.762""]","[1,0,1,1]",0,49,49,49,1,1,0,,,0,FALSE,,,,,,,,,,,,,,,,,,,,,,,,,,,,,,
,,001,2022-04-29_01h58.27.998,classification_task,2021.2.3,Win32,59.73715651,5fe7b6d7baa7c46725b4e530,626b377229c10585ec392f89,626b37fd35585663c1f2ff7f,,,,,,,,,,,,,,,,,,,,,,,a,1,1.7491,"[""0.674"",""0.519"",""0.807"",""0.850""]","[0,1,1,1]",0,50,50,50,1,0,1,,,0,FALSE,,,,,,,,,,,,,,,,,,,,,,,,,,,,,,
,,001,2022-04-29_01h58.27.998,classification_task,2021.2.3,Win32,59.73715651,5fe7b6d7baa7c46725b4e530,626b377229c10585ec392f89,626b37fd35585663c1f2ff7f,,,,,,,,,,,,,,,,,,,,,,,l,0,1.8159,"[""0.185"",""0.443"",""0.141"",""0.960""]","[1,1,0,1]",0,51,51,51,1,0,0,,,0,FALSE,,,,,,,,,,,,,,,,,,,,,,,,,,,,,,
,,001,2022-04-29_01h58.27.998,classification_task,2021.2.3,Win32,59.73715651,5fe7b6d7baa7c46725b4e530,626b377229c10585ec392f89,626b37fd35585663c1f2ff7f,,,,,,,,,,,,,,,,,,,,,,,l,1,1.4096,"[""0.071"",""0.290"",""0.146"",""0.762""]","[1,1,0,1]",0,52,52,52,1,1,0,,,0,FALSE,,,,,,,,,,,,,,,,,,,,,,,,,,,,,,
,,001,2022-04-29_01h58.27.998,classification_task,2021.2.3,Win32,59.73715651,5fe7b6d7baa7c46725b4e530,626b377229c10585ec392f89,626b37fd35585663c1f2ff7f,,,,,,,,,,,,,,,,,,,,,,,a,1,1.9167,"[""0.391"",""0.443"",""0.884"",""0.960""]","[0,1,1,1]",0,53,53,53,1,0,0,,,0,FALSE,,,,,,,,,,,,,,,,,,,,,,,,,,,,,,
,,001,2022-04-29_01h58.27.998,classification_task,2021.2.3,Win32,59.73715651,5fe7b6d7baa7c46725b4e530,626b377229c10585ec392f89,626b37fd35585663c1f2ff7f,,,,,,,,,,,,,,,,,,,,,,,a,0,2.7323,"[""0.918"",""0.228"",""0.613"",""0.719""]","[0,1,1,1]",0,54,54,54,1,1,1,,,0,FALSE,,,,,,,,,,,,,,,,,,,,,,,,,,,,,,
,,001,2022-04-29_01h58.27.998,classification_task,2021.2.3,Win32,59.73715651,5fe7b6d7baa7c46725b4e530,626b377229c10585ec392f89,626b37fd35585663c1f2ff7f,,,,,,,,,,,,,,,,,,,,,,,l,0,2.1082,"[""0.185"",""0.443"",""0.884"",""0.370""]","[1,1,1,0]",0,55,55,55,1,0,0,,,0,FALSE,,,,,,,,,,,,,,,,,,,,,,,,,,,,,,
,,001,2022-04-29_01h58.27.998,classification_task,2021.2.3,Win32,59.73715651,5fe7b6d7baa7c46725b4e530,626b377229c10585ec392f89,626b37fd35585663c1f2ff7f,,,,,,,,,,,,,,,,,,,,,,,l,1,1.1271,"[""0.028"",""0.228"",""0.613"",""0.918""]","[1,1,1,0]",0,56,56,56,1,1,1,,,0,FALSE,,,,,,,,,,,,,,,,,,,,,,,,,,,,,,
,,001,2022-04-29_01h58.27.998,classification_task,2021.2.3,Win32,59.73715651,5fe7b6d7baa7c46725b4e530,626b377229c10585ec392f89,626b37fd35585663c1f2ff7f,,,,,,,,,,,,,,,,,,,,,,,a,0,1.732,"[""0.028"",""0.126"",""0.613"",""0.719""]","[1,0,1,1]",0,57,57,57,1,1,1,,,0,FALSE,,,,,,,,,,,,,,,,,,,,,,,,,,,,,,
,,001,2022-04-29_01h58.27.998,classification_task,2021.2.3,Win32,59.73715651,5fe7b6d7baa7c46725b4e530,626b377229c10585ec392f89,626b37fd35585663c1f2ff7f,,,,,,,,,,,,,,,,,,,,,,,l,1,1.2845,"[""0.071"",""0.290"",""0.562"",""0.377""]","[1,1,1,0]",0,58,58,58,1,1,0,,,0,FALSE,,,,,,,,,,,,,,,,,,,,,,,,,,,,,,
,,001,2022-04-29_01h58.27.998,classification_task,2021.2.3,Win32,59.73715651,5fe7b6d7baa7c46725b4e530,626b377229c10585ec392f89,626b37fd35585663c1f2ff7f,,,,,,,,,,,,,,,,,,,,,,,a,1,1.5828,"[""0.326"",""0.123"",""0.807"",""0.850""]","[1,0,1,1]",0,59,59,59,1,0,1,,,0,FALSE,,,,,,,,,,,,,,,,,,,,,,,,,,,,,,
,,001,2022-04-29_01h58.27.998,classification_task,2021.2.3,Win32,59.73715651,5fe7b6d7baa7c46725b4e530,626b377229c10585ec392f89,626b37fd35585663c1f2ff7f,,,,,,,,,,,,,,,,,,,,,,,a,1,1.9609,"[""0.185"",""0.918"",""0.884"",""0.960""]","[1,0,1,1]",0,60,60,60,1,0,0,,,0,FALSE,,,,,,,,,,,,,,,,,,,,,,,,,,,,,,
,,001,2022-04-29_01h58.27.998,classification_task,2021.2.3,Win32,59.73715651,5fe7b6d7baa7c46725b4e530,626b377229c10585ec392f89,626b37fd35585663c1f2ff7f,,,,,,,,,,,,,,,,,,,,,,,l,1,1.0682,"[""0.028"",""0.228"",""0.126"",""0.719""]","[1,1,0,1]",0,61,61,61,1,1,1,,,0,FALSE,,,,,,,,,,,,,,,,,,,,,,,,,,,,,,
,,001,2022-04-29_01h58.27.998,classification_task,2021.2.3,Win32,59.73715651,5fe7b6d7baa7c46725b4e530,626b377229c10585ec392f89,626b37fd35585663c1f2ff7f,,,,,,,,,,,,,,,,,,,,,,,l,1,2.8136,"[""0.134"",""0.290"",""0.562"",""0.762""]","[0,1,1,1]",0,62,62,62,1,1,0,,,0,FALSE,,,,,,,,,,,,,,,,,,,,,,,,,,,,,,
,,001,2022-04-29_01h58.27.998,classification_task,2021.2.3,Win32,59.73715651,5fe7b6d7baa7c46725b4e530,626b377229c10585ec392f89,626b37fd35585663c1f2ff7f,,,,,,,,,,,,,,,,,,,,,,,a,1,1.6596,"[""0.326"",""0.519"",""0.807"",""0.478""]","[1,1,1,0]",0,63,63,63,1,0,1,,,0,FALSE,,,,,,,,,,,,,,,,,,,,,,,,,,,,,,
,,001,2022-04-29_01h58.27.998,classification_task,2021.2.3,Win32,59.73715651,5fe7b6d7baa7c46725b4e530,626b377229c10585ec392f89,626b37fd35585663c1f2ff7f,,,,,,,,,,,,,,,,,,,,,,,,,,,,,,,,,,,,,,,0, ,,0,5.961444996,613.6096,0,0,0,0,1,2,1,,,,,,,,,,,,,,,,,
,,001,2022-04-29_01h58.27.998,classification_task,2021.2.3,Win32,59.73715651,5fe7b6d7baa7c46725b4e530,626b377229c10585ec392f89,626b37fd35585663c1f2ff7f,,,,,,,,,,,,,,,,,,,,,,,,,,,,,,,,,,,,,,,1,  ,,0,4.07529847,625.1703,0,0,0,0,1,2,1,,,,,,,,,,,,,,,,,
,,001,2022-04-29_01h58.27.998,classification_task,2021.2.3,Win32,59.73715651,5fe7b6d7baa7c46725b4e530,626b377229c10585ec392f89,626b37fd35585663c1f2ff7f,,,,,,,,,,,,,,,,,,,,,,,,,,,,,,,,,,,,,,,2,  ,,0,3.095482675,632.5667,0,0,0,0,1,2,1,,,,,,,,,,,,,,,,,
,,001,2022-04-29_01h58.27.998,classification_task,2021.2.3,Win32,59.73715651,5fe7b6d7baa7c46725b4e530,626b377229c10585ec392f89,626b37fd35585663c1f2ff7f,,,,,,,,,,,,,,,,,,,,,,,,,,,,,,,,,,,,,,,,,,,,,0,0,0,0,1,,1,,,,,,,,,,,,,,,,,
,,001,2022-04-29_01h58.27.998,classification_task,2021.2.3,Win32,59.73715651,5fe7b6d7baa7c46725b4e530,626b377229c10585ec392f89,626b37fd35585663c1f2ff7f,,,,,,,,,,,,,,,,,,,,,space,10.3026,l,1,7.6789,"[""0.071"",""0.290"",""0.135"",""0.762""]","[1,1,0,1]",0,0,0,0,1,1,0,,,0,FALSE,,,,,,,,,,,,,,,,,,,,,,,,,,,,,,
,,001,2022-04-29_01h58.27.998,classification_task,2021.2.3,Win32,59.73715651,5fe7b6d7baa7c46725b4e530,626b377229c10585ec392f89,626b37fd35585663c1f2ff7f,,,,,,,,,,,,,,,,,,,,,,,l,0,2.6154,"[""0.326"",""0.519"",""0.807"",""0.918""]","[1,1,1,0]",0,1,1,1,1,0,1,,,0,FALSE,,,,,,,,,,,,,,,,,,,,,,,,,,,,,,
,,001,2022-04-29_01h58.27.998,classification_task,2021.2.3,Win32,59.73715651,5fe7b6d7baa7c46725b4e530,626b377229c10585ec392f89,626b37fd35585663c1f2ff7f,,,,,,,,,,,,,,,,,,,,,,,l,1,4.7731,"[""0.071"",""0.290"",""0.562"",""0.478""]","[1,1,1,0]",0,2,2,2,1,1,0,,,0,FALSE,,,,,,,,,,,,,,,,,,,,,,,,,,,,,,
,,001,2022-04-29_01h58.27.998,classification_task,2021.2.3,Win32,59.73715651,5fe7b6d7baa7c46725b4e530,626b377229c10585ec392f89,626b37fd35585663c1f2ff7f,,,,,,,,,,,,,,,,,,,,,,,a,1,3.8742,"[""0.326"",""0.135"",""0.807"",""0.850""]","[1,0,1,1]",0,3,3,3,1,0,1,,,0,FALSE,,,,,,,,,,,,,,,,,,,,,,,,,,,,,,
,,001,2022-04-29_01h58.27.998,classification_task,2021.2.3,Win32,59.73715651,5fe7b6d7baa7c46725b4e530,626b377229c10585ec392f89,626b37fd35585663c1f2ff7f,,,,,,,,,,,,,,,,,,,,,,,l,0,1.7384,"[""0.185"",""0.443"",""0.141"",""0.960""]","[1,1,0,1]",0,4,4,4,1,0,0,,,0,FALSE,,,,,,,,,,,,,,,,,,,,,,,,,,,,,,
,,001,2022-04-29_01h58.27.998,classification_task,2021.2.3,Win32,59.73715651,5fe7b6d7baa7c46725b4e530,626b377229c10585ec392f89,626b37fd35585663c1f2ff7f,,,,,,,,,,,,,,,,,,,,,,,l,1,1.2506,"[""0.028"",""0.228"",""0.613"",""0.143""]","[1,1,1,0]",0,5,5,5,1,1,1,,,0,FALSE,,,,,,,,,,,,,,,,,,,,,,,,,,,,,,
,,001,2022-04-29_01h58.27.998,classification_task,2021.2.3,Win32,59.73715651,5fe7b6d7baa7c46725b4e530,626b377229c10585ec392f89,626b37fd35585663c1f2ff7f,,,,,,,,,,,,,,,,,,,,,,,a,0,1.6767,"[""0.134"",""0.228"",""0.613"",""0.719""]","[0,1,1,1]",0,6,6,6,1,1,1,,,0,FALSE,,,,,,,,,,,,,,,,,,,,,,,,,,,,,,
,,001,2022-04-29_01h58.27.998,classification_task,2021.2.3,Win32,59.73715651,5fe7b6d7baa7c46725b4e530,626b377229c10585ec392f89,626b37fd35585663c1f2ff7f,,,,,,,,,,,,,,,,,,,,,,,a,1,2.1119,"[""0.185"",""0.443"",""0.884"",""0.674""]","[1,1,1,0]",0,7,7,7,1,0,0,,,0,FALSE,,,,,,,,,,,,,,,,,,,,,,,,,,,,,,
,,001,2022-04-29_01h58.27.998,classification_task,2021.2.3,Win32,59.73715651,5fe7b6d7baa7c46725b4e530,626b377229c10585ec392f89,626b37fd35585663c1f2ff7f,,,,,,,,,,,,,,,,,,,,,,,a,1,1.2138,"[""0.377"",""0.519"",""0.807"",""0.850""]","[0,1,1,1]",0,8,8,8,1,0,1,,,0,FALSE,,,,,,,,,,,,,,,,,,,,,,,,,,,,,,
,,001,2022-04-29_01h58.27.998,classification_task,2021.2.3,Win32,59.73715651,5fe7b6d7baa7c46725b4e530,626b377229c10585ec392f89,626b37fd35585663c1f2ff7f,,,,,,,,,,,,,,,,,,,,,,,l,1,1.6893,"[""0.071"",""0.123"",""0.562"",""0.762""]","[1,0,1,1]",0,9,9,9,1,1,0,,,0,FALSE,,,,,,,,,,,,,,,,,,,,,,,,,,,,,,
,,001,2022-04-29_01h58.27.998,classification_task,2021.2.3,Win32,59.73715651,5fe7b6d7baa7c46725b4e530,626b377229c10585ec392f89,626b37fd35585663c1f2ff7f,,,,,,,,,,,,,,,,,,,,,,,l,1,3.1791,"[""0.028"",""0.134"",""0.613"",""0.719""]","[1,0,1,1]",0,10,10,10,1,1,1,,,0,FALSE,,,,,,,,,,,,,,,,,,,,,,,,,,,,,,
,,001,2022-04-29_01h58.27.998,classification_task,2021.2.3,Win32,59.73715651,5fe7b6d7baa7c46725b4e530,626b377229c10585ec392f89,626b37fd35585663c1f2ff7f,,,,,,,,,,,,,,,,,,,,,,,a,1,2.0222,"[""0.123"",""0.443"",""0.884"",""0.960""]","[0,1,1,1]",0,11,11,11,1,0,0,,,0,FALSE,,,,,,,,,,,,,,,,,,,,,,,,,,,,,,
,,001,2022-04-29_01h58.27.998,classification_task,2021.2.3,Win32,59.73715651,5fe7b6d7baa7c46725b4e530,626b377229c10585ec392f89,626b37fd35585663c1f2ff7f,,,,,,,,,,,,,,,,,,,,,,,l,1,3.5548,"[""0.028"",""0.228"",""0.671"",""0.719""]","[1,1,0,1]",0,12,12,12,1,1,1,,,0,FALSE,,,,,,,,,,,,,,,,,,,,,,,,,,,,,,
,,001,2022-04-29_01h58.27.998,classification_task,2021.2.3,Win32,59.73715651,5fe7b6d7baa7c46725b4e530,626b377229c10585ec392f89,626b37fd35585663c1f2ff7f,,,,,,,,,,,,,,,,,,,,,,,l,1,3.4379,"[""0.143"",""0.290"",""0.562"",""0.762""]","[0,1,1,1]",0,13,13,13,1,1,0,,,0,FALSE,,,,,,,,,,,,,,,,,,,,,,,,,,,,,,
,,001,2022-04-29_01h58.27.998,classification_task,2021.2.3,Win32,59.73715651,5fe7b6d7baa7c46725b4e530,626b377229c10585ec392f89,626b37fd35585663c1f2ff7f,,,,,,,,,,,,,,,,,,,,,,,a,1,1.5721,"[""0.326"",""0.519"",""0.143"",""0.850""]","[1,1,0,1]",0,14,14,14,1,0,1,,,0,FALSE,,,,,,,,,,,,,,,,,,,,,,,,,,,,,,
,,001,2022-04-29_01h58.27.998,classification_task,2021.2.3,Win32,59.73715651,5fe7b6d7baa7c46725b4e530,626b377229c10585ec392f89,626b37fd35585663c1f2ff7f,,,,,,,,,,,,,,,,,,,,,,,a,1,1.1618,"[""0.185"",""0.146"",""0.884"",""0.960""]","[1,0,1,1]",0,15,15,15,1,0,0,,,0,FALSE,,,,,,,,,,,,,,,,,,,,,,,,,,,,,,
,,001,2022-04-29_01h58.27.998,classification_task,2021.2.3,Win32,59.73715651,5fe7b6d7baa7c46725b4e530,626b377229c10585ec392f89,626b37fd35585663c1f2ff7f,,,,,,,,,,,,,,,,,,,,,,,a,0,1.5124,"[""0.028"",""0.228"",""0.613"",""0.918""]","[1,1,1,0]",0,16,16,16,1,1,1,,,0,FALSE,,,,,,,,,,,,,,,,,,,,,,,,,,,,,,
,,001,2022-04-29_01h58.27.998,classification_task,2021.2.3,Win32,59.73715651,5fe7b6d7baa7c46725b4e530,626b377229c10585ec392f89,626b37fd35585663c1f2ff7f,,,,,,,,,,,,,,,,,,,,,,,a,1,0.939,"[""0.146"",""0.443"",""0.884"",""0.960""]","[0,1,1,1]",0,17,17,17,1,0,0,,,0,FALSE,,,,,,,,,,,,,,,,,,,,,,,,,,,,,,
,,001,2022-04-29_01h58.27.998,classification_task,2021.2.3,Win32,59.73715651,5fe7b6d7baa7c46725b4e530,626b377229c10585ec392f89,626b37fd35585663c1f2ff7f,,,,,,,,,,,,,,,,,,,,,,,l,1,1.1546,"[""0.071"",""0.290"",""0.562"",""0.674""]","[1,1,1,0]",0,18,18,18,1,1,0,,,0,FALSE,,,,,,,,,,,,,,,,,,,,,,,,,,,,,,
,,001,2022-04-29_01h58.27.998,classification_task,2021.2.3,Win32,59.73715651,5fe7b6d7baa7c46725b4e530,626b377229c10585ec392f89,626b37fd35585663c1f2ff7f,,,,,,,,,,,,,,,,,,,,,,,a,1,1.4617,"[""0.326"",""0.661"",""0.807"",""0.850""]","[1,0,1,1]",0,19,19,19,1,0,1,,,0,FALSE,,,,,,,,,,,,,,,,,,,,,,,,,,,,,,
,,001,2022-04-29_01h58.27.998,classification_task,2021.2.3,Win32,59.73715651,5fe7b6d7baa7c46725b4e530,626b377229c10585ec392f89,626b37fd35585663c1f2ff7f,,,,,,,,,,,,,,,,,,,,,,,a,0,1.1627,"[""0.071"",""0.290"",""0.370"",""0.762""]","[1,1,0,1]",0,20,20,20,1,1,0,,,0,FALSE,,,,,,,,,,,,,,,,,,,,,,,,,,,,,,
,,001,2022-04-29_01h58.27.998,classification_task,2021.2.3,Win32,59.73715651,5fe7b6d7baa7c46725b4e530,626b377229c10585ec392f89,626b37fd35585663c1f2ff7f,,,,,,,,,,,,,,,,,,,,,,,a,1,2.3496,"[""0.185"",""0.443"",""0.884"",""0.135""]","[1,1,1,0]",0,21,21,21,1,0,0,,,0,FALSE,,,,,,,,,,,,,,,,,,,,,,,,,,,,,,
,,001,2022-04-29_01h58.27.998,classification_task,2021.2.3,Win32,59.73715651,5fe7b6d7baa7c46725b4e530,626b377229c10585ec392f89,626b37fd35585663c1f2ff7f,,,,,,,,,,,,,,,,,,,,,,,l,1,1.608,"[""0.071"",""0.143"",""0.562"",""0.762""]","[1,0,1,1]",0,22,22,22,1,1,0,,,0,FALSE,,,,,,,,,,,,,,,,,,,,,,,,,,,,,,
,,001,2022-04-29_01h58.27.998,classification_task,2021.2.3,Win32,59.73715651,5fe7b6d7baa7c46725b4e530,626b377229c10585ec392f89,626b37fd35585663c1f2ff7f,,,,,,,,,,,,,,,,,,,,,,,l,1,1.3623,"[""0.028"",""0.143"",""0.613"",""0.719""]","[1,0,1,1]",0,23,23,23,1,1,1,,,0,FALSE,,,,,,,,,,,,,,,,,,,,,,,,,,,,,,
,,001,2022-04-29_01h58.27.998,classification_task,2021.2.3,Win32,59.73715651,5fe7b6d7baa7c46725b4e530,626b377229c10585ec392f89,626b37fd35585663c1f2ff7f,,,,,,,,,,,,,,,,,,,,,,,l,1,1.1141,"[""0.126"",""0.290"",""0.562"",""0.762""]","[0,1,1,1]",0,24,24,24,1,1,0,,,0,FALSE,,,,,,,,,,,,,,,,,,,,,,,,,,,,,,
,,001,2022-04-29_01h58.27.998,classification_task,2021.2.3,Win32,59.73715651,5fe7b6d7baa7c46725b4e530,626b377229c10585ec392f89,626b37fd35585663c1f2ff7f,,,,,,,,,,,,,,,,,,,,,,,a,0,1.4965,"[""0.028"",""0.228"",""0.661"",""0.719""]","[1,1,0,1]",0,25,25,25,1,1,1,,,0,FALSE,,,,,,,,,,,,,,,,,,,,,,,,,,,,,,
,,001,2022-04-29_01h58.27.998,classification_task,2021.2.3,Win32,59.73715651,5fe7b6d7baa7c46725b4e530,626b377229c10585ec392f89,626b37fd35585663c1f2ff7f,,,,,,,,,,,,,,,,,,,,,,,a,1,1.0319,"[""0.146"",""0.519"",""0.807"",""0.850""]","[0,1,1,1]",0,26,26,26,1,0,1,,,0,FALSE,,,,,,,,,,,,,,,,,,,,,,,,,,,,,,
,,001,2022-04-29_01h58.27.998,classification_task,2021.2.3,Win32,59.73715651,5fe7b6d7baa7c46725b4e530,626b377229c10585ec392f89,626b37fd35585663c1f2ff7f,,,,,,,,,,,,,,,,,,,,,,,a,1,1.8651,"[""0.326"",""0.519"",""0.807"",""0.134""]","[1,1,1,0]",0,27,27,27,1,0,1,,,0,FALSE,,,,,,,,,,,,,,,,,,,,,,,,,,,,,,
,,001,2022-04-29_01h58.27.998,classification_task,2021.2.3,Win32,59.73715651,5fe7b6d7baa7c46725b4e530,626b377229c10585ec392f89,626b37fd35585663c1f2ff7f,,,,,,,,,,,,,,,,,,,,,,,a,1,1.3324,"[""0.185"",""0.123"",""0.884"",""0.960""]","[1,0,1,1]",0,28,28,28,1,0,0,,,0,FALSE,,,,,,,,,,,,,,,,,,,,,,,,,,,,,,
,,001,2022-04-29_01h58.27.998,classification_task,2021.2.3,Win32,59.73715651,5fe7b6d7baa7c46725b4e530,626b377229c10585ec392f89,626b37fd35585663c1f2ff7f,,,,,,,,,,,,,,,,,,,,,,,a,1,1.1998,"[""0.185"",""0.443"",""0.135"",""0.960""]","[1,1,0,1]",0,29,29,29,1,0,0,,,0,FALSE,,,,,,,,,,,,,,,,,,,,,,,,,,,,,,
,,001,2022-04-29_01h58.27.998,classification_task,2021.2.3,Win32,59.73715651,5fe7b6d7baa7c46725b4e530,626b377229c10585ec392f89,626b37fd35585663c1f2ff7f,,,,,,,,,,,,,,,,,,,,,,,l,1,2.0966,"[""0.478"",""0.228"",""0.613"",""0.719""]","[0,1,1,1]",0,30,30,30,1,1,1,,,0,FALSE,,,,,,,,,,,,,,,,,,,,,,,,,,,,,,
,,001,2022-04-29_01h58.27.998,classification_task,2021.2.3,Win32,59.73715651,5fe7b6d7baa7c46725b4e530,626b377229c10585ec392f89,626b37fd35585663c1f2ff7f,,,,,,,,,,,,,,,,,,,,,,,a,1,1.8593,"[""0.326"",""0.519"",""0.377"",""0.850""]","[1,1,0,1]",0,31,31,31,1,0,1,,,0,FALSE,,,,,,,,,,,,,,,,,,,,,,,,,,,,,,
,,001,2022-04-29_01h58.27.998,classification_task,2021.2.3,Win32,59.73715651,5fe7b6d7baa7c46725b4e530,626b377229c10585ec392f89,626b37fd35585663c1f2ff7f,,,,,,,,,,,,,,,,,,,,,,,l,1,1.4311,"[""0.370"",""0.290"",""0.562"",""0.762""]","[0,1,1,1]",0,32,32,32,1,1,0,,,0,FALSE,,,,,,,,,,,,,,,,,,,,,,,,,,,,,,
,,001,2022-04-29_01h58.27.998,classification_task,2021.2.3,Win32,59.73715651,5fe7b6d7baa7c46725b4e530,626b377229c10585ec392f89,626b37fd35585663c1f2ff7f,,,,,,,,,,,,,,,,,,,,,,,a,1,1.326,"[""0.326"",""0.519"",""0.661"",""0.850""]","[1,1,0,1]",0,33,33,33,1,0,1,,,0,FALSE,,,,,,,,,,,,,,,,,,,,,,,,,,,,,,
,,001,2022-04-29_01h58.27.998,classification_task,2021.2.3,Win32,59.73715651,5fe7b6d7baa7c46725b4e530,626b377229c10585ec392f89,626b37fd35585663c1f2ff7f,,,,,,,,,,,,,,,,,,,,,,,a,1,1.0963,"[""0.185"",""0.370"",""0.884"",""0.960""]","[1,0,1,1]",0,34,34,34,1,0,0,,,0,FALSE,,,,,,,,,,,,,,,,,,,,,,,,,,,,,,
,,001,2022-04-29_01h58.27.998,classification_task,2021.2.3,Win32,59.73715651,5fe7b6d7baa7c46725b4e530,626b377229c10585ec392f89,626b37fd35585663c1f2ff7f,,,,,,,,,,,,,,,,,,,,,,,l,1,1.7494,"[""0.071"",""0.290"",""0.143"",""0.762""]","[1,1,0,1]",0,35,35,35,1,1,0,,,0,FALSE,,,,,,,,,,,,,,,,,,,,,,,,,,,,,,
,,001,2022-04-29_01h58.27.998,classification_task,2021.2.3,Win32,59.73715651,5fe7b6d7baa7c46725b4e530,626b377229c10585ec392f89,626b37fd35585663c1f2ff7f,,,,,,,,,,,,,,,,,,,,,,,a,0,1.4052,"[""0.071"",""0.290"",""0.562"",""0.918""]","[1,1,1,0]",0,36,36,36,1,1,0,,,0,FALSE,,,,,,,,,,,,,,,,,,,,,,,,,,,,,,
,,001,2022-04-29_01h58.27.998,classification_task,2021.2.3,Win32,59.73715651,5fe7b6d7baa7c46725b4e530,626b377229c10585ec392f89,626b37fd35585663c1f2ff7f,,,,,,,,,,,,,,,,,,,,,,,a,0,1.2151,"[""0.918"",""0.228"",""0.613"",""0.719""]","[0,1,1,1]",0,37,37,37,1,1,1,,,0,FALSE,,,,,,,,,,,,,,,,,,,,,,,,,,,,,,
,,001,2022-04-29_01h58.27.998,classification_task,2021.2.3,Win32,59.73715651,5fe7b6d7baa7c46725b4e530,626b377229c10585ec392f89,626b37fd35585663c1f2ff7f,,,,,,,,,,,,,,,,,,,,,,,l,1,1.6119,"[""0.071"",""0.674"",""0.562"",""0.762""]","[1,0,1,1]",0,38,38,38,1,1,0,,,0,FALSE,,,,,,,,,,,,,,,,,,,,,,,,,,,,,,
,,001,2022-04-29_01h58.27.998,classification_task,2021.2.3,Win32,59.73715651,5fe7b6d7baa7c46725b4e530,626b377229c10585ec392f89,626b37fd35585663c1f2ff7f,,,,,,,,,,,,,,,,,,,,,,,a,1,1.0264,"[""0.370"",""0.443"",""0.884"",""0.960""]","[0,1,1,1]",0,39,39,39,1,0,0,,,0,FALSE,,,,,,,,,,,,,,,,,,,,,,,,,,,,,,
,,001,2022-04-29_01h58.27.998,classification_task,2021.2.3,Win32,59.73715651,5fe7b6d7baa7c46725b4e530,626b377229c10585ec392f89,626b37fd35585663c1f2ff7f,,,,,,,,,,,,,,,,,,,,,,,l,1,1.3295,"[""0.028"",""0.228"",""0.613"",""0.141""]","[1,1,1,0]",0,40,40,40,1,1,1,,,0,FALSE,,,,,,,,,,,,,,,,,,,,,,,,,,,,,,
,,001,2022-04-29_01h58.27.998,classification_task,2021.2.3,Win32,59.73715651,5fe7b6d7baa7c46725b4e530,626b377229c10585ec392f89,626b37fd35585663c1f2ff7f,,,,,,,,,,,,,,,,,,,,,,,a,0,2.9366,"[""0.028"",""0.391"",""0.613"",""0.719""]","[1,0,1,1]",0,41,41,41,1,1,1,,,0,FALSE,,,,,,,,,,,,,,,,,,,,,,,,,,,,,,
,,001,2022-04-29_01h58.27.998,classification_task,2021.2.3,Win32,59.73715651,5fe7b6d7baa7c46725b4e530,626b377229c10585ec392f89,626b37fd35585663c1f2ff7f,,,,,,,,,,,,,,,,,,,,,,,a,1,1.5461,"[""0.123"",""0.519"",""0.807"",""0.850""]","[0,1,1,1]",0,42,42,42,1,0,1,,,0,FALSE,,,,,,,,,,,,,,,,,,,,,,,,,,,,,,
,,001,2022-04-29_01h58.27.998,classification_task,2021.2.3,Win32,59.73715651,5fe7b6d7baa7c46725b4e530,626b377229c10585ec392f89,626b37fd35585663c1f2ff7f,,,,,,,,,,,,,,,,,,,,,,,l,1,1.0832,"[""0.028"",""0.228"",""0.123"",""0.719""]","[1,1,0,1]",0,43,43,43,1,1,1,,,0,FALSE,,,,,,,,,,,,,,,,,,,,,,,,,,,,,,
,,001,2022-04-29_01h58.27.998,classification_task,2021.2.3,Win32,59.73715651,5fe7b6d7baa7c46725b4e530,626b377229c10585ec392f89,626b37fd35585663c1f2ff7f,,,,,,,,,,,,,,,,,,,,,,,a,1,1.0342,"[""0.326"",""0.377"",""0.807"",""0.850""]","[1,0,1,1]",0,44,44,44,1,0,1,,,0,FALSE,,,,,,,,,,,,,,,,,,,,,,,,,,,,,,
,,001,2022-04-29_01h58.27.998,classification_task,2021.2.3,Win32,59.73715651,5fe7b6d7baa7c46725b4e530,626b377229c10585ec392f89,626b37fd35585663c1f2ff7f,,,,,,,,,,,,,,,,,,,,,,,l,0,1.3655,"[""0.185"",""0.443"",""0.884"",""0.671""]","[1,1,1,0]",0,45,45,45,1,0,0,,,0,FALSE,,,,,,,,,,,,,,,,,,,,,,,,,,,,,,
,,001,2022-04-29_01h58.27.998,classification_task,2021.2.3,Win32,59.73715651,5fe7b6d7baa7c46725b4e530,626b377229c10585ec392f89,626b37fd35585663c1f2ff7f,,,,,,,,,,,,,,,,,,,,,,,a,1,1.2584,"[""0.185"",""0.443"",""0.478"",""0.960""]","[1,1,0,1]",0,46,46,46,1,0,0,,,0,FALSE,,,,,,,,,,,,,,,,,,,,,,,,,,,,,,
,,001,2022-04-29_01h58.27.998,classification_task,2021.2.3,Win32,59.73715651,5fe7b6d7baa7c46725b4e530,626b377229c10585ec392f89,626b37fd35585663c1f2ff7f,,,,,,,,,,,,,,,,,,,,,,,a,1,4.6793,"[""0.326"",""0.519"",""0.807"",""0.126""]","[1,1,1,0]",0,47,47,47,1,0,1,,,0,FALSE,,,,,,,,,,,,,,,,,,,,,,,,,,,,,,
,,001,2022-04-29_01h58.27.998,classification_task,2021.2.3,Win32,59.73715651,5fe7b6d7baa7c46725b4e530,626b377229c10585ec392f89,626b37fd35585663c1f2ff7f,,,,,,,,,,,,,,,,,,,,,,,a,0,1.8392,"[""0.071"",""0.290"",""0.478"",""0.762""]","[1,1,0,1]",0,48,48,48,1,1,0,,,0,FALSE,,,,,,,,,,,,,,,,,,,,,,,,,,,,,,
,,001,2022-04-29_01h58.27.998,classification_task,2021.2.3,Win32,59.73715651,5fe7b6d7baa7c46725b4e530,626b377229c10585ec392f89,626b37fd35585663c1f2ff7f,,,,,,,,,,,,,,,,,,,,,,,a,1,1.7419,"[""0.326"",""0.141"",""0.807"",""0.850""]","[1,0,1,1]",0,49,49,49,1,0,1,,,0,FALSE,,,,,,,,,,,,,,,,,,,,,,,,,,,,,,
,,001,2022-04-29_01h58.27.998,classification_task,2021.2.3,Win32,59.73715651,5fe7b6d7baa7c46725b4e530,626b377229c10585ec392f89,626b37fd35585663c1f2ff7f,,,,,,,,,,,,,,,,,,,,,,,l,1,0.9961,"[""0.071"",""0.123"",""0.562"",""0.762""]","[1,0,1,1]",0,50,50,50,1,1,0,,,0,FALSE,,,,,,,,,,,,,,,,,,,,,,,,,,,,,,
,,001,2022-04-29_01h58.27.998,classification_task,2021.2.3,Win32,59.73715651,5fe7b6d7baa7c46725b4e530,626b377229c10585ec392f89,626b37fd35585663c1f2ff7f,,,,,,,,,,,,,,,,,,,,,,,l,1,1.2624,"[""0.028"",""0.228"",""0.661"",""0.719""]","[1,1,0,1]",0,51,51,51,1,1,1,,,0,FALSE,,,,,,,,,,,,,,,,,,,,,,,,,,,,,,
,,001,2022-04-29_01h58.27.998,classification_task,2021.2.3,Win32,59.73715651,5fe7b6d7baa7c46725b4e530,626b377229c10585ec392f89,626b37fd35585663c1f2ff7f,,,,,,,,,,,,,,,,,,,,,,,a,1,1.1133,"[""0.135"",""0.443"",""0.884"",""0.960""]","[0,1,1,1]",0,52,52,52,1,0,0,,,0,FALSE,,,,,,,,,,,,,,,,,,,,,,,,,,,,,,
,,001,2022-04-29_01h58.27.998,classification_task,2021.2.3,Win32,59.73715651,5fe7b6d7baa7c46725b4e530,626b377229c10585ec392f89,626b37fd35585663c1f2ff7f,,,,,,,,,,,,,,,,,,,,,,,a,1,1.1232,"[""0.135"",""0.519"",""0.807"",""0.850""]","[0,1,1,1]",0,53,53,53,1,0,1,,,0,FALSE,,,,,,,,,,,,,,,,,,,,,,,,,,,,,,
,,001,2022-04-29_01h58.27.998,classification_task,2021.2.3,Win32,59.73715651,5fe7b6d7baa7c46725b4e530,626b377229c10585ec392f89,626b37fd35585663c1f2ff7f,,,,,,,,,,,,,,,,,,,,,,,l,1,2.0167,"[""0.028"",""0.671"",""0.613"",""0.719""]","[1,0,1,1]",0,54,54,54,1,1,1,,,0,FALSE,,,,,,,,,,,,,,,,,,,,,,,,,,,,,,
,,001,2022-04-29_01h58.27.998,classification_task,2021.2.3,Win32,59.73715651,5fe7b6d7baa7c46725b4e530,626b377229c10585ec392f89,626b37fd35585663c1f2ff7f,,,,,,,,,,,,,,,,,,,,,,,l,0,1.5481,"[""0.185"",""0.443"",""0.884"",""0.135""]","[1,1,1,0]",0,55,55,55,1,0,0,,,0,FALSE,,,,,,,,,,,,,,,,,,,,,,,,,,,,,,
,,001,2022-04-29_01h58.27.998,classification_task,2021.2.3,Win32,59.73715651,5fe7b6d7baa7c46725b4e530,626b377229c10585ec392f89,626b37fd35585663c1f2ff7f,,,,,,,,,,,,,,,,,,,,,,,a,0,1.4341,"[""0.135"",""0.290"",""0.562"",""0.762""]","[0,1,1,1]",0,56,56,56,1,1,0,,,0,FALSE,,,,,,,,,,,,,,,,,,,,,,,,,,,,,,
,,001,2022-04-29_01h58.27.998,classification_task,2021.2.3,Win32,59.73715651,5fe7b6d7baa7c46725b4e530,626b377229c10585ec392f89,626b37fd35585663c1f2ff7f,,,,,,,,,,,,,,,,,,,,,,,l,1,1.5553,"[""0.135"",""0.228"",""0.613"",""0.719""]","[0,1,1,1]",0,57,57,57,1,1,1,,,0,FALSE,,,,,,,,,,,,,,,,,,,,,,,,,,,,,,
,,001,2022-04-29_01h58.27.998,classification_task,2021.2.3,Win32,59.73715651,5fe7b6d7baa7c46725b4e530,626b377229c10585ec392f89,626b37fd35585663c1f2ff7f,,,,,,,,,,,,,,,,,,,,,,,a,1,0.7796,"[""0.185"",""0.918"",""0.884"",""0.960""]","[1,0,1,1]",0,58,58,58,1,0,0,,,0,FALSE,,,,,,,,,,,,,,,,,,,,,,,,,,,,,,
,,001,2022-04-29_01h58.27.998,classification_task,2021.2.3,Win32,59.73715651,5fe7b6d7baa7c46725b4e530,626b377229c10585ec392f89,626b37fd35585663c1f2ff7f,,,,,,,,,,,,,,,,,,,,,,,l,1,1.2804,"[""0.028"",""0.228"",""0.613"",""0.123""]","[1,1,1,0]",0,59,59,59,1,1,1,,,0,FALSE,,,,,,,,,,,,,,,,,,,,,,,,,,,,,,
,,001,2022-04-29_01h58.27.998,classification_task,2021.2.3,Win32,59.73715651,5fe7b6d7baa7c46725b4e530,626b377229c10585ec392f89,626b37fd35585663c1f2ff7f,,,,,,,,,,,,,,,,,,,,,,,a,1,1.0525,"[""0.185"",""0.443"",""0.360"",""0.960""]","[1,1,0,1]",0,60,60,60,1,0,0,,,0,FALSE,,,,,,,,,,,,,,,,,,,,,,,,,,,,,,
,,001,2022-04-29_01h58.27.998,classification_task,2021.2.3,Win32,59.73715651,5fe7b6d7baa7c46725b4e530,626b377229c10585ec392f89,626b37fd35585663c1f2ff7f,,,,,,,,,,,,,,,,,,,,,,,l,1,1.099,"[""0.071"",""0.290"",""0.562"",""0.918""]","[1,1,1,0]",0,61,61,61,1,1,0,,,0,FALSE,,,,,,,,,,,,,,,,,,,,,,,,,,,,,,
,,001,2022-04-29_01h58.27.998,classification_task,2021.2.3,Win32,59.73715651,5fe7b6d7baa7c46725b4e530,626b377229c10585ec392f89,626b37fd35585663c1f2ff7f,,,,,,,,,,,,,,,,,,,,,,,l,0,1.2922,"[""0.326"",""0.519"",""0.123"",""0.850""]","[1,1,0,1]",0,62,62,62,1,0,1,,,0,FALSE,,,,,,,,,,,,,,,,,,,,,,,,,,,,,,
,,001,2022-04-29_01h58.27.998,classification_task,2021.2.3,Win32,59.73715651,5fe7b6d7baa7c46725b4e530,626b377229c10585ec392f89,626b37fd35585663c1f2ff7f,,,,,,,,,,,,,,,,,,,,,,,a,1,1.2489,"[""0.326"",""0.519"",""0.807"",""0.661""]","[1,1,1,0]",0,63,63,63,1,0,1,,,0,FALSE,,,,,,,,,,,,,,,,,,,,,,,,,,,,,,
,,001,2022-04-29_01h58.27.998,classification_task,2021.2.3,Win32,59.73715651,5fe7b6d7baa7c46725b4e530,626b377229c10585ec392f89,626b37fd35585663c1f2ff7f,,,,,,,,,,,,,,,,,,,,,,,,,,,,,,,,,,,,,,,0, ,,0,6.010435038,218.3297,0,1,1,1,1,2,2,,,,,,,,,,,,,,,,,
,,001,2022-04-29_01h58.27.998,classification_task,2021.2.3,Win32,59.73715651,5fe7b6d7baa7c46725b4e530,626b377229c10585ec392f89,626b37fd35585663c1f2ff7f,,,,,,,,,,,,,,,,,,,,,,,,,,,,,,,,,,,,,,,1,  ,,0,5.177591239,215.3631,0,1,1,1,1,2,2,,,,,,,,,,,,,,,,,
,,001,2022-04-29_01h58.27.998,classification_task,2021.2.3,Win32,59.73715651,5fe7b6d7baa7c46725b4e530,626b377229c10585ec392f89,626b37fd35585663c1f2ff7f,,,,,,,,,,,,,,,,,,,,,,,,,,,,,,,,,,,,,,,2,  ,,0,4.36924433,224.3561,0,1,1,1,1,2,2,,,,,,,,,,,,,,,,,
,,001,2022-04-29_01h58.27.998,classification_task,2021.2.3,Win32,59.73715651,5fe7b6d7baa7c46725b4e530,626b377229c10585ec392f89,626b37fd35585663c1f2ff7f,,,,,,,,,,,,,,,,,,,,,,,,,,,,,,,,,,,,,,,,,,,,,0,1,1,1,1,,2,,,,,,,,,,,,,,,,,
,,001,2022-04-29_01h58.27.998,classification_task,2021.2.3,Win32,59.73715651,5fe7b6d7baa7c46725b4e530,626b377229c10585ec392f89,626b37fd35585663c1f2ff7f,,,,,,,,,,,,,,,,,,,,,space,8.6934,a,1,2.0795,"[""0.674"",""0.443"",""0.884"",""0.960""]","[0,1,1,1]",0,0,0,0,1,0,0,,,0,FALSE,,,,,,,,,,,,,,,,,,,,,,,,,,,,,,
,,001,2022-04-29_01h58.27.998,classification_task,2021.2.3,Win32,59.73715651,5fe7b6d7baa7c46725b4e530,626b377229c10585ec392f89,626b37fd35585663c1f2ff7f,,,,,,,,,,,,,,,,,,,,,,,l,0,4.3257,"[""0.326"",""0.519"",""0.143"",""0.850""]","[1,1,0,1]",0,1,1,1,1,0,1,,,0,FALSE,,,,,,,,,,,,,,,,,,,,,,,,,,,,,,
,,001,2022-04-29_01h58.27.998,classification_task,2021.2.3,Win32,59.73715651,5fe7b6d7baa7c46725b4e530,626b377229c10585ec392f89,626b37fd35585663c1f2ff7f,,,,,,,,,,,,,,,,,,,,,,,a,1,1.0928,"[""0.185"",""0.443"",""0.141"",""0.960""]","[1,1,0,1]",0,2,2,2,1,0,0,,,0,FALSE,,,,,,,,,,,,,,,,,,,,,,,,,,,,,,
,,001,2022-04-29_01h58.27.998,classification_task,2021.2.3,Win32,59.73715651,5fe7b6d7baa7c46725b4e530,626b377229c10585ec392f89,626b37fd35585663c1f2ff7f,,,,,,,,,,,,,,,,,,,,,,,l,1,3.2171,"[""0.028"",""0.228"",""0.918"",""0.719""]","[1,1,0,1]",0,3,3,3,1,1,1,,,0,FALSE,,,,,,,,,,,,,,,,,,,,,,,,,,,,,,
,,001,2022-04-29_01h58.27.998,classification_task,2021.2.3,Win32,59.73715651,5fe7b6d7baa7c46725b4e530,626b377229c10585ec392f89,626b37fd35585663c1f2ff7f,,,,,,,,,,,,,,,,,,,,,,,l,0,2.7272,"[""0.185"",""0.443"",""0.884"",""0.143""]","[1,1,1,0]",0,4,4,4,1,0,0,,,0,FALSE,,,,,,,,,,,,,,,,,,,,,,,,,,,,,,
,,001,2022-04-29_01h58.27.998,classification_task,2021.2.3,Win32,59.73715651,5fe7b6d7baa7c46725b4e530,626b377229c10585ec392f89,626b37fd35585663c1f2ff7f,,,,,,,,,,,,,,,,,,,,,,,l,1,1.6607,"[""0.071"",""0.661"",""0.562"",""0.762""]","[1,0,1,1]",0,5,5,5,1,1,0,,,0,FALSE,,,,,,,,,,,,,,,,,,,,,,,,,,,,,,
,,001,2022-04-29_01h58.27.998,classification_task,2021.2.3,Win32,59.73715651,5fe7b6d7baa7c46725b4e530,626b377229c10585ec392f89,626b37fd35585663c1f2ff7f,,,,,,,,,,,,,,,,,,,,,,,a,1,3.0085,"[""0.326"",""0.519"",""0.807"",""0.661""]","[1,1,1,0]",0,6,6,6,1,0,1,,,0,FALSE,,,,,,,,,,,,,,,,,,,,,,,,,,,,,,
,,001,2022-04-29_01h58.27.998,classification_task,2021.2.3,Win32,59.73715651,5fe7b6d7baa7c46725b4e530,626b377229c10585ec392f89,626b37fd35585663c1f2ff7f,,,,,,,,,,,,,,,,,,,,,,,l,1,3.0955,"[""0.123"",""0.228"",""0.613"",""0.719""]","[0,1,1,1]",0,7,7,7,1,1,1,,,0,FALSE,,,,,,,,,,,,,,,,,,,,,,,,,,,,,,
,,001,2022-04-29_01h58.27.998,classification_task,2021.2.3,Win32,59.73715651,5fe7b6d7baa7c46725b4e530,626b377229c10585ec392f89,626b37fd35585663c1f2ff7f,,,,,,,,,,,,,,,,,,,,,,,l,1,1.0108,"[""0.028"",""0.228"",""0.613"",""0.123""]","[1,1,1,0]",0,8,8,8,1,1,1,,,0,FALSE,,,,,,,,,,,,,,,,,,,,,,,,,,,,,,
,,001,2022-04-29_01h58.27.998,classification_task,2021.2.3,Win32,59.73715651,5fe7b6d7baa7c46725b4e530,626b377229c10585ec392f89,626b37fd35585663c1f2ff7f,,,,,,,,,,,,,,,,,,,,,,,l,1,2.5037,"[""0.071"",""0.290"",""0.377"",""0.762""]","[1,1,0,1]",0,9,9,9,1,1,0,,,0,FALSE,,,,,,,,,,,,,,,,,,,,,,,,,,,,,,
,,001,2022-04-29_01h58.27.998,classification_task,2021.2.3,Win32,59.73715651,5fe7b6d7baa7c46725b4e530,626b377229c10585ec392f89,626b37fd35585663c1f2ff7f,,,,,,,,,,,,,,,,,,,,,,,a,1,1.1679,"[""0.185"",""0.918"",""0.884"",""0.960""]","[1,0,1,1]",0,10,10,10,1,0,0,,,0,FALSE,,,,,,,,,,,,,,,,,,,,,,,,,,,,,,
,,001,2022-04-29_01h58.27.998,classification_task,2021.2.3,Win32,59.73715651,5fe7b6d7baa7c46725b4e530,626b377229c10585ec392f89,626b37fd35585663c1f2ff7f,,,,,,,,,,,,,,,,,,,,,,,a,1,1.1388,"[""0.326"",""0.146"",""0.807"",""0.850""]","[1,0,1,1]",0,11,11,11,1,0,1,,,0,FALSE,,,,,,,,,,,,,,,,,,,,,,,,,,,,,,
,,001,2022-04-29_01h58.27.998,classification_task,2021.2.3,Win32,59.73715651,5fe7b6d7baa7c46725b4e530,626b377229c10585ec392f89,626b37fd35585663c1f2ff7f,,,,,,,,,,,,,,,,,,,,,,,l,1,2.8042,"[""0.134"",""0.290"",""0.562"",""0.762""]","[0,1,1,1]",0,12,12,12,1,1,0,,,0,FALSE,,,,,,,,,,,,,,,,,,,,,,,,,,,,,,
,,001,2022-04-29_01h58.27.998,classification_task,2021.2.3,Win32,59.73715651,5fe7b6d7baa7c46725b4e530,626b377229c10585ec392f89,626b37fd35585663c1f2ff7f,,,,,,,,,,,,,,,,,,,,,,,l,1,1.7976,"[""0.071"",""0.290"",""0.562"",""0.126""]","[1,1,1,0]",0,13,13,13,1,1,0,,,0,FALSE,,,,,,,,,,,,,,,,,,,,,,,,,,,,,,
,,001,2022-04-29_01h58.27.998,classification_task,2021.2.3,Win32,59.73715651,5fe7b6d7baa7c46725b4e530,626b377229c10585ec392f89,626b37fd35585663c1f2ff7f,,,,,,,,,,,,,,,,,,,,,,,l,1,2.1381,"[""0.028"",""0.478"",""0.613"",""0.719""]","[1,0,1,1]",0,14,14,14,1,1,1,,,0,FALSE,,,,,,,,,,,,,,,,,,,,,,,,,,,,,,
,,001,2022-04-29_01h58.27.998,classification_task,2021.2.3,Win32,59.73715651,5fe7b6d7baa7c46725b4e530,626b377229c10585ec392f89,626b37fd35585663c1f2ff7f,,,,,,,,,,,,,,,,,,,,,,,a,1,1.144,"[""0.391"",""0.519"",""0.807"",""0.850""]","[0,1,1,1]",0,15,15,15,1,0,1,,,0,FALSE,,,,,,,,,,,,,,,,,,,,,,,,,,,,,,
,,001,2022-04-29_01h58.27.998,classification_task,2021.2.3,Win32,59.73715651,5fe7b6d7baa7c46725b4e530,626b377229c10585ec392f89,626b37fd35585663c1f2ff7f,,,,,,,,,,,,,,,,,,,,,,,a,1,0.9668,"[""0.326"",""0.143"",""0.807"",""0.850""]","[1,0,1,1]",0,16,16,16,1,0,1,,,0,FALSE,,,,,,,,,,,,,,,,,,,,,,,,,,,,,,
,,001,2022-04-29_01h58.27.998,classification_task,2021.2.3,Win32,59.73715651,5fe7b6d7baa7c46725b4e530,626b377229c10585ec392f89,626b37fd35585663c1f2ff7f,,,,,,,,,,,,,,,,,,,,,,,l,1,1.733,"[""0.071"",""0.141"",""0.562"",""0.762""]","[1,0,1,1]",0,17,17,17,1,1,0,,,0,FALSE,,,,,,,,,,,,,,,,,,,,,,,,,,,,,,
,,001,2022-04-29_01h58.27.998,classification_task,2021.2.3,Win32,59.73715651,5fe7b6d7baa7c46725b4e530,626b377229c10585ec392f89,626b37fd35585663c1f2ff7f,,,,,,,,,,,,,,,,,,,,,,,a,1,1.1172,"[""0.370"",""0.519"",""0.807"",""0.850""]","[0,1,1,1]",0,18,18,18,1,0,1,,,0,FALSE,,,,,,,,,,,,,,,,,,,,,,,,,,,,,,
,,001,2022-04-29_01h58.27.998,classification_task,2021.2.3,Win32,59.73715651,5fe7b6d7baa7c46725b4e530,626b377229c10585ec392f89,626b37fd35585663c1f2ff7f,,,,,,,,,,,,,,,,,,,,,,,a,1,0.7686,"[""0.185"",""0.141"",""0.884"",""0.960""]","[1,0,1,1]",0,19,19,19,1,0,0,,,0,FALSE,,,,,,,,,,,,,,,,,,,,,,,,,,,,,,
,,001,2022-04-29_01h58.27.998,classification_task,2021.2.3,Win32,59.73715651,5fe7b6d7baa7c46725b4e530,626b377229c10585ec392f89,626b37fd35585663c1f2ff7f,,,,,,,,,,,,,,,,,,,,,,,a,1,0.883,"[""0.123"",""0.443"",""0.884"",""0.960""]","[0,1,1,1]",0,20,20,20,1,0,0,,,0,FALSE,,,,,,,,,,,,,,,,,,,,,,,,,,,,,,
,,001,2022-04-29_01h58.27.998,classification_task,2021.2.3,Win32,59.73715651,5fe7b6d7baa7c46725b4e530,626b377229c10585ec392f89,626b37fd35585663c1f2ff7f,,,,,,,,,,,,,,,,,,,,,,,a,1,2.3385,"[""0.326"",""0.519"",""0.807"",""0.661""]","[1,1,1,0]",0,21,21,21,1,0,1,,,0,FALSE,,,,,,,,,,,,,,,,,,,,,,,,,,,,,,
,,001,2022-04-29_01h58.27.998,classification_task,2021.2.3,Win32,59.73715651,5fe7b6d7baa7c46725b4e530,626b377229c10585ec392f89,626b37fd35585663c1f2ff7f,,,,,,,,,,,,,,,,,,,,,,,a,1,2.9937,"[""0.326"",""0.519"",""0.141"",""0.850""]","[1,1,0,1]",0,22,22,22,1,0,1,,,0,FALSE,,,,,,,,,,,,,,,,,,,,,,,,,,,,,,
,,001,2022-04-29_01h58.27.998,classification_task,2021.2.3,Win32,59.73715651,5fe7b6d7baa7c46725b4e530,626b377229c10585ec392f89,626b37fd35585663c1f2ff7f,,,,,,,,,,,,,,,,,,,,,,,l,1,1.1089,"[""0.028"",""0.228"",""0.613"",""0.146""]","[1,1,1,0]",0,23,23,23,1,1,1,,,0,FALSE,,,,,,,,,,,,,,,,,,,,,,,,,,,,,,
,,001,2022-04-29_01h58.27.998,classification_task,2021.2.3,Win32,59.73715651,5fe7b6d7baa7c46725b4e530,626b377229c10585ec392f89,626b37fd35585663c1f2ff7f,,,,,,,,,,,,,,,,,,,,,,,l,1,1.3997,"[""0.071"",""0.290"",""0.562"",""0.126""]","[1,1,1,0]",0,24,24,24,1,1,0,,,0,FALSE,,,,,,,,,,,,,,,,,,,,,,,,,,,,,,
,,001,2022-04-29_01h58.27.998,classification_task,2021.2.3,Win32,59.73715651,5fe7b6d7baa7c46725b4e530,626b377229c10585ec392f89,626b37fd35585663c1f2ff7f,,,,,,,,,,,,,,,,,,,,,,,l,1,1.417,"[""0.071"",""0.290"",""0.123"",""0.762""]","[1,1,0,1]",0,25,25,25,1,1,0,,,0,FALSE,,,,,,,,,,,,,,,,,,,,,,,,,,,,,,
,,001,2022-04-29_01h58.27.998,classification_task,2021.2.3,Win32,59.73715651,5fe7b6d7baa7c46725b4e530,626b377229c10585ec392f89,626b37fd35585663c1f2ff7f,,,,,,,,,,,,,,,,,,,,,,,l,1,1.3657,"[""0.028"",""0.377"",""0.613"",""0.719""]","[1,0,1,1]",0,26,26,26,1,1,1,,,0,FALSE,,,,,,,,,,,,,,,,,,,,,,,,,,,,,,
,,001,2022-04-29_01h58.27.998,classification_task,2021.2.3,Win32,59.73715651,5fe7b6d7baa7c46725b4e530,626b377229c10585ec392f89,626b37fd35585663c1f2ff7f,,,,,,,,,,,,,,,,,,,,,,,l,1,1.3003,"[""0.028"",""0.228"",""0.134"",""0.719""]","[1,1,0,1]",0,27,27,27,1,1,1,,,0,FALSE,,,,,,,,,,,,,,,,,,,,,,,,,,,,,,
,,001,2022-04-29_01h58.27.998,classification_task,2021.2.3,Win32,59.73715651,5fe7b6d7baa7c46725b4e530,626b377229c10585ec392f89,626b37fd35585663c1f2ff7f,,,,,,,,,,,,,,,,,,,,,,,l,1,3.699,"[""0.370"",""0.290"",""0.562"",""0.762""]","[0,1,1,1]",0,28,28,28,1,1,0,,,0,FALSE,,,,,,,,,,,,,,,,,,,,,,,,,,,,,,
,,001,2022-04-29_01h58.27.998,classification_task,2021.2.3,Win32,59.73715651,5fe7b6d7baa7c46725b4e530,626b377229c10585ec392f89,626b37fd35585663c1f2ff7f,,,,,,,,,,,,,,,,,,,,,,,a,1,1.0759,"[""0.185"",""0.443"",""0.674"",""0.960""]","[1,1,0,1]",0,29,29,29,1,0,0,,,0,FALSE,,,,,,,,,,,,,,,,,,,,,,,,,,,,,,
,,001,2022-04-29_01h58.27.998,classification_task,2021.2.3,Win32,59.73715651,5fe7b6d7baa7c46725b4e530,626b377229c10585ec392f89,626b37fd35585663c1f2ff7f,,,,,,,,,,,,,,,,,,,,,,,l,1,3.4817,"[""0.671"",""0.228"",""0.613"",""0.719""]","[0,1,1,1]",0,30,30,30,1,1,1,,,0,FALSE,,,,,,,,,,,,,,,,,,,,,,,,,,,,,,
,,001,2022-04-29_01h58.27.998,classification_task,2021.2.3,Win32,59.73715651,5fe7b6d7baa7c46725b4e530,626b377229c10585ec392f89,626b37fd35585663c1f2ff7f,,,,,,,,,,,,,,,,,,,,,,,l,0,2.2454,"[""0.185"",""0.443"",""0.884"",""0.141""]","[1,1,1,0]",0,31,31,31,1,0,0,,,0,FALSE,,,,,,,,,,,,,,,,,,,,,,,,,,,,,,
,,001,2022-04-29_01h58.27.998,classification_task,2021.2.3,Win32,59.73715651,5fe7b6d7baa7c46725b4e530,626b377229c10585ec392f89,626b37fd35585663c1f2ff7f,,,,,,,,,,,,,,,,,,,,,,,a,1,0.8658,"[""0.370"",""0.443"",""0.884"",""0.960""]","[0,1,1,1]",0,32,32,32,1,0,0,,,0,FALSE,,,,,,,,,,,,,,,,,,,,,,,,,,,,,,
,,001,2022-04-29_01h58.27.998,classification_task,2021.2.3,Win32,59.73715651,5fe7b6d7baa7c46725b4e530,626b377229c10585ec392f89,626b37fd35585663c1f2ff7f,,,,,,,,,,,,,,,,,,,,,,,a,1,1.5998,"[""0.185"",""0.443"",""0.478"",""0.960""]","[1,1,0,1]",0,33,33,33,1,0,0,,,0,FALSE,,,,,,,,,,,,,,,,,,,,,,,,,,,,,,
,,001,2022-04-29_01h58.27.998,classification_task,2021.2.3,Win32,59.73715651,5fe7b6d7baa7c46725b4e530,626b377229c10585ec392f89,626b37fd35585663c1f2ff7f,,,,,,,,,,,,,,,,,,,,,,,a,1,1.4718,"[""0.326"",""0.126"",""0.807"",""0.850""]","[1,0,1,1]",0,34,34,34,1,0,1,,,0,FALSE,,,,,,,,,,,,,,,,,,,,,,,,,,,,,,
,,001,2022-04-29_01h58.27.998,classification_task,2021.2.3,Win32,59.73715651,5fe7b6d7baa7c46725b4e530,626b377229c10585ec392f89,626b37fd35585663c1f2ff7f,,,,,,,,,,,,,,,,,,,,,,,l,1,1.6998,"[""0.071"",""0.290"",""0.123"",""0.762""]","[1,1,0,1]",0,35,35,35,1,1,0,,,0,FALSE,,,,,,,,,,,,,,,,,,,,,,,,,,,,,,
,,001,2022-04-29_01h58.27.998,classification_task,2021.2.3,Win32,59.73715651,5fe7b6d7baa7c46725b4e530,626b377229c10585ec392f89,626b37fd35585663c1f2ff7f,,,,,,,,,,,,,,,,,,,,,,,l,1,1.21,"[""0.028"",""0.228"",""0.613"",""0.126""]","[1,1,1,0]",0,36,36,36,1,1,1,,,0,FALSE,,,,,,,,,,,,,,,,,,,,,,,,,,,,,,
,,001,2022-04-29_01h58.27.998,classification_task,2021.2.3,Win32,59.73715651,5fe7b6d7baa7c46725b4e530,626b377229c10585ec392f89,626b37fd35585663c1f2ff7f,,,,,,,,,,,,,,,,,,,,,,,l,1,2.8827,"[""0.028"",""0.370"",""0.613"",""0.719""]","[1,0,1,1]",0,37,37,37,1,1,1,,,0,FALSE,,,,,,,,,,,,,,,,,,,,,,,,,,,,,,
,,001,2022-04-29_01h58.27.998,classification_task,2021.2.3,Win32,59.73715651,5fe7b6d7baa7c46725b4e530,626b377229c10585ec392f89,626b37fd35585663c1f2ff7f,,,,,,,,,,,,,,,,,,,,,,,a,1,0.8775,"[""0.134"",""0.519"",""0.807"",""0.850""]","[0,1,1,1]",0,38,38,38,1,0,1,,,0,FALSE,,,,,,,,,,,,,,,,,,,,,,,,,,,,,,
,,001,2022-04-29_01h58.27.998,classification_task,2021.2.3,Win32,59.73715651,5fe7b6d7baa7c46725b4e530,626b377229c10585ec392f89,626b37fd35585663c1f2ff7f,,,,,,,,,,,,,,,,,,,,,,,l,1,1.083,"[""0.028"",""0.228"",""0.360"",""0.719""]","[1,1,0,1]",0,39,39,39,1,1,1,,,0,FALSE,,,,,,,,,,,,,,,,,,,,,,,,,,,,,,
,,001,2022-04-29_01h58.27.998,classification_task,2021.2.3,Win32,59.73715651,5fe7b6d7baa7c46725b4e530,626b377229c10585ec392f89,626b37fd35585663c1f2ff7f,,,,,,,,,,,,,,,,,,,,,,,l,1,2.2658,"[""0.071"",""0.290"",""0.562"",""0.370""]","[1,1,1,0]",0,40,40,40,1,1,0,,,0,FALSE,,,,,,,,,,,,,,,,,,,,,,,,,,,,,,
,,001,2022-04-29_01h58.27.998,classification_task,2021.2.3,Win32,59.73715651,5fe7b6d7baa7c46725b4e530,626b377229c10585ec392f89,626b37fd35585663c1f2ff7f,,,,,,,,,,,,,,,,,,,,,,,a,1,1.1882,"[""0.185"",""0.443"",""0.884"",""0.661""]","[1,1,1,0]",0,41,41,41,1,0,0,,,0,FALSE,,,,,,,,,,,,,,,,,,,,,,,,,,,,,,
,,001,2022-04-29_01h58.27.998,classification_task,2021.2.3,Win32,59.73715651,5fe7b6d7baa7c46725b4e530,626b377229c10585ec392f89,626b37fd35585663c1f2ff7f,,,,,,,,,,,,,,,,,,,,,,,a,1,1.5148,"[""0.326"",""0.519"",""0.807"",""0.370""]","[1,1,1,0]",0,42,42,42,1,0,1,,,0,FALSE,,,,,,,,,,,,,,,,,,,,,,,,,,,,,,
,,001,2022-04-29_01h58.27.998,classification_task,2021.2.3,Win32,59.73715651,5fe7b6d7baa7c46725b4e530,626b377229c10585ec392f89,626b37fd35585663c1f2ff7f,,,,,,,,,,,,,,,,,,,,,,,a,1,0.8631,"[""0.185"",""0.377"",""0.884"",""0.960""]","[1,0,1,1]",0,43,43,43,1,0,0,,,0,FALSE,,,,,,,,,,,,,,,,,,,,,,,,,,,,,,
,,001,2022-04-29_01h58.27.998,classification_task,2021.2.3,Win32,59.73715651,5fe7b6d7baa7c46725b4e530,626b377229c10585ec392f89,626b37fd35585663c1f2ff7f,,,,,,,,,,,,,,,,,,,,,,,l,1,1.3529,"[""0.123"",""0.290"",""0.562"",""0.762""]","[0,1,1,1]",0,44,44,44,1,1,0,,,0,FALSE,,,,,,,,,,,,,,,,,,,,,,,,,,,,,,
,,001,2022-04-29_01h58.27.998,classification_task,2021.2.3,Win32,59.73715651,5fe7b6d7baa7c46725b4e530,626b377229c10585ec392f89,626b37fd35585663c1f2ff7f,,,,,,,,,,,,,,,,,,,,,,,l,1,1.1658,"[""0.071"",""0.377"",""0.562"",""0.762""]","[1,0,1,1]",0,45,45,45,1,1,0,,,0,FALSE,,,,,,,,,,,,,,,,,,,,,,,,,,,,,,
,,001,2022-04-29_01h58.27.998,classification_task,2021.2.3,Win32,59.73715651,5fe7b6d7baa7c46725b4e530,626b377229c10585ec392f89,626b37fd35585663c1f2ff7f,,,,,,,,,,,,,,,,,,,,,,,a,0,3.7153,"[""0.918"",""0.228"",""0.613"",""0.719""]","[0,1,1,1]",0,46,46,46,1,1,1,,,0,FALSE,,,,,,,,,,,,,,,,,,,,,,,,,,,,,,
,,001,2022-04-29_01h58.27.998,classification_task,2021.2.3,Win32,59.73715651,5fe7b6d7baa7c46725b4e530,626b377229c10585ec392f89,626b37fd35585663c1f2ff7f,,,,,,,,,,,,,,,,,,,,,,,a,1,3.7304,"[""0.326"",""0.519"",""0.918"",""0.850""]","[1,1,0,1]",0,47,47,47,1,0,1,,,0,FALSE,,,,,,,,,,,,,,,,,,,,,,,,,,,,,,
,,001,2022-04-29_01h58.27.998,classification_task,2021.2.3,Win32,59.73715651,5fe7b6d7baa7c46725b4e530,626b377229c10585ec392f89,626b37fd35585663c1f2ff7f,,,,,,,,,,,,,,,,,,,,,,,a,1,0.9438,"[""0.326"",""0.360"",""0.807"",""0.850""]","[1,0,1,1]",0,48,48,48,1,0,1,,,0,FALSE,,,,,,,,,,,,,,,,,,,,,,,,,,,,,,
,,001,2022-04-29_01h58.27.998,classification_task,2021.2.3,Win32,59.73715651,5fe7b6d7baa7c46725b4e530,626b377229c10585ec392f89,626b37fd35585663c1f2ff7f,,,,,,,,,,,,,,,,,,,,,,,a,1,1.8825,"[""0.918"",""0.519"",""0.807"",""0.850""]","[0,1,1,1]",0,49,49,49,1,0,1,,,0,FALSE,,,,,,,,,,,,,,,,,,,,,,,,,,,,,,
,,001,2022-04-29_01h58.27.998,classification_task,2021.2.3,Win32,59.73715651,5fe7b6d7baa7c46725b4e530,626b377229c10585ec392f89,626b37fd35585663c1f2ff7f,,,,,,,,,,,,,,,,,,,,,,,a,1,1.6666,"[""0.326"",""0.519"",""0.807"",""0.360""]","[1,1,1,0]",0,50,50,50,1,0,1,,,0,FALSE,,,,,,,,,,,,,,,,,,,,,,,,,,,,,,
,,001,2022-04-29_01h58.27.998,classification_task,2021.2.3,Win32,59.73715651,5fe7b6d7baa7c46725b4e530,626b377229c10585ec392f89,626b37fd35585663c1f2ff7f,,,,,,,,,,,,,,,,,,,,,,,l,1,1.1171,"[""0.028"",""0.228"",""0.370"",""0.719""]","[1,1,0,1]",0,51,51,51,1,1,1,,,0,FALSE,,,,,,,,,,,,,,,,,,,,,,,,,,,,,,
,,001,2022-04-29_01h58.27.998,classification_task,2021.2.3,Win32,59.73715651,5fe7b6d7baa7c46725b4e530,626b377229c10585ec392f89,626b37fd35585663c1f2ff7f,,,,,,,,,,,,,,,,,,,,,,,l,1,3.0149,"[""0.391"",""0.228"",""0.613"",""0.719""]","[0,1,1,1]",0,52,52,52,1,1,1,,,0,FALSE,,,,,,,,,,,,,,,,,,,,,,,,,,,,,,
,,001,2022-04-29_01h58.27.998,classification_task,2021.2.3,Win32,59.73715651,5fe7b6d7baa7c46725b4e530,626b377229c10585ec392f89,626b37fd35585663c1f2ff7f,,,,,,,,,,,,,,,,,,,,,,,l,1,1.7929,"[""0.071"",""0.290"",""0.562"",""0.377""]","[1,1,1,0]",0,53,53,53,1,1,0,,,0,FALSE,,,,,,,,,,,,,,,,,,,,,,,,,,,,,,
,,001,2022-04-29_01h58.27.998,classification_task,2021.2.3,Win32,59.73715651,5fe7b6d7baa7c46725b4e530,626b377229c10585ec392f89,626b37fd35585663c1f2ff7f,,,,,,,,,,,,,,,,,,,,,,,l,1,1.382,"[""0.028"",""0.228"",""0.613"",""0.134""]","[1,1,1,0]",0,54,54,54,1,1,1,,,0,FALSE,,,,,,,,,,,,,,,,,,,,,,,,,,,,,,
,,001,2022-04-29_01h58.27.998,classification_task,2021.2.3,Win32,59.73715651,5fe7b6d7baa7c46725b4e530,626b377229c10585ec392f89,626b37fd35585663c1f2ff7f,,,,,,,,,,,,,,,,,,,,,,,a,1,1.499,"[""0.135"",""0.443"",""0.884"",""0.960""]","[0,1,1,1]",0,55,55,55,1,0,0,,,0,FALSE,,,,,,,,,,,,,,,,,,,,,,,,,,,,,,
,,001,2022-04-29_01h58.27.998,classification_task,2021.2.3,Win32,59.73715651,5fe7b6d7baa7c46725b4e530,626b377229c10585ec392f89,626b37fd35585663c1f2ff7f,,,,,,,,,,,,,,,,,,,,,,,a,1,1.7157,"[""0.185"",""0.146"",""0.884"",""0.960""]","[1,0,1,1]",0,56,56,56,1,0,0,,,0,FALSE,,,,,,,,,,,,,,,,,,,,,,,,,,,,,,
,,001,2022-04-29_01h58.27.998,classification_task,2021.2.3,Win32,59.73715651,5fe7b6d7baa7c46725b4e530,626b377229c10585ec392f89,626b37fd35585663c1f2ff7f,,,,,,,,,,,,,,,,,,,,,,,l,1,2.4933,"[""0.071"",""0.290"",""0.360"",""0.762""]","[1,1,0,1]",0,57,57,57,1,1,0,,,0,FALSE,,,,,,,,,,,,,,,,,,,,,,,,,,,,,,
,,001,2022-04-29_01h58.27.998,classification_task,2021.2.3,Win32,59.73715651,5fe7b6d7baa7c46725b4e530,626b377229c10585ec392f89,626b37fd35585663c1f2ff7f,,,,,,,,,,,,,,,,,,,,,,,l,0,3.6485,"[""0.185"",""0.443"",""0.884"",""0.671""]","[1,1,1,0]",0,58,58,58,1,0,0,,,0,FALSE,,,,,,,,,,,,,,,,,,,,,,,,,,,,,,
,,001,2022-04-29_01h58.27.998,classification_task,2021.2.3,Win32,59.73715651,5fe7b6d7baa7c46725b4e530,626b377229c10585ec392f89,626b37fd35585663c1f2ff7f,,,,,,,,,,,,,,,,,,,,,,,l,0,1.3431,"[""0.326"",""0.519"",""0.478"",""0.850""]","[1,1,0,1]",0,59,59,59,1,0,1,,,0,FALSE,,,,,,,,,,,,,,,,,,,,,,,,,,,,,,
,,001,2022-04-29_01h58.27.998,classification_task,2021.2.3,Win32,59.73715651,5fe7b6d7baa7c46725b4e530,626b377229c10585ec392f89,626b37fd35585663c1f2ff7f,,,,,,,,,,,,,,,,,,,,,,,l,1,1.0676,"[""0.143"",""0.290"",""0.562"",""0.762""]","[0,1,1,1]",0,60,60,60,1,1,0,,,0,FALSE,,,,,,,,,,,,,,,,,,,,,,,,,,,,,,
,,001,2022-04-29_01h58.27.998,classification_task,2021.2.3,Win32,59.73715651,5fe7b6d7baa7c46725b4e530,626b377229c10585ec392f89,626b37fd35585663c1f2ff7f,,,,,,,,,,,,,,,,,,,,,,,l,1,1.6004,"[""0.028"",""0.135"",""0.613"",""0.719""]","[1,0,1,1]",0,61,61,61,1,1,1,,,0,FALSE,,,,,,,,,,,,,,,,,,,,,,,,,,,,,,
,,001,2022-04-29_01h58.27.998,classification_task,2021.2.3,Win32,59.73715651,5fe7b6d7baa7c46725b4e530,626b377229c10585ec392f89,626b37fd35585663c1f2ff7f,,,,,,,,,,,,,,,,,,,,,,,a,1,0.9335,"[""0.185"",""0.443"",""0.377"",""0.960""]","[1,1,0,1]",0,62,62,62,1,0,0,,,0,FALSE,,,,,,,,,,,,,,,,,,,,,,,,,,,,,,
,,001,2022-04-29_01h58.27.998,classification_task,2021.2.3,Win32,59.73715651,5fe7b6d7baa7c46725b4e530,626b377229c10585ec392f89,626b37fd35585663c1f2ff7f,,,,,,,,,,,,,,,,,,,,,,,l,1,3.671,"[""0.071"",""0.126"",""0.562"",""0.762""]","[1,0,1,1]",0,63,63,63,1,1,0,,,0,FALSE,,,,,,,,,,,,,,,,,,,,,,,,,,,,,,
,,001,2022-04-29_01h58.27.998,classification_task,2021.2.3,Win32,59.73715651,5fe7b6d7baa7c46725b4e530,626b377229c10585ec392f89,626b37fd35585663c1f2ff7f,,,,,,,,,,,,,,,,,,,,,,,,,,,,,,,,,,,,,,,0, ,,0,5.251078171,206.1382,0,2,2,2,1,2,3,,,,,,,,,,,,,,,,,
,,001,2022-04-29_01h58.27.998,classification_task,2021.2.3,Win32,59.73715651,5fe7b6d7baa7c46725b4e530,626b377229c10585ec392f89,626b37fd35585663c1f2ff7f,,,,,,,,,,,,,,,,,,,,,,,,,,,,,,,,,,,,,,,1,  ,,0,4.736675253,207.8105,0,2,2,2,1,2,3,,,,,,,,,,,,,,,,,
,,001,2022-04-29_01h58.27.998,classification_task,2021.2.3,Win32,59.73715651,5fe7b6d7baa7c46725b4e530,626b377229c10585ec392f89,626b37fd35585663c1f2ff7f,,,,,,,,,,,,,,,,,,,,,,,,,,,,,,,,,,,,,,,2,  ,,0,4.859152227,211.8827,0,2,2,2,1,2,3,,,,,,,,,,,,,,,,,
,,001,2022-04-29_01h58.27.998,classification_task,2021.2.3,Win32,59.73715651,5fe7b6d7baa7c46725b4e530,626b377229c10585ec392f89,626b37fd35585663c1f2ff7f,,,,,,,,,,,,,,,,,,,,,,,,,,,,,,,,,,,,,,,,,,,,,0,2,2,2,1,,3,,,,,,,,,,,,,,,,,
,,001,2022-04-29_01h58.27.998,classification_task,2021.2.3,Win32,59.73715651,5fe7b6d7baa7c46725b4e530,626b377229c10585ec392f89,626b37fd35585663c1f2ff7f,,,,,,,,,,,,,,,,,,,,,,,,,,,,,,,,,,,,,,,,,,,,,,,,,,,,,I believe the aid is a competent performer,,0.7,0,4,1086.3498,0,0,0,0,1,0,,,,
,,001,2022-04-29_01h58.27.998,classification_task,2021.2.3,Win32,59.73715651,5fe7b6d7baa7c46725b4e530,626b377229c10585ec392f89,626b37fd35585663c1f2ff7f,,,,,,,,,,,,,,,,,,,,,,,,,,,,,,,,,,,,,,,,,,,,,,,,,,,,,I trust the aid,,0.7,0,4,1089.6713,0,0,0,0,1,0,,,,
,,001,2022-04-29_01h58.27.998,classification_task,2021.2.3,Win32,59.73715651,5fe7b6d7baa7c46725b4e530,626b377229c10585ec392f89,626b37fd35585663c1f2ff7f,,,,,,,,,,,,,,,,,,,,,,,,,,,,,,,,,,,,,,,,,,,,,,,,,,,,,I have confidence in the advice given by the aid,,0.7,0,4,1091.4446,0,0,0,0,1,0,,,,
,,001,2022-04-29_01h58.27.998,classification_task,2021.2.3,Win32,59.73715651,5fe7b6d7baa7c46725b4e530,626b377229c10585ec392f89,626b37fd35585663c1f2ff7f,,,,,,,,,,,,,,,,,,,,,,,,,,,,,,,,,,,,,,,,,,,,,,,,,,,,,I can depend on the aid,,0.7,0,2,1096.1297,0,0,0,0,1,0,,,,
,,001,2022-04-29_01h58.27.998,classification_task,2021.2.3,Win32,59.73715651,5fe7b6d7baa7c46725b4e530,626b377229c10585ec392f89,626b37fd35585663c1f2ff7f,,,,,,,,,,,,,,,,,,,,,,,,,,,,,,,,,,,,,,,,,,,,,,,,,,,,,I can rely on the aid to behave in consistent ways,,0.7,0,4,1127.6638,0,0,0,0,1,0,,,,
,,001,2022-04-29_01h58.27.998,classification_task,2021.2.3,Win32,59.73715651,5fe7b6d7baa7c46725b4e530,626b377229c10585ec392f89,626b37fd35585663c1f2ff7f,,,,,,,,,,,,,,,,,,,,,,,,,,,,,,,,,,,,,,,,,,,,,,,,,,,,,I can rely on the aid to do its best every time I take its advice,,0.7,0,3,1135.7223,0,0,0,0,1,0,,,,
,,001,2022-04-29_01h58.27.998,classification_task,2021.2.3,Win32,59.73715651,5fe7b6d7baa7c46725b4e530,626b377229c10585ec392f89,626b37fd35585663c1f2ff7f,,,,,,,,,,,,,,,,,,,,,,,,,,,,,,,,,,,,,,,,,,,,,,,,,,,,,"On trials you completed with assistance from the aid, how frequently did you think the aid was correct?",,0.7,0,75%,,0,0,0,0,1,0,,,,
,,001,2022-04-29_01h58.27.998,classification_task,2021.2.3,Win32,59.73715651,5fe7b6d7baa7c46725b4e530,626b377229c10585ec392f89,626b37fd35585663c1f2ff7f,,,,,,,,,,,,,,,,,,,,,,,,,,,,,,,,,,,,,,,,,,,,,,,,,,,,,"On trials you completed without the aid, how frequently did you think you were correct?",,0.7,0,25%,,0,0,0,0,1,0,,,,
,,001,2022-04-29_01h58.27.998,classification_task,2021.2.3,Win32,59.73715651,5fe7b6d7baa7c46725b4e530,626b377229c10585ec392f89,626b37fd35585663c1f2ff7f,,,,,,,,,,,,,,,,,,,,,,,,,,,,,,,,,,,,,,,,,,,,,,,,,,,,,,,,,,,0,0,0,0,1,,,,,
,,001,2022-04-29_01h58.27.998,classification_task,2021.2.3,Win32,59.73715651,5fe7b6d7baa7c46725b4e530,626b377229c10585ec392f89,626b37fd35585663c1f2ff7f,,,,,,,,,,,,,,,,,,,,,,,,,,,,,,,,,,,,,,,,,,,,,,,,,,,,,,,,,,,,,,,,,space,8.1075,1174.6364,
,,001,2022-04-29_01h58.27.998,classification_task,2021.2.3,Win32,59.73715651,5fe7b6d7baa7c46725b4e530,626b377229c10585ec392f89,626b37fd35585663c1f2ff7f,,,,,,,,,,,,,,,,,,,,,,,,,,,,,,,,,,,,,,,,,,,,,,,,,,,,,,,,,,,,,,,,,,,,"Mozilla/5.0 (Windows NT 10.0; Win64; x64) AppleWebKit/537.36 (KHTML, like Gecko) Chrome/100.0.4896.127 Safari/537.36"
