usingWebGL,participant,session,date,expName,psychopyVersion,OS,frameRate,PROLIFIC_PID,STUDY_ID,SESSION_ID,signatures_friend,signatures_foe,band_ranges_top,band_ranges_bottom,formitemText,formtype,formundefined,formitemWidth,formindex,formresponse,formrt,key_resp_2.keys,key_resp_2.rt,tute_resp.keys,tute_resp.rt,tutorial.thisRepN,tutorial.thisTrialN,tutorial.thisN,tutorial.thisIndex,tutorial.ran,key_resp_4.keys,key_resp_4.rt,key_resp.keys,key_resp.corr,key_resp.rt,lines_presented,is_signal_presented,trials.thisRepN,trials.thisTrialN,trials.thisN,trials.thisIndex,trials.ran,vessel,active_band,lines,is_signal,supported_pos,catch_trial,debrief_formindex,debrief_formitemText,debrief_formtype,debrief_formitemWidth,debrief_formresponse,debrief_formrt,phases.thisRepN,phases.thisTrialN,phases.thisN,phases.thisIndex,phases.ran,phases.order,phase,key_resp_3.keys,trustitemText,trusttype,trustitemWidth,trustindex,trustresponse,trustrt,support_status.thisRepN,support_status.thisTrialN,support_status.thisN,support_status.thisIndex,support_status.ran,support_status.order,key_resp_5.keys,key_resp_5.rt,globalClockTime,userAgent
TRUE,,001,2022-04-29_02h11.08.995,classification_task,2021.2.3,Win32,60.04202942,57ca4b09993b08000192297b,626b377229c10585ec392f8a,626b3af5dc10c79baf908995,,,,,,,,,,,,,,,,,,,,,,,,,,,,,,,,,,,,,,,,,,,,,,,,,,,,,,,,,,,,,,,,,,,,
,,001,2022-04-29_02h11.08.995,classification_task,2021.2.3,Win32,60.04202942,57ca4b09993b08000192297b,626b377229c10585ec392f8a,626b3af5dc10c79baf908995,"[[""0.211"",""0.346"",""0.852"",""0.938""],[""0.254"",""0.518"",""0.623"",""0.899""]]","[[""0.145"",""0.301"",""0.667"",""0.717""],[""0.065"",""0.383"",""0.480"",""0.792""]]","[1,10]","[100,1000]",Video game experience,,,0.7,0,,,,,,,,,,,,,,,,,,,,,,,,,,,,,,,,,,,,,,,,,,,,,,,,,,,,,,,,,,,
,,001,2022-04-29_02h11.08.995,classification_task,2021.2.3,Win32,60.04202942,57ca4b09993b08000192297b,626b377229c10585ec392f8a,626b3af5dc10c79baf908995,,,,,Approximately how many hours did you spend playing video games in the last week?,,,0.7,0,0,,,,,,,,,,,,,,,,,,,,,,,,,,,,,,,,,,,,,,,,,,,,,,,,,,,,,,,,,,
,,001,2022-04-29_02h11.08.995,classification_task,2021.2.3,Win32,60.04202942,57ca4b09993b08000192297b,626b377229c10585ec392f8a,626b3af5dc10c79baf908995,,,,,"Which game did you play the most this year? (Enter ""None"" if you didn't play any)",,,0.7,0,Minecraft,,,,,,,,,,,,,,,,,,,,,,,,,,,,,,,,,,,,,,,,,,,,,,,,,,,,,,,,,,
,,001,2022-04-29_02h11.08.995,classification_task,2021.2.3,Win32,60.04202942,57ca4b09993b08000192297b,626b377229c10585ec392f8a,626b3af5dc10c79baf908995,,,,,Visual perception,,,0.7,0,,,,,,,,,,,,,,,,,,,,,,,,,,,,,,,,,,,,,,,,,,,,,,,,,,,,,,,,,,,
,,001,2022-04-29_02h11.08.995,classification_task,2021.2.3,Win32,60.04202942,57ca4b09993b08000192297b,626b377229c10585ec392f8a,626b3af5dc10c79baf908995,,,,,Do you have any form of color blindness?,,,0.7,0,No,14.5726,,,,,,,,,,,,,,,,,,,,,,,,,,,,,,,,,,,,,,,,,,,,,,,,,,,,,,,,,
,,001,2022-04-29_02h11.08.995,classification_task,2021.2.3,Win32,60.04202942,57ca4b09993b08000192297b,626b377229c10585ec392f8a,626b3af5dc10c79baf908995,,,,,Do you use software to change the colour temperature of your screen (e.g. f.lux)?,,,0.7,0,No,13.671,,,,,,,,,,,,,,,,,,,,,,,,,,,,,,,,,,,,,,,,,,,,,,,,,,,,,,,,,
,,001,2022-04-29_02h11.08.995,classification_task,2021.2.3,Win32,60.04202942,57ca4b09993b08000192297b,626b377229c10585ec392f8a,626b3af5dc10c79baf908995,,,,,,,,,,,,space,126.9338,space,6.1161,0,0,0,0,1,,,,,,,,,,,,,,,,,,,,,,,,,,,,,,,,,,,,,,,,,,,,,,,,
,,001,2022-04-29_02h11.08.995,classification_task,2021.2.3,Win32,60.04202942,57ca4b09993b08000192297b,626b377229c10585ec392f8a,626b3af5dc10c79baf908995,,,,,,,,,,,,,,space,4.3322,1,0,1,0,1,,,,,,,,,,,,,,,,,,,,,,,,,,,,,,,,,,,,,,,,,,,,,,,,
,,001,2022-04-29_02h11.08.995,classification_task,2021.2.3,Win32,60.04202942,57ca4b09993b08000192297b,626b377229c10585ec392f8a,626b3af5dc10c79baf908995,,,,,,,,,,,,,,space,13.7838,2,0,2,0,1,,,,,,,,,,,,,,,,,,,,,,,,,,,,,,,,,,,,,,,,,,,,,,,,
,,001,2022-04-29_02h11.08.995,classification_task,2021.2.3,Win32,60.04202942,57ca4b09993b08000192297b,626b377229c10585ec392f8a,626b3af5dc10c79baf908995,,,,,,,,,,,,,,space,4.5665,3,0,3,0,1,,,,,,,,,,,,,,,,,,,,,,,,,,,,,,,,,,,,,,,,,,,,,,,,
,,001,2022-04-29_02h11.08.995,classification_task,2021.2.3,Win32,60.04202942,57ca4b09993b08000192297b,626b377229c10585ec392f8a,626b3af5dc10c79baf908995,,,,,,,,,,,,,,space,9.9002,4,0,4,0,1,,,,,,,,,,,,,,,,,,,,,,,,,,,,,,,,,,,,,,,,,,,,,,,,
,,001,2022-04-29_02h11.08.995,classification_task,2021.2.3,Win32,60.04202942,57ca4b09993b08000192297b,626b377229c10585ec392f8a,626b3af5dc10c79baf908995,,,,,,,,,,,,,,,,,,,,,space,10.3839,l,1,4.372,"[""0.145"",""0.301"",""0.568"",""0.717""]","[1,1,0,1]",0,0,0,0,1,1,0,,,1,FALSE,,,,,,,,,,,,,,,,,,,,,,,,,,,,,,
,,001,2022-04-29_02h11.08.995,classification_task,2021.2.3,Win32,60.04202942,57ca4b09993b08000192297b,626b377229c10585ec392f8a,626b3af5dc10c79baf908995,,,,,,,,,,,,,,,,,,,,,,,l,1,2.8766,"[""0.065"",""0.383"",""0.438"",""0.792""]","[1,1,0,1]",0,1,1,1,1,1,1,,,1,FALSE,,,,,,,,,,,,,,,,,,,,,,,,,,,,,,
,,001,2022-04-29_02h11.08.995,classification_task,2021.2.3,Win32,60.04202942,57ca4b09993b08000192297b,626b377229c10585ec392f8a,626b3af5dc10c79baf908995,,,,,,,,,,,,,,,,,,,,,,,a,1,8.4123,"[""0.254"",""0.518"",""0.623"",""0.438""]","[1,1,1,0]",0,2,2,2,1,0,1,,,1,FALSE,,,,,,,,,,,,,,,,,,,,,,,,,,,,,,
,,001,2022-04-29_02h11.08.995,classification_task,2021.2.3,Win32,60.04202942,57ca4b09993b08000192297b,626b377229c10585ec392f8a,626b3af5dc10c79baf908995,,,,,,,,,,,,,,,,,,,,,,,a,1,7.9035,"[""0.584"",""0.346"",""0.852"",""0.938""]","[0,1,1,1]",0,3,3,3,1,0,0,,,1,FALSE,,,,,,,,,,,,,,,,,,,,,,,,,,,,,,
,,001,2022-04-29_02h11.08.995,classification_task,2021.2.3,Win32,60.04202942,57ca4b09993b08000192297b,626b377229c10585ec392f8a,626b3af5dc10c79baf908995,,,,,,,,,,,,,,,,,,,,,,,l,1,3.4644,"[""0.065"",""0.434"",""0.480"",""0.792""]","[1,0,1,1]",0,4,4,4,1,1,1,,,1,FALSE,,,,,,,,,,,,,,,,,,,,,,,,,,,,,,
,,001,2022-04-29_02h11.08.995,classification_task,2021.2.3,Win32,60.04202942,57ca4b09993b08000192297b,626b377229c10585ec392f8a,626b3af5dc10c79baf908995,,,,,,,,,,,,,,,,,,,,,,,a,1,4.4695,"[""0.254"",""0.518"",""0.418"",""0.899""]","[1,1,0,1]",0,5,5,5,1,0,1,,,1,FALSE,,,,,,,,,,,,,,,,,,,,,,,,,,,,,,
,,001,2022-04-29_02h11.08.995,classification_task,2021.2.3,Win32,60.04202942,57ca4b09993b08000192297b,626b377229c10585ec392f8a,626b3af5dc10c79baf908995,,,,,,,,,,,,,,,,,,,,,,,l,1,2.328,"[""0.065"",""0.383"",""0.480"",""0.584""]","[1,1,1,0]",0,6,6,6,1,1,1,,,1,FALSE,,,,,,,,,,,,,,,,,,,,,,,,,,,,,,
,,001,2022-04-29_02h11.08.995,classification_task,2021.2.3,Win32,60.04202942,57ca4b09993b08000192297b,626b377229c10585ec392f8a,626b3af5dc10c79baf908995,,,,,,,,,,,,,,,,,,,,,,,a,1,5.3312,"[""0.211"",""0.346"",""0.852"",""0.099""]","[1,1,1,0]",0,7,7,7,1,0,0,,,1,FALSE,,,,,,,,,,,,,,,,,,,,,,,,,,,,,,
,,001,2022-04-29_02h11.08.995,classification_task,2021.2.3,Win32,60.04202942,57ca4b09993b08000192297b,626b377229c10585ec392f8a,626b3af5dc10c79baf908995,,,,,,,,,,,,,,,,,,,,,,,a,1,2.9672,"[""0.211"",""0.346"",""0.418"",""0.938""]","[1,1,0,1]",0,8,8,8,1,0,0,,,1,FALSE,,,,,,,,,,,,,,,,,,,,,,,,,,,,,,
,,001,2022-04-29_02h11.08.995,classification_task,2021.2.3,Win32,60.04202942,57ca4b09993b08000192297b,626b377229c10585ec392f8a,626b3af5dc10c79baf908995,,,,,,,,,,,,,,,,,,,,,,,l,1,2.6009,"[""0.145"",""0.438"",""0.667"",""0.717""]","[1,0,1,1]",0,9,9,9,1,1,0,,,1,FALSE,,,,,,,,,,,,,,,,,,,,,,,,,,,,,,
,,001,2022-04-29_02h11.08.995,classification_task,2021.2.3,Win32,60.04202942,57ca4b09993b08000192297b,626b377229c10585ec392f8a,626b3af5dc10c79baf908995,,,,,,,,,,,,,,,,,,,,,,,l,1,8.6211,"[""0.099"",""0.383"",""0.480"",""0.792""]","[0,1,1,1]",0,10,10,10,1,1,1,,,1,FALSE,,,,,,,,,,,,,,,,,,,,,,,,,,,,,,
,,001,2022-04-29_02h11.08.995,classification_task,2021.2.3,Win32,60.04202942,57ca4b09993b08000192297b,626b377229c10585ec392f8a,626b3af5dc10c79baf908995,,,,,,,,,,,,,,,,,,,,,,,a,1,2.5142,"[""0.211"",""0.438"",""0.852"",""0.938""]","[1,0,1,1]",0,11,11,11,1,0,0,,,1,FALSE,,,,,,,,,,,,,,,,,,,,,,,,,,,,,,
,,001,2022-04-29_02h11.08.995,classification_task,2021.2.3,Win32,60.04202942,57ca4b09993b08000192297b,626b377229c10585ec392f8a,626b3af5dc10c79baf908995,,,,,,,,,,,,,,,,,,,,,,,l,1,4.1508,"[""0.585"",""0.301"",""0.667"",""0.717""]","[0,1,1,1]",0,12,12,12,1,1,0,,,1,FALSE,,,,,,,,,,,,,,,,,,,,,,,,,,,,,,
,,001,2022-04-29_02h11.08.995,classification_task,2021.2.3,Win32,60.04202942,57ca4b09993b08000192297b,626b377229c10585ec392f8a,626b3af5dc10c79baf908995,,,,,,,,,,,,,,,,,,,,,,,a,1,3.5634,"[""0.254"",""0.109"",""0.623"",""0.899""]","[1,0,1,1]",0,13,13,13,1,0,1,,,1,FALSE,,,,,,,,,,,,,,,,,,,,,,,,,,,,,,
,,001,2022-04-29_02h11.08.995,classification_task,2021.2.3,Win32,60.04202942,57ca4b09993b08000192297b,626b377229c10585ec392f8a,626b3af5dc10c79baf908995,,,,,,,,,,,,,,,,,,,,,,,a,1,4.9664,"[""0.422"",""0.518"",""0.623"",""0.899""]","[0,1,1,1]",0,14,14,14,1,0,1,,,1,FALSE,,,,,,,,,,,,,,,,,,,,,,,,,,,,,,
,,001,2022-04-29_02h11.08.995,classification_task,2021.2.3,Win32,60.04202942,57ca4b09993b08000192297b,626b377229c10585ec392f8a,626b3af5dc10c79baf908995,,,,,,,,,,,,,,,,,,,,,,,l,1,2.9149,"[""0.145"",""0.301"",""0.667"",""0.584""]","[1,1,1,0]",0,15,15,15,1,1,0,,,1,FALSE,,,,,,,,,,,,,,,,,,,,,,,,,,,,,,
,,001,2022-04-29_02h11.08.995,classification_task,2021.2.3,Win32,60.04202942,57ca4b09993b08000192297b,626b377229c10585ec392f8a,626b3af5dc10c79baf908995,,,,,,,,,,,,,,,,,,,,,,,a,1,2.327,"[""0.584"",""0.346"",""0.852"",""0.938""]","[0,1,1,1]",0,16,16,16,1,0,0,,,1,FALSE,,,,,,,,,,,,,,,,,,,,,,,,,,,,,,
,,001,2022-04-29_02h11.08.995,classification_task,2021.2.3,Win32,60.04202942,57ca4b09993b08000192297b,626b377229c10585ec392f8a,626b3af5dc10c79baf908995,,,,,,,,,,,,,,,,,,,,,,,a,1,4.7486,"[""0.418"",""0.518"",""0.623"",""0.899""]","[0,1,1,1]",0,17,17,17,1,0,1,,,1,FALSE,,,,,,,,,,,,,,,,,,,,,,,,,,,,,,
,,001,2022-04-29_02h11.08.995,classification_task,2021.2.3,Win32,60.04202942,57ca4b09993b08000192297b,626b377229c10585ec392f8a,626b3af5dc10c79baf908995,,,,,,,,,,,,,,,,,,,,,,,a,1,2.4129,"[""0.211"",""0.346"",""0.852"",""0.099""]","[1,1,1,0]",0,18,18,18,1,0,0,,,1,FALSE,,,,,,,,,,,,,,,,,,,,,,,,,,,,,,
,,001,2022-04-29_02h11.08.995,classification_task,2021.2.3,Win32,60.04202942,57ca4b09993b08000192297b,626b377229c10585ec392f8a,626b3af5dc10c79baf908995,,,,,,,,,,,,,,,,,,,,,,,l,1,5.6479,"[""0.757"",""0.301"",""0.667"",""0.717""]","[0,1,1,1]",0,19,19,19,1,1,0,,,1,FALSE,,,,,,,,,,,,,,,,,,,,,,,,,,,,,,
,,001,2022-04-29_02h11.08.995,classification_task,2021.2.3,Win32,60.04202942,57ca4b09993b08000192297b,626b377229c10585ec392f8a,626b3af5dc10c79baf908995,,,,,,,,,,,,,,,,,,,,,,,a,0,3.4191,"[""0.145"",""0.301"",""0.568"",""0.717""]","[1,1,0,1]",0,20,20,20,1,1,0,,,1,FALSE,,,,,,,,,,,,,,,,,,,,,,,,,,,,,,
,,001,2022-04-29_02h11.08.995,classification_task,2021.2.3,Win32,60.04202942,57ca4b09993b08000192297b,626b377229c10585ec392f8a,626b3af5dc10c79baf908995,,,,,,,,,,,,,,,,,,,,,,,l,1,3.1477,"[""0.757"",""0.383"",""0.480"",""0.792""]","[0,1,1,1]",0,21,21,21,1,1,1,,,1,FALSE,,,,,,,,,,,,,,,,,,,,,,,,,,,,,,
,,001,2022-04-29_02h11.08.995,classification_task,2021.2.3,Win32,60.04202942,57ca4b09993b08000192297b,626b377229c10585ec392f8a,626b3af5dc10c79baf908995,,,,,,,,,,,,,,,,,,,,,,,l,1,6.6324,"[""0.145"",""0.301"",""0.667"",""0.418""]","[1,1,1,0]",0,22,22,22,1,1,0,,,1,FALSE,,,,,,,,,,,,,,,,,,,,,,,,,,,,,,
,,001,2022-04-29_02h11.08.995,classification_task,2021.2.3,Win32,60.04202942,57ca4b09993b08000192297b,626b377229c10585ec392f8a,626b3af5dc10c79baf908995,,,,,,,,,,,,,,,,,,,,,,,l,1,2.3996,"[""0.065"",""0.383"",""0.578"",""0.792""]","[1,1,0,1]",0,23,23,23,1,1,1,,,1,FALSE,,,,,,,,,,,,,,,,,,,,,,,,,,,,,,
,,001,2022-04-29_02h11.08.995,classification_task,2021.2.3,Win32,60.04202942,57ca4b09993b08000192297b,626b377229c10585ec392f8a,626b3af5dc10c79baf908995,,,,,,,,,,,,,,,,,,,,,,,l,1,1.7672,"[""0.065"",""0.383"",""0.480"",""0.568""]","[1,1,1,0]",0,24,24,24,1,1,1,,,1,FALSE,,,,,,,,,,,,,,,,,,,,,,,,,,,,,,
,,001,2022-04-29_02h11.08.995,classification_task,2021.2.3,Win32,60.04202942,57ca4b09993b08000192297b,626b377229c10585ec392f8a,626b3af5dc10c79baf908995,,,,,,,,,,,,,,,,,,,,,,,a,1,3.0348,"[""0.254"",""0.434"",""0.623"",""0.899""]","[1,0,1,1]",0,25,25,25,1,0,1,,,1,FALSE,,,,,,,,,,,,,,,,,,,,,,,,,,,,,,
,,001,2022-04-29_02h11.08.995,classification_task,2021.2.3,Win32,60.04202942,57ca4b09993b08000192297b,626b377229c10585ec392f8a,626b3af5dc10c79baf908995,,,,,,,,,,,,,,,,,,,,,,,a,1,2.5814,"[""0.211"",""0.346"",""0.585"",""0.938""]","[1,1,0,1]",0,26,26,26,1,0,0,,,1,FALSE,,,,,,,,,,,,,,,,,,,,,,,,,,,,,,
,,001,2022-04-29_02h11.08.995,classification_task,2021.2.3,Win32,60.04202942,57ca4b09993b08000192297b,626b377229c10585ec392f8a,626b3af5dc10c79baf908995,,,,,,,,,,,,,,,,,,,,,,,a,1,1.1324,"[""0.211"",""0.434"",""0.852"",""0.938""]","[1,0,1,1]",0,27,27,27,1,0,0,,,1,FALSE,,,,,,,,,,,,,,,,,,,,,,,,,,,,,,
,,001,2022-04-29_02h11.08.995,classification_task,2021.2.3,Win32,60.04202942,57ca4b09993b08000192297b,626b377229c10585ec392f8a,626b3af5dc10c79baf908995,,,,,,,,,,,,,,,,,,,,,,,l,1,1.6153,"[""0.065"",""0.429"",""0.480"",""0.792""]","[1,0,1,1]",0,28,28,28,1,1,1,,,1,FALSE,,,,,,,,,,,,,,,,,,,,,,,,,,,,,,
,,001,2022-04-29_02h11.08.995,classification_task,2021.2.3,Win32,60.04202942,57ca4b09993b08000192297b,626b377229c10585ec392f8a,626b3af5dc10c79baf908995,,,,,,,,,,,,,,,,,,,,,,,a,1,1.9813,"[""0.254"",""0.518"",""0.623"",""0.572""]","[1,1,1,0]",0,29,29,29,1,0,1,,,1,FALSE,,,,,,,,,,,,,,,,,,,,,,,,,,,,,,
,,001,2022-04-29_02h11.08.995,classification_task,2021.2.3,Win32,60.04202942,57ca4b09993b08000192297b,626b377229c10585ec392f8a,626b3af5dc10c79baf908995,,,,,,,,,,,,,,,,,,,,,,,a,1,2.6156,"[""0.254"",""0.518"",""0.757"",""0.899""]","[1,1,0,1]",0,30,30,30,1,0,1,,,1,FALSE,,,,,,,,,,,,,,,,,,,,,,,,,,,,,,
,,001,2022-04-29_02h11.08.995,classification_task,2021.2.3,Win32,60.04202942,57ca4b09993b08000192297b,626b377229c10585ec392f8a,626b3af5dc10c79baf908995,,,,,,,,,,,,,,,,,,,,,,,l,1,1.7821,"[""0.145"",""0.584"",""0.667"",""0.717""]","[1,0,1,1]",0,31,31,31,1,1,0,,,1,FALSE,,,,,,,,,,,,,,,,,,,,,,,,,,,,,,
,,001,2022-04-29_02h11.08.995,classification_task,2021.2.3,Win32,60.04202942,57ca4b09993b08000192297b,626b377229c10585ec392f8a,626b3af5dc10c79baf908995,,,,,,,,,,,,,,,,,,,,,,,a,0,3.0655,"[""0.065"",""0.383"",""0.480"",""0.427""]","[1,1,1,0]",0,32,32,32,1,1,1,,,1,FALSE,,,,,,,,,,,,,,,,,,,,,,,,,,,,,,
,,001,2022-04-29_02h11.08.995,classification_task,2021.2.3,Win32,60.04202942,57ca4b09993b08000192297b,626b377229c10585ec392f8a,626b3af5dc10c79baf908995,,,,,,,,,,,,,,,,,,,,,,,l,1,2.3504,"[""0.065"",""0.429"",""0.480"",""0.792""]","[1,0,1,1]",0,33,33,33,1,1,1,,,1,FALSE,,,,,,,,,,,,,,,,,,,,,,,,,,,,,,
,,001,2022-04-29_02h11.08.995,classification_task,2021.2.3,Win32,60.04202942,57ca4b09993b08000192297b,626b377229c10585ec392f8a,626b3af5dc10c79baf908995,,,,,,,,,,,,,,,,,,,,,,,a,0,1.6645,"[""0.584"",""0.301"",""0.667"",""0.717""]","[0,1,1,1]",0,34,34,34,1,1,0,,,1,FALSE,,,,,,,,,,,,,,,,,,,,,,,,,,,,,,
,,001,2022-04-29_02h11.08.995,classification_task,2021.2.3,Win32,60.04202942,57ca4b09993b08000192297b,626b377229c10585ec392f8a,626b3af5dc10c79baf908995,,,,,,,,,,,,,,,,,,,,,,,a,1,1.5673,"[""0.254"",""0.418"",""0.623"",""0.899""]","[1,0,1,1]",0,35,35,35,1,0,1,,,1,FALSE,,,,,,,,,,,,,,,,,,,,,,,,,,,,,,
,,001,2022-04-29_02h11.08.995,classification_task,2021.2.3,Win32,60.04202942,57ca4b09993b08000192297b,626b377229c10585ec392f8a,626b3af5dc10c79baf908995,,,,,,,,,,,,,,,,,,,,,,,a,1,1.7005,"[""0.211"",""0.429"",""0.852"",""0.938""]","[1,0,1,1]",0,36,36,36,1,0,0,,,1,FALSE,,,,,,,,,,,,,,,,,,,,,,,,,,,,,,
,,001,2022-04-29_02h11.08.995,classification_task,2021.2.3,Win32,60.04202942,57ca4b09993b08000192297b,626b377229c10585ec392f8a,626b3af5dc10c79baf908995,,,,,,,,,,,,,,,,,,,,,,,l,1,1.731,"[""0.585"",""0.383"",""0.480"",""0.792""]","[0,1,1,1]",0,37,37,37,1,1,1,,,1,FALSE,,,,,,,,,,,,,,,,,,,,,,,,,,,,,,
,,001,2022-04-29_02h11.08.995,classification_task,2021.2.3,Win32,60.04202942,57ca4b09993b08000192297b,626b377229c10585ec392f8a,626b3af5dc10c79baf908995,,,,,,,,,,,,,,,,,,,,,,,l,1,1.35,"[""0.145"",""0.301"",""0.578"",""0.717""]","[1,1,0,1]",0,38,38,38,1,1,0,,,1,FALSE,,,,,,,,,,,,,,,,,,,,,,,,,,,,,,
,,001,2022-04-29_02h11.08.995,classification_task,2021.2.3,Win32,60.04202942,57ca4b09993b08000192297b,626b377229c10585ec392f8a,626b3af5dc10c79baf908995,,,,,,,,,,,,,,,,,,,,,,,a,1,1.6994,"[""0.254"",""0.518"",""0.099"",""0.899""]","[1,1,0,1]",0,39,39,39,1,0,1,,,1,FALSE,,,,,,,,,,,,,,,,,,,,,,,,,,,,,,
,,001,2022-04-29_02h11.08.995,classification_task,2021.2.3,Win32,60.04202942,57ca4b09993b08000192297b,626b377229c10585ec392f8a,626b3af5dc10c79baf908995,,,,,,,,,,,,,,,,,,,,,,,l,1,1.6173,"[""0.065"",""0.383"",""0.572"",""0.792""]","[1,1,0,1]",0,40,40,40,1,1,1,,,1,FALSE,,,,,,,,,,,,,,,,,,,,,,,,,,,,,,
,,001,2022-04-29_02h11.08.995,classification_task,2021.2.3,Win32,60.04202942,57ca4b09993b08000192297b,626b377229c10585ec392f8a,626b3af5dc10c79baf908995,,,,,,,,,,,,,,,,,,,,,,,a,1,1.5164,"[""0.581"",""0.518"",""0.623"",""0.899""]","[0,1,1,1]",0,41,41,41,1,0,1,,,1,FALSE,,,,,,,,,,,,,,,,,,,,,,,,,,,,,,
,,001,2022-04-29_02h11.08.995,classification_task,2021.2.3,Win32,60.04202942,57ca4b09993b08000192297b,626b377229c10585ec392f8a,626b3af5dc10c79baf908995,,,,,,,,,,,,,,,,,,,,,,,a,1,1.4839,"[""0.211"",""0.346"",""0.434"",""0.938""]","[1,1,0,1]",0,42,42,42,1,0,0,,,1,FALSE,,,,,,,,,,,,,,,,,,,,,,,,,,,,,,
,,001,2022-04-29_02h11.08.995,classification_task,2021.2.3,Win32,60.04202942,57ca4b09993b08000192297b,626b377229c10585ec392f8a,626b3af5dc10c79baf908995,,,,,,,,,,,,,,,,,,,,,,,l,0,2.2908,"[""0.418"",""0.346"",""0.852"",""0.938""]","[0,1,1,1]",0,43,43,43,1,0,0,,,1,FALSE,,,,,,,,,,,,,,,,,,,,,,,,,,,,,,
,,001,2022-04-29_02h11.08.995,classification_task,2021.2.3,Win32,60.04202942,57ca4b09993b08000192297b,626b377229c10585ec392f8a,626b3af5dc10c79baf908995,,,,,,,,,,,,,,,,,,,,,,,l,1,1.617,"[""0.145"",""0.434"",""0.667"",""0.717""]","[1,0,1,1]",0,44,44,44,1,1,0,,,1,FALSE,,,,,,,,,,,,,,,,,,,,,,,,,,,,,,
,,001,2022-04-29_02h11.08.995,classification_task,2021.2.3,Win32,60.04202942,57ca4b09993b08000192297b,626b377229c10585ec392f8a,626b3af5dc10c79baf908995,,,,,,,,,,,,,,,,,,,,,,,l,1,2.5004,"[""0.145"",""0.301"",""0.667"",""0.568""]","[1,1,1,0]",0,45,45,45,1,1,0,,,1,FALSE,,,,,,,,,,,,,,,,,,,,,,,,,,,,,,
,,001,2022-04-29_02h11.08.995,classification_task,2021.2.3,Win32,60.04202942,57ca4b09993b08000192297b,626b377229c10585ec392f8a,626b3af5dc10c79baf908995,,,,,,,,,,,,,,,,,,,,,,,a,1,1.8668,"[""0.254"",""0.518"",""0.623"",""0.584""]","[1,1,1,0]",0,46,46,46,1,0,1,,,1,FALSE,,,,,,,,,,,,,,,,,,,,,,,,,,,,,,
,,001,2022-04-29_02h11.08.995,classification_task,2021.2.3,Win32,60.04202942,57ca4b09993b08000192297b,626b377229c10585ec392f8a,626b3af5dc10c79baf908995,,,,,,,,,,,,,,,,,,,,,,,a,1,1.1503,"[""0.211"",""0.346"",""0.852"",""0.568""]","[1,1,1,0]",0,47,47,47,1,0,0,,,1,FALSE,,,,,,,,,,,,,,,,,,,,,,,,,,,,,,
,,001,2022-04-29_02h11.08.995,classification_task,2021.2.3,Win32,60.04202942,57ca4b09993b08000192297b,626b377229c10585ec392f8a,626b3af5dc10c79baf908995,,,,,,,,,,,,,,,,,,,,,,,l,1,1.6313,"[""0.568"",""0.383"",""0.480"",""0.792""]","[0,1,1,1]",0,48,48,48,1,1,1,,,1,FALSE,,,,,,,,,,,,,,,,,,,,,,,,,,,,,,
,,001,2022-04-29_02h11.08.995,classification_task,2021.2.3,Win32,60.04202942,57ca4b09993b08000192297b,626b377229c10585ec392f8a,626b3af5dc10c79baf908995,,,,,,,,,,,,,,,,,,,,,,,l,0,1.9242,"[""0.254"",""0.585"",""0.623"",""0.899""]","[1,0,1,1]",0,49,49,49,1,0,1,,,1,FALSE,,,,,,,,,,,,,,,,,,,,,,,,,,,,,,
,,001,2022-04-29_02h11.08.995,classification_task,2021.2.3,Win32,60.04202942,57ca4b09993b08000192297b,626b377229c10585ec392f8a,626b3af5dc10c79baf908995,,,,,,,,,,,,,,,,,,,,,,,l,0,1.5504,"[""0.578"",""0.346"",""0.852"",""0.938""]","[0,1,1,1]",0,50,50,50,1,0,0,,,1,FALSE,,,,,,,,,,,,,,,,,,,,,,,,,,,,,,
,,001,2022-04-29_02h11.08.995,classification_task,2021.2.3,Win32,60.04202942,57ca4b09993b08000192297b,626b377229c10585ec392f8a,626b3af5dc10c79baf908995,,,,,,,,,,,,,,,,,,,,,,,a,1,2.1479,"[""0.211"",""0.109"",""0.852"",""0.938""]","[1,0,1,1]",0,51,51,51,1,0,0,,,1,FALSE,,,,,,,,,,,,,,,,,,,,,,,,,,,,,,
,,001,2022-04-29_02h11.08.995,classification_task,2021.2.3,Win32,60.04202942,57ca4b09993b08000192297b,626b377229c10585ec392f8a,626b3af5dc10c79baf908995,,,,,,,,,,,,,,,,,,,,,,,a,0,2.2509,"[""0.145"",""0.301"",""0.099"",""0.717""]","[1,1,0,1]",0,52,52,52,1,1,0,,,1,FALSE,,,,,,,,,,,,,,,,,,,,,,,,,,,,,,
,,001,2022-04-29_02h11.08.995,classification_task,2021.2.3,Win32,60.04202942,57ca4b09993b08000192297b,626b377229c10585ec392f8a,626b3af5dc10c79baf908995,,,,,,,,,,,,,,,,,,,,,,,l,1,1.6835,"[""0.145"",""0.572"",""0.667"",""0.717""]","[1,0,1,1]",0,53,53,53,1,1,0,,,1,FALSE,,,,,,,,,,,,,,,,,,,,,,,,,,,,,,
,,001,2022-04-29_02h11.08.995,classification_task,2021.2.3,Win32,60.04202942,57ca4b09993b08000192297b,626b377229c10585ec392f8a,626b3af5dc10c79baf908995,,,,,,,,,,,,,,,,,,,,,,,l,0,1.649,"[""0.211"",""0.346"",""0.099"",""0.938""]","[1,1,0,1]",0,54,54,54,1,0,0,,,1,FALSE,,,,,,,,,,,,,,,,,,,,,,,,,,,,,,
,,001,2022-04-29_02h11.08.995,classification_task,2021.2.3,Win32,60.04202942,57ca4b09993b08000192297b,626b377229c10585ec392f8a,626b3af5dc10c79baf908995,,,,,,,,,,,,,,,,,,,,,,,l,1,2.4986,"[""0.065"",""0.383"",""0.757"",""0.792""]","[1,1,0,1]",0,55,55,55,1,1,1,,,1,FALSE,,,,,,,,,,,,,,,,,,,,,,,,,,,,,,
,,001,2022-04-29_02h11.08.995,classification_task,2021.2.3,Win32,60.04202942,57ca4b09993b08000192297b,626b377229c10585ec392f8a,626b3af5dc10c79baf908995,,,,,,,,,,,,,,,,,,,,,,,a,0,1.7681,"[""0.145"",""0.301"",""0.667"",""0.584""]","[1,1,1,0]",0,56,56,56,1,1,0,,,1,FALSE,,,,,,,,,,,,,,,,,,,,,,,,,,,,,,
,,001,2022-04-29_02h11.08.995,classification_task,2021.2.3,Win32,60.04202942,57ca4b09993b08000192297b,626b377229c10585ec392f8a,626b3af5dc10c79baf908995,,,,,,,,,,,,,,,,,,,,,,,a,1,1.4826,"[""0.211"",""0.346"",""0.852"",""0.434""]","[1,1,1,0]",0,57,57,57,1,0,0,,,1,FALSE,,,,,,,,,,,,,,,,,,,,,,,,,,,,,,
,,001,2022-04-29_02h11.08.995,classification_task,2021.2.3,Win32,60.04202942,57ca4b09993b08000192297b,626b377229c10585ec392f8a,626b3af5dc10c79baf908995,,,,,,,,,,,,,,,,,,,,,,,a,0,1.7154,"[""0.438"",""0.301"",""0.667"",""0.717""]","[0,1,1,1]",0,58,58,58,1,1,0,,,1,FALSE,,,,,,,,,,,,,,,,,,,,,,,,,,,,,,
,,001,2022-04-29_02h11.08.995,classification_task,2021.2.3,Win32,60.04202942,57ca4b09993b08000192297b,626b377229c10585ec392f8a,626b3af5dc10c79baf908995,,,,,,,,,,,,,,,,,,,,,,,l,0,1.7648,"[""0.254"",""0.518"",""0.427"",""0.899""]","[1,1,0,1]",0,59,59,59,1,0,1,,,1,FALSE,,,,,,,,,,,,,,,,,,,,,,,,,,,,,,
,,001,2022-04-29_02h11.08.995,classification_task,2021.2.3,Win32,60.04202942,57ca4b09993b08000192297b,626b377229c10585ec392f8a,626b3af5dc10c79baf908995,,,,,,,,,,,,,,,,,,,,,,,a,1,1.4311,"[""0.254"",""0.518"",""0.623"",""0.585""]","[1,1,1,0]",0,60,60,60,1,0,1,,,1,FALSE,,,,,,,,,,,,,,,,,,,,,,,,,,,,,,
,,001,2022-04-29_02h11.08.995,classification_task,2021.2.3,Win32,60.04202942,57ca4b09993b08000192297b,626b377229c10585ec392f8a,626b3af5dc10c79baf908995,,,,,,,,,,,,,,,,,,,,,,,l,1,1.2493,"[""0.065"",""0.383"",""0.480"",""0.581""]","[1,1,1,0]",0,61,61,61,1,1,1,,,1,FALSE,,,,,,,,,,,,,,,,,,,,,,,,,,,,,,
,,001,2022-04-29_02h11.08.995,classification_task,2021.2.3,Win32,60.04202942,57ca4b09993b08000192297b,626b377229c10585ec392f8a,626b3af5dc10c79baf908995,,,,,,,,,,,,,,,,,,,,,,,l,1,0.7671,"[""0.065"",""0.568"",""0.480"",""0.792""]","[1,0,1,1]",0,62,62,62,1,1,1,,,1,FALSE,,,,,,,,,,,,,,,,,,,,,,,,,,,,,,
,,001,2022-04-29_02h11.08.995,classification_task,2021.2.3,Win32,60.04202942,57ca4b09993b08000192297b,626b377229c10585ec392f8a,626b3af5dc10c79baf908995,,,,,,,,,,,,,,,,,,,,,,,a,1,1.6363,"[""0.109"",""0.518"",""0.623"",""0.899""]","[0,1,1,1]",0,63,63,63,1,0,1,,,1,FALSE,,,,,,,,,,,,,,,,,,,,,,,,,,,,,,
,,001,2022-04-29_02h11.08.995,classification_task,2021.2.3,Win32,60.04202942,57ca4b09993b08000192297b,626b377229c10585ec392f8a,626b3af5dc10c79baf908995,,,,,,,,,,,,,,,,,,,,,,,,,,,,,,,,,,,,,,,0, ,,0,6.224769743,449.5672,0,0,0,0,1,2,1,,,,,,,,,,,,,,,,,
,,001,2022-04-29_02h11.08.995,classification_task,2021.2.3,Win32,60.04202942,57ca4b09993b08000192297b,626b377229c10585ec392f8a,626b3af5dc10c79baf908995,,,,,,,,,,,,,,,,,,,,,,,,,,,,,,,,,,,,,,,1,  ,,0,8.184401333,454.7327,0,0,0,0,1,2,1,,,,,,,,,,,,,,,,,
,,001,2022-04-29_02h11.08.995,classification_task,2021.2.3,Win32,60.04202942,57ca4b09993b08000192297b,626b377229c10585ec392f8a,626b3af5dc10c79baf908995,,,,,,,,,,,,,,,,,,,,,,,,,,,,,,,,,,,,,,,2,  ,,0,3.383303939,458.8059,0,0,0,0,1,2,1,,,,,,,,,,,,,,,,,
,,001,2022-04-29_02h11.08.995,classification_task,2021.2.3,Win32,60.04202942,57ca4b09993b08000192297b,626b377229c10585ec392f8a,626b3af5dc10c79baf908995,,,,,,,,,,,,,,,,,,,,,,,,,,,,,,,,,,,,,,,,,,,,,0,0,0,0,1,,1,,,,,,,,,,,,,,,,,
,,001,2022-04-29_02h11.08.995,classification_task,2021.2.3,Win32,60.04202942,57ca4b09993b08000192297b,626b377229c10585ec392f8a,626b3af5dc10c79baf908995,,,,,,,,,,,,,,,,,,,,,space,18.4521,l,1,3.1298,"[""0.145"",""0.301"",""0.667"",""0.099""]","[1,1,1,0]",0,0,0,0,1,1,0,,,1,FALSE,,,,,,,,,,,,,,,,,,,,,,,,,,,,,,
,,001,2022-04-29_02h11.08.995,classification_task,2021.2.3,Win32,60.04202942,57ca4b09993b08000192297b,626b377229c10585ec392f8a,626b3af5dc10c79baf908995,,,,,,,,,,,,,,,,,,,,,,,a,1,1.6669,"[""0.211"",""0.427"",""0.852"",""0.938""]","[1,0,1,1]",0,1,1,1,1,0,0,,,1,FALSE,,,,,,,,,,,,,,,,,,,,,,,,,,,,,,
,,001,2022-04-29_02h11.08.995,classification_task,2021.2.3,Win32,60.04202942,57ca4b09993b08000192297b,626b377229c10585ec392f8a,626b3af5dc10c79baf908995,,,,,,,,,,,,,,,,,,,,,,,l,0,3.0617,"[""0.418"",""0.518"",""0.623"",""0.899""]","[0,1,1,1]",0,2,2,2,1,0,1,,,1,FALSE,,,,,,,,,,,,,,,,,,,,,,,,,,,,,,
,,001,2022-04-29_02h11.08.995,classification_task,2021.2.3,Win32,60.04202942,57ca4b09993b08000192297b,626b377229c10585ec392f8a,626b3af5dc10c79baf908995,,,,,,,,,,,,,,,,,,,,,,,l,0,1.9819,"[""0.422"",""0.346"",""0.852"",""0.938""]","[0,1,1,1]",0,3,3,3,1,0,0,,,1,FALSE,,,,,,,,,,,,,,,,,,,,,,,,,,,,,,
,,001,2022-04-29_02h11.08.995,classification_task,2021.2.3,Win32,60.04202942,57ca4b09993b08000192297b,626b377229c10585ec392f8a,626b3af5dc10c79baf908995,,,,,,,,,,,,,,,,,,,,,,,l,1,1.4988,"[""0.438"",""0.383"",""0.480"",""0.792""]","[0,1,1,1]",0,4,4,4,1,1,1,,,1,FALSE,,,,,,,,,,,,,,,,,,,,,,,,,,,,,,
,,001,2022-04-29_02h11.08.995,classification_task,2021.2.3,Win32,60.04202942,57ca4b09993b08000192297b,626b377229c10585ec392f8a,626b3af5dc10c79baf908995,,,,,,,,,,,,,,,,,,,,,,,a,1,1.5982,"[""0.211"",""0.346"",""0.418"",""0.938""]","[1,1,0,1]",0,5,5,5,1,0,0,,,1,FALSE,,,,,,,,,,,,,,,,,,,,,,,,,,,,,,
,,001,2022-04-29_02h11.08.995,classification_task,2021.2.3,Win32,60.04202942,57ca4b09993b08000192297b,626b377229c10585ec392f8a,626b3af5dc10c79baf908995,,,,,,,,,,,,,,,,,,,,,,,a,1,0.8489,"[""0.211"",""0.346"",""0.852"",""0.578""]","[1,1,1,0]",0,6,6,6,1,0,0,,,1,FALSE,,,,,,,,,,,,,,,,,,,,,,,,,,,,,,
,,001,2022-04-29_02h11.08.995,classification_task,2021.2.3,Win32,60.04202942,57ca4b09993b08000192297b,626b377229c10585ec392f8a,626b3af5dc10c79baf908995,,,,,,,,,,,,,,,,,,,,,,,l,1,0.9158,"[""0.065"",""0.383"",""0.578"",""0.792""]","[1,1,0,1]",0,7,7,7,1,1,1,,,1,FALSE,,,,,,,,,,,,,,,,,,,,,,,,,,,,,,
,,001,2022-04-29_02h11.08.995,classification_task,2021.2.3,Win32,60.04202942,57ca4b09993b08000192297b,626b377229c10585ec392f8a,626b3af5dc10c79baf908995,,,,,,,,,,,,,,,,,,,,,,,a,0,2.3491,"[""0.429"",""0.301"",""0.667"",""0.717""]","[0,1,1,1]",0,8,8,8,1,1,0,,,1,FALSE,,,,,,,,,,,,,,,,,,,,,,,,,,,,,,
,,001,2022-04-29_02h11.08.995,classification_task,2021.2.3,Win32,60.04202942,57ca4b09993b08000192297b,626b377229c10585ec392f8a,626b3af5dc10c79baf908995,,,,,,,,,,,,,,,,,,,,,,,a,1,1.1163,"[""0.254"",""0.518"",""0.623"",""0.099""]","[1,1,1,0]",0,9,9,9,1,0,1,,,1,FALSE,,,,,,,,,,,,,,,,,,,,,,,,,,,,,,
,,001,2022-04-29_02h11.08.995,classification_task,2021.2.3,Win32,60.04202942,57ca4b09993b08000192297b,626b377229c10585ec392f8a,626b3af5dc10c79baf908995,,,,,,,,,,,,,,,,,,,,,,,a,1,0.9031,"[""0.254"",""0.568"",""0.623"",""0.899""]","[1,0,1,1]",0,10,10,10,1,0,1,,,1,FALSE,,,,,,,,,,,,,,,,,,,,,,,,,,,,,,
,,001,2022-04-29_02h11.08.995,classification_task,2021.2.3,Win32,60.04202942,57ca4b09993b08000192297b,626b377229c10585ec392f8a,626b3af5dc10c79baf908995,,,,,,,,,,,,,,,,,,,,,,,l,1,0.651,"[""0.065"",""0.383"",""0.480"",""0.109""]","[1,1,1,0]",0,11,11,11,1,1,1,,,1,FALSE,,,,,,,,,,,,,,,,,,,,,,,,,,,,,,
,,001,2022-04-29_02h11.08.995,classification_task,2021.2.3,Win32,60.04202942,57ca4b09993b08000192297b,626b377229c10585ec392f8a,626b3af5dc10c79baf908995,,,,,,,,,,,,,,,,,,,,,,,l,1,1.7484,"[""0.145"",""0.301"",""0.572"",""0.717""]","[1,1,0,1]",0,12,12,12,1,1,0,,,1,FALSE,,,,,,,,,,,,,,,,,,,,,,,,,,,,,,
,,001,2022-04-29_02h11.08.995,classification_task,2021.2.3,Win32,60.04202942,57ca4b09993b08000192297b,626b377229c10585ec392f8a,626b3af5dc10c79baf908995,,,,,,,,,,,,,,,,,,,,,,,a,0,1.1089,"[""0.065"",""0.578"",""0.480"",""0.792""]","[1,0,1,1]",0,13,13,13,1,1,1,,,1,FALSE,,,,,,,,,,,,,,,,,,,,,,,,,,,,,,
,,001,2022-04-29_02h11.08.995,classification_task,2021.2.3,Win32,60.04202942,57ca4b09993b08000192297b,626b377229c10585ec392f8a,626b3af5dc10c79baf908995,,,,,,,,,,,,,,,,,,,,,,,l,1,1.5332,"[""0.145"",""0.422"",""0.667"",""0.717""]","[1,0,1,1]",0,14,14,14,1,1,0,,,1,FALSE,,,,,,,,,,,,,,,,,,,,,,,,,,,,,,
,,001,2022-04-29_02h11.08.995,classification_task,2021.2.3,Win32,60.04202942,57ca4b09993b08000192297b,626b377229c10585ec392f8a,626b3af5dc10c79baf908995,,,,,,,,,,,,,,,,,,,,,,,a,1,0.8332,"[""0.254"",""0.518"",""0.418"",""0.899""]","[1,1,0,1]",0,15,15,15,1,0,1,,,1,FALSE,,,,,,,,,,,,,,,,,,,,,,,,,,,,,,
,,001,2022-04-29_02h11.08.995,classification_task,2021.2.3,Win32,60.04202942,57ca4b09993b08000192297b,626b377229c10585ec392f8a,626b3af5dc10c79baf908995,,,,,,,,,,,,,,,,,,,,,,,a,1,0.5834,"[""0.254"",""0.585"",""0.623"",""0.899""]","[1,0,1,1]",0,16,16,16,1,0,1,,,1,FALSE,,,,,,,,,,,,,,,,,,,,,,,,,,,,,,
,,001,2022-04-29_02h11.08.995,classification_task,2021.2.3,Win32,60.04202942,57ca4b09993b08000192297b,626b377229c10585ec392f8a,626b3af5dc10c79baf908995,,,,,,,,,,,,,,,,,,,,,,,l,1,0.7657,"[""0.065"",""0.422"",""0.480"",""0.792""]","[1,0,1,1]",0,17,17,17,1,1,1,,,1,FALSE,,,,,,,,,,,,,,,,,,,,,,,,,,,,,,
,,001,2022-04-29_02h11.08.995,classification_task,2021.2.3,Win32,60.04202942,57ca4b09993b08000192297b,626b377229c10585ec392f8a,626b3af5dc10c79baf908995,,,,,,,,,,,,,,,,,,,,,,,l,1,1.6132,"[""0.145"",""0.757"",""0.667"",""0.717""]","[1,0,1,1]",0,18,18,18,1,1,0,,,1,FALSE,,,,,,,,,,,,,,,,,,,,,,,,,,,,,,
,,001,2022-04-29_02h11.08.995,classification_task,2021.2.3,Win32,60.04202942,57ca4b09993b08000192297b,626b377229c10585ec392f8a,626b3af5dc10c79baf908995,,,,,,,,,,,,,,,,,,,,,,,a,1,0.8115,"[""0.254"",""0.518"",""0.623"",""0.427""]","[1,1,1,0]",0,19,19,19,1,0,1,,,1,FALSE,,,,,,,,,,,,,,,,,,,,,,,,,,,,,,
,,001,2022-04-29_02h11.08.995,classification_task,2021.2.3,Win32,60.04202942,57ca4b09993b08000192297b,626b377229c10585ec392f8a,626b3af5dc10c79baf908995,,,,,,,,,,,,,,,,,,,,,,,l,1,2.4619,"[""0.572"",""0.301"",""0.667"",""0.717""]","[0,1,1,1]",0,20,20,20,1,1,0,,,1,FALSE,,,,,,,,,,,,,,,,,,,,,,,,,,,,,,
,,001,2022-04-29_02h11.08.995,classification_task,2021.2.3,Win32,60.04202942,57ca4b09993b08000192297b,626b377229c10585ec392f8a,626b3af5dc10c79baf908995,,,,,,,,,,,,,,,,,,,,,,,l,1,1.5597,"[""0.145"",""0.301"",""0.667"",""0.438""]","[1,1,1,0]",0,21,21,21,1,1,0,,,1,FALSE,,,,,,,,,,,,,,,,,,,,,,,,,,,,,,
,,001,2022-04-29_02h11.08.995,classification_task,2021.2.3,Win32,60.04202942,57ca4b09993b08000192297b,626b377229c10585ec392f8a,626b3af5dc10c79baf908995,,,,,,,,,,,,,,,,,,,,,,,a,1,1.5964,"[""0.578"",""0.518"",""0.623"",""0.899""]","[0,1,1,1]",0,22,22,22,1,0,1,,,1,FALSE,,,,,,,,,,,,,,,,,,,,,,,,,,,,,,
,,001,2022-04-29_02h11.08.995,classification_task,2021.2.3,Win32,60.04202942,57ca4b09993b08000192297b,626b377229c10585ec392f8a,626b3af5dc10c79baf908995,,,,,,,,,,,,,,,,,,,,,,,a,1,1.6622,"[""0.211"",""0.581"",""0.852"",""0.938""]","[1,0,1,1]",0,23,23,23,1,0,0,,,1,FALSE,,,,,,,,,,,,,,,,,,,,,,,,,,,,,,
,,001,2022-04-29_02h11.08.995,classification_task,2021.2.3,Win32,60.04202942,57ca4b09993b08000192297b,626b377229c10585ec392f8a,626b3af5dc10c79baf908995,,,,,,,,,,,,,,,,,,,,,,,l,1,0.9152,"[""0.065"",""0.383"",""0.480"",""0.434""]","[1,1,1,0]",0,24,24,24,1,1,1,,,1,FALSE,,,,,,,,,,,,,,,,,,,,,,,,,,,,,,
,,001,2022-04-29_02h11.08.995,classification_task,2021.2.3,Win32,60.04202942,57ca4b09993b08000192297b,626b377229c10585ec392f8a,626b3af5dc10c79baf908995,,,,,,,,,,,,,,,,,,,,,,,l,0,2.2109,"[""0.568"",""0.346"",""0.852"",""0.938""]","[0,1,1,1]",0,25,25,25,1,0,0,,,1,FALSE,,,,,,,,,,,,,,,,,,,,,,,,,,,,,,
,,001,2022-04-29_02h11.08.995,classification_task,2021.2.3,Win32,60.04202942,57ca4b09993b08000192297b,626b377229c10585ec392f8a,626b3af5dc10c79baf908995,,,,,,,,,,,,,,,,,,,,,,,a,1,0.961,"[""0.254"",""0.518"",""0.109"",""0.899""]","[1,1,0,1]",0,26,26,26,1,0,1,,,1,FALSE,,,,,,,,,,,,,,,,,,,,,,,,,,,,,,
,,001,2022-04-29_02h11.08.995,classification_task,2021.2.3,Win32,60.04202942,57ca4b09993b08000192297b,626b377229c10585ec392f8a,626b3af5dc10c79baf908995,,,,,,,,,,,,,,,,,,,,,,,l,1,1.4599,"[""0.145"",""0.301"",""0.581"",""0.717""]","[1,1,0,1]",0,27,27,27,1,1,0,,,1,FALSE,,,,,,,,,,,,,,,,,,,,,,,,,,,,,,
,,001,2022-04-29_02h11.08.995,classification_task,2021.2.3,Win32,60.04202942,57ca4b09993b08000192297b,626b377229c10585ec392f8a,626b3af5dc10c79baf908995,,,,,,,,,,,,,,,,,,,,,,,l,1,0.9741,"[""0.065"",""0.383"",""0.427"",""0.792""]","[1,1,0,1]",0,28,28,28,1,1,1,,,1,FALSE,,,,,,,,,,,,,,,,,,,,,,,,,,,,,,
,,001,2022-04-29_02h11.08.995,classification_task,2021.2.3,Win32,60.04202942,57ca4b09993b08000192297b,626b377229c10585ec392f8a,626b3af5dc10c79baf908995,,,,,,,,,,,,,,,,,,,,,,,l,1,0.5162,"[""0.581"",""0.383"",""0.480"",""0.792""]","[0,1,1,1]",0,29,29,29,1,1,1,,,1,FALSE,,,,,,,,,,,,,,,,,,,,,,,,,,,,,,
,,001,2022-04-29_02h11.08.995,classification_task,2021.2.3,Win32,60.04202942,57ca4b09993b08000192297b,626b377229c10585ec392f8a,626b3af5dc10c79baf908995,,,,,,,,,,,,,,,,,,,,,,,a,1,1.3466,"[""0.211"",""0.346"",""0.852"",""0.418""]","[1,1,1,0]",0,30,30,30,1,0,0,,,1,FALSE,,,,,,,,,,,,,,,,,,,,,,,,,,,,,,
,,001,2022-04-29_02h11.08.995,classification_task,2021.2.3,Win32,60.04202942,57ca4b09993b08000192297b,626b377229c10585ec392f8a,626b3af5dc10c79baf908995,,,,,,,,,,,,,,,,,,,,,,,a,1,1.0334,"[""0.211"",""0.346"",""0.568"",""0.938""]","[1,1,0,1]",0,31,31,31,1,0,0,,,1,FALSE,,,,,,,,,,,,,,,,,,,,,,,,,,,,,,
,,001,2022-04-29_02h11.08.995,classification_task,2021.2.3,Win32,60.04202942,57ca4b09993b08000192297b,626b377229c10585ec392f8a,626b3af5dc10c79baf908995,,,,,,,,,,,,,,,,,,,,,,,a,1,1.6798,"[""0.434"",""0.518"",""0.623"",""0.899""]","[0,1,1,1]",0,32,32,32,1,0,1,,,1,FALSE,,,,,,,,,,,,,,,,,,,,,,,,,,,,,,
,,001,2022-04-29_02h11.08.995,classification_task,2021.2.3,Win32,60.04202942,57ca4b09993b08000192297b,626b377229c10585ec392f8a,626b3af5dc10c79baf908995,,,,,,,,,,,,,,,,,,,,,,,l,0,1.8491,"[""0.211"",""0.346"",""0.109"",""0.938""]","[1,1,0,1]",0,33,33,33,1,0,0,,,1,FALSE,,,,,,,,,,,,,,,,,,,,,,,,,,,,,,
,,001,2022-04-29_02h11.08.995,classification_task,2021.2.3,Win32,60.04202942,57ca4b09993b08000192297b,626b377229c10585ec392f8a,626b3af5dc10c79baf908995,,,,,,,,,,,,,,,,,,,,,,,a,1,0.7177,"[""0.211"",""0.099"",""0.852"",""0.938""]","[1,0,1,1]",0,34,34,34,1,0,0,,,1,FALSE,,,,,,,,,,,,,,,,,,,,,,,,,,,,,,
,,001,2022-04-29_02h11.08.995,classification_task,2021.2.3,Win32,60.04202942,57ca4b09993b08000192297b,626b377229c10585ec392f8a,626b3af5dc10c79baf908995,,,,,,,,,,,,,,,,,,,,,,,a,1,1.3842,"[""0.211"",""0.346"",""0.852"",""0.757""]","[1,1,1,0]",0,35,35,35,1,0,0,,,1,FALSE,,,,,,,,,,,,,,,,,,,,,,,,,,,,,,
,,001,2022-04-29_02h11.08.995,classification_task,2021.2.3,Win32,60.04202942,57ca4b09993b08000192297b,626b377229c10585ec392f8a,626b3af5dc10c79baf908995,,,,,,,,,,,,,,,,,,,,,,,l,1,1.1292,"[""0.065"",""0.383"",""0.480"",""0.099""]","[1,1,1,0]",0,36,36,36,1,1,1,,,1,FALSE,,,,,,,,,,,,,,,,,,,,,,,,,,,,,,
,,001,2022-04-29_02h11.08.995,classification_task,2021.2.3,Win32,60.04202942,57ca4b09993b08000192297b,626b377229c10585ec392f8a,626b3af5dc10c79baf908995,,,,,,,,,,,,,,,,,,,,,,,l,1,1.3954,"[""0.145"",""0.427"",""0.667"",""0.717""]","[1,0,1,1]",0,37,37,37,1,1,0,,,1,FALSE,,,,,,,,,,,,,,,,,,,,,,,,,,,,,,
,,001,2022-04-29_02h11.08.995,classification_task,2021.2.3,Win32,60.04202942,57ca4b09993b08000192297b,626b377229c10585ec392f8a,626b3af5dc10c79baf908995,,,,,,,,,,,,,,,,,,,,,,,l,1,1.0618,"[""0.145"",""0.301"",""0.434"",""0.717""]","[1,1,0,1]",0,38,38,38,1,1,0,,,1,FALSE,,,,,,,,,,,,,,,,,,,,,,,,,,,,,,
,,001,2022-04-29_02h11.08.995,classification_task,2021.2.3,Win32,60.04202942,57ca4b09993b08000192297b,626b377229c10585ec392f8a,626b3af5dc10c79baf908995,,,,,,,,,,,,,,,,,,,,,,,l,1,1.0006,"[""0.065"",""0.383"",""0.429"",""0.792""]","[1,1,0,1]",0,39,39,39,1,1,1,,,1,FALSE,,,,,,,,,,,,,,,,,,,,,,,,,,,,,,
,,001,2022-04-29_02h11.08.995,classification_task,2021.2.3,Win32,60.04202942,57ca4b09993b08000192297b,626b377229c10585ec392f8a,626b3af5dc10c79baf908995,,,,,,,,,,,,,,,,,,,,,,,a,1,0.8351,"[""0.254"",""0.099"",""0.623"",""0.899""]","[1,0,1,1]",0,40,40,40,1,0,1,,,1,FALSE,,,,,,,,,,,,,,,,,,,,,,,,,,,,,,
,,001,2022-04-29_02h11.08.995,classification_task,2021.2.3,Win32,60.04202942,57ca4b09993b08000192297b,626b377229c10585ec392f8a,626b3af5dc10c79baf908995,,,,,,,,,,,,,,,,,,,,,,,a,1,0.5331,"[""0.254"",""0.518"",""0.099"",""0.899""]","[1,1,0,1]",0,41,41,41,1,0,1,,,1,FALSE,,,,,,,,,,,,,,,,,,,,,,,,,,,,,,
,,001,2022-04-29_02h11.08.995,classification_task,2021.2.3,Win32,60.04202942,57ca4b09993b08000192297b,626b377229c10585ec392f8a,626b3af5dc10c79baf908995,,,,,,,,,,,,,,,,,,,,,,,l,0,1.7636,"[""0.109"",""0.346"",""0.852"",""0.938""]","[0,1,1,1]",0,42,42,42,1,0,0,,,1,FALSE,,,,,,,,,,,,,,,,,,,,,,,,,,,,,,
,,001,2022-04-29_02h11.08.995,classification_task,2021.2.3,Win32,60.04202942,57ca4b09993b08000192297b,626b377229c10585ec392f8a,626b3af5dc10c79baf908995,,,,,,,,,,,,,,,,,,,,,,,l,1,1.7667,"[""0.145"",""0.301"",""0.667"",""0.578""]","[1,1,1,0]",0,43,43,43,1,1,0,,,1,FALSE,,,,,,,,,,,,,,,,,,,,,,,,,,,,,,
,,001,2022-04-29_02h11.08.995,classification_task,2021.2.3,Win32,60.04202942,57ca4b09993b08000192297b,626b377229c10585ec392f8a,626b3af5dc10c79baf908995,,,,,,,,,,,,,,,,,,,,,,,l,1,0.9688,"[""0.757"",""0.383"",""0.480"",""0.792""]","[0,1,1,1]",0,44,44,44,1,1,1,,,1,FALSE,,,,,,,,,,,,,,,,,,,,,,,,,,,,,,
,,001,2022-04-29_02h11.08.995,classification_task,2021.2.3,Win32,60.04202942,57ca4b09993b08000192297b,626b377229c10585ec392f8a,626b3af5dc10c79baf908995,,,,,,,,,,,,,,,,,,,,,,,a,1,0.6818,"[""0.254"",""0.518"",""0.623"",""0.584""]","[1,1,1,0]",0,45,45,45,1,0,1,,,1,FALSE,,,,,,,,,,,,,,,,,,,,,,,,,,,,,,
,,001,2022-04-29_02h11.08.995,classification_task,2021.2.3,Win32,60.04202942,57ca4b09993b08000192297b,626b377229c10585ec392f8a,626b3af5dc10c79baf908995,,,,,,,,,,,,,,,,,,,,,,,l,1,0.7029,"[""0.065"",""0.757"",""0.480"",""0.792""]","[1,0,1,1]",0,46,46,46,1,1,1,,,1,FALSE,,,,,,,,,,,,,,,,,,,,,,,,,,,,,,
,,001,2022-04-29_02h11.08.995,classification_task,2021.2.3,Win32,60.04202942,57ca4b09993b08000192297b,626b377229c10585ec392f8a,626b3af5dc10c79baf908995,,,,,,,,,,,,,,,,,,,,,,,a,0,2.7331,"[""0.434"",""0.301"",""0.667"",""0.717""]","[0,1,1,1]",0,47,47,47,1,1,0,,,1,FALSE,,,,,,,,,,,,,,,,,,,,,,,,,,,,,,
,,001,2022-04-29_02h11.08.995,classification_task,2021.2.3,Win32,60.04202942,57ca4b09993b08000192297b,626b377229c10585ec392f8a,626b3af5dc10c79baf908995,,,,,,,,,,,,,,,,,,,,,,,l,1,1.8623,"[""0.065"",""0.383"",""0.418"",""0.792""]","[1,1,0,1]",0,48,48,48,1,1,1,,,1,FALSE,,,,,,,,,,,,,,,,,,,,,,,,,,,,,,
,,001,2022-04-29_02h11.08.995,classification_task,2021.2.3,Win32,60.04202942,57ca4b09993b08000192297b,626b377229c10585ec392f8a,626b3af5dc10c79baf908995,,,,,,,,,,,,,,,,,,,,,,,l,0,1.8781,"[""0.254"",""0.438"",""0.623"",""0.899""]","[1,0,1,1]",0,49,49,49,1,0,1,,,1,FALSE,,,,,,,,,,,,,,,,,,,,,,,,,,,,,,
,,001,2022-04-29_02h11.08.995,classification_task,2021.2.3,Win32,60.04202942,57ca4b09993b08000192297b,626b377229c10585ec392f8a,626b3af5dc10c79baf908995,,,,,,,,,,,,,,,,,,,,,,,a,1,0.8347,"[""0.254"",""0.518"",""0.623"",""0.757""]","[1,1,1,0]",0,50,50,50,1,0,1,,,1,FALSE,,,,,,,,,,,,,,,,,,,,,,,,,,,,,,
,,001,2022-04-29_02h11.08.995,classification_task,2021.2.3,Win32,60.04202942,57ca4b09993b08000192297b,626b377229c10585ec392f8a,626b3af5dc10c79baf908995,,,,,,,,,,,,,,,,,,,,,,,a,1,1.751,"[""0.418"",""0.518"",""0.623"",""0.899""]","[0,1,1,1]",0,51,51,51,1,0,1,,,1,FALSE,,,,,,,,,,,,,,,,,,,,,,,,,,,,,,
,,001,2022-04-29_02h11.08.995,classification_task,2021.2.3,Win32,60.04202942,57ca4b09993b08000192297b,626b377229c10585ec392f8a,626b3af5dc10c79baf908995,,,,,,,,,,,,,,,,,,,,,,,l,1,2.0462,"[""0.584"",""0.301"",""0.667"",""0.717""]","[0,1,1,1]",0,52,52,52,1,1,0,,,1,FALSE,,,,,,,,,,,,,,,,,,,,,,,,,,,,,,
,,001,2022-04-29_02h11.08.995,classification_task,2021.2.3,Win32,60.04202942,57ca4b09993b08000192297b,626b377229c10585ec392f8a,626b3af5dc10c79baf908995,,,,,,,,,,,,,,,,,,,,,,,l,1,1.6588,"[""0.145"",""0.301"",""0.667"",""0.418""]","[1,1,1,0]",0,53,53,53,1,1,0,,,1,FALSE,,,,,,,,,,,,,,,,,,,,,,,,,,,,,,
,,001,2022-04-29_02h11.08.995,classification_task,2021.2.3,Win32,60.04202942,57ca4b09993b08000192297b,626b377229c10585ec392f8a,626b3af5dc10c79baf908995,,,,,,,,,,,,,,,,,,,,,,,a,1,0.9363,"[""0.211"",""0.427"",""0.852"",""0.938""]","[1,0,1,1]",0,54,54,54,1,0,0,,,1,FALSE,,,,,,,,,,,,,,,,,,,,,,,,,,,,,,
,,001,2022-04-29_02h11.08.995,classification_task,2021.2.3,Win32,60.04202942,57ca4b09993b08000192297b,626b377229c10585ec392f8a,626b3af5dc10c79baf908995,,,,,,,,,,,,,,,,,,,,,,,a,1,1.7275,"[""0.254"",""0.518"",""0.418"",""0.899""]","[1,1,0,1]",0,55,55,55,1,0,1,,,1,FALSE,,,,,,,,,,,,,,,,,,,,,,,,,,,,,,
,,001,2022-04-29_02h11.08.995,classification_task,2021.2.3,Win32,60.04202942,57ca4b09993b08000192297b,626b377229c10585ec392f8a,626b3af5dc10c79baf908995,,,,,,,,,,,,,,,,,,,,,,,l,1,1.6748,"[""0.065"",""0.099"",""0.480"",""0.792""]","[1,0,1,1]",0,56,56,56,1,1,1,,,1,FALSE,,,,,,,,,,,,,,,,,,,,,,,,,,,,,,
,,001,2022-04-29_02h11.08.995,classification_task,2021.2.3,Win32,60.04202942,57ca4b09993b08000192297b,626b377229c10585ec392f8a,626b3af5dc10c79baf908995,,,,,,,,,,,,,,,,,,,,,,,l,1,1.3124,"[""0.145"",""0.301"",""0.572"",""0.717""]","[1,1,0,1]",0,57,57,57,1,1,0,,,1,FALSE,,,,,,,,,,,,,,,,,,,,,,,,,,,,,,
,,001,2022-04-29_02h11.08.995,classification_task,2021.2.3,Win32,60.04202942,57ca4b09993b08000192297b,626b377229c10585ec392f8a,626b3af5dc10c79baf908995,,,,,,,,,,,,,,,,,,,,,,,l,1,0.6973,"[""0.145"",""0.434"",""0.667"",""0.717""]","[1,0,1,1]",0,58,58,58,1,1,0,,,1,FALSE,,,,,,,,,,,,,,,,,,,,,,,,,,,,,,
,,001,2022-04-29_02h11.08.995,classification_task,2021.2.3,Win32,60.04202942,57ca4b09993b08000192297b,626b377229c10585ec392f8a,626b3af5dc10c79baf908995,,,,,,,,,,,,,,,,,,,,,,,a,1,1.57,"[""0.422"",""0.346"",""0.852"",""0.938""]","[0,1,1,1]",0,59,59,59,1,0,0,,,1,FALSE,,,,,,,,,,,,,,,,,,,,,,,,,,,,,,
,,001,2022-04-29_02h11.08.995,classification_task,2021.2.3,Win32,60.04202942,57ca4b09993b08000192297b,626b377229c10585ec392f8a,626b3af5dc10c79baf908995,,,,,,,,,,,,,,,,,,,,,,,a,0,0.8464,"[""0.584"",""0.383"",""0.480"",""0.792""]","[0,1,1,1]",0,60,60,60,1,1,1,,,1,FALSE,,,,,,,,,,,,,,,,,,,,,,,,,,,,,,
,,001,2022-04-29_02h11.08.995,classification_task,2021.2.3,Win32,60.04202942,57ca4b09993b08000192297b,626b377229c10585ec392f8a,626b3af5dc10c79baf908995,,,,,,,,,,,,,,,,,,,,,,,l,1,1.1813,"[""0.065"",""0.383"",""0.480"",""0.109""]","[1,1,1,0]",0,61,61,61,1,1,1,,,1,FALSE,,,,,,,,,,,,,,,,,,,,,,,,,,,,,,
,,001,2022-04-29_02h11.08.995,classification_task,2021.2.3,Win32,60.04202942,57ca4b09993b08000192297b,626b377229c10585ec392f8a,626b3af5dc10c79baf908995,,,,,,,,,,,,,,,,,,,,,,,a,1,1.5433,"[""0.211"",""0.346"",""0.852"",""0.568""]","[1,1,1,0]",0,62,62,62,1,0,0,,,1,FALSE,,,,,,,,,,,,,,,,,,,,,,,,,,,,,,
,,001,2022-04-29_02h11.08.995,classification_task,2021.2.3,Win32,60.04202942,57ca4b09993b08000192297b,626b377229c10585ec392f8a,626b3af5dc10c79baf908995,,,,,,,,,,,,,,,,,,,,,,,a,1,0.6795,"[""0.211"",""0.346"",""0.572"",""0.938""]","[1,1,0,1]",0,63,63,63,1,0,0,,,1,FALSE,,,,,,,,,,,,,,,,,,,,,,,,,,,,,,
,,001,2022-04-29_02h11.08.995,classification_task,2021.2.3,Win32,60.04202942,57ca4b09993b08000192297b,626b377229c10585ec392f8a,626b3af5dc10c79baf908995,,,,,,,,,,,,,,,,,,,,,,,,,,,,,,,,,,,,,,,0, ,,0,6.9106408,176.1731,0,1,1,1,1,2,2,,,,,,,,,,,,,,,,,
,,001,2022-04-29_02h11.08.995,classification_task,2021.2.3,Win32,60.04202942,57ca4b09993b08000192297b,626b377229c10585ec392f8a,626b3af5dc10c79baf908995,,,,,,,,,,,,,,,,,,,,,,,,,,,,,,,,,,,,,,,1,  ,,0,7.694493435,182.3592,0,1,1,1,1,2,2,,,,,,,,,,,,,,,,,
,,001,2022-04-29_02h11.08.995,classification_task,2021.2.3,Win32,60.04202942,57ca4b09993b08000192297b,626b377229c10585ec392f8a,626b3af5dc10c79baf908995,,,,,,,,,,,,,,,,,,,,,,,,,,,,,,,,,,,,,,,2,  ,,0,2.795414462,179.1229,0,1,1,1,1,2,2,,,,,,,,,,,,,,,,,
,,001,2022-04-29_02h11.08.995,classification_task,2021.2.3,Win32,60.04202942,57ca4b09993b08000192297b,626b377229c10585ec392f8a,626b3af5dc10c79baf908995,,,,,,,,,,,,,,,,,,,,,,,,,,,,,,,,,,,,,,,,,,,,,0,1,1,1,1,,2,,,,,,,,,,,,,,,,,
,,001,2022-04-29_02h11.08.995,classification_task,2021.2.3,Win32,60.04202942,57ca4b09993b08000192297b,626b377229c10585ec392f8a,626b3af5dc10c79baf908995,,,,,,,,,,,,,,,,,,,,,space,13.4492,a,1,1.1992,"[""0.211"",""0.346"",""0.568"",""0.938""]","[1,1,0,1]",0,0,0,0,1,0,0,,,1,FALSE,,,,,,,,,,,,,,,,,,,,,,,,,,,,,,
,,001,2022-04-29_02h11.08.995,classification_task,2021.2.3,Win32,60.04202942,57ca4b09993b08000192297b,626b377229c10585ec392f8a,626b3af5dc10c79baf908995,,,,,,,,,,,,,,,,,,,,,,,l,0,1.516,"[""0.254"",""0.099"",""0.623"",""0.899""]","[1,0,1,1]",0,1,1,1,1,0,1,,,1,FALSE,,,,,,,,,,,,,,,,,,,,,,,,,,,,,,
,,001,2022-04-29_02h11.08.995,classification_task,2021.2.3,Win32,60.04202942,57ca4b09993b08000192297b,626b377229c10585ec392f8a,626b3af5dc10c79baf908995,,,,,,,,,,,,,,,,,,,,,,,l,1,1.3814,"[""0.065"",""0.585"",""0.480"",""0.792""]","[1,0,1,1]",0,2,2,2,1,1,1,,,1,FALSE,,,,,,,,,,,,,,,,,,,,,,,,,,,,,,
,,001,2022-04-29_02h11.08.995,classification_task,2021.2.3,Win32,60.04202942,57ca4b09993b08000192297b,626b377229c10585ec392f8a,626b3af5dc10c79baf908995,,,,,,,,,,,,,,,,,,,,,,,a,1,2.0006,"[""0.585"",""0.346"",""0.852"",""0.938""]","[0,1,1,1]",0,3,3,3,1,0,0,,,1,FALSE,,,,,,,,,,,,,,,,,,,,,,,,,,,,,,
,,001,2022-04-29_02h11.08.995,classification_task,2021.2.3,Win32,60.04202942,57ca4b09993b08000192297b,626b377229c10585ec392f8a,626b3af5dc10c79baf908995,,,,,,,,,,,,,,,,,,,,,,,l,1,1.4913,"[""0.145"",""0.301"",""0.584"",""0.717""]","[1,1,0,1]",0,4,4,4,1,1,0,,,1,FALSE,,,,,,,,,,,,,,,,,,,,,,,,,,,,,,
,,001,2022-04-29_02h11.08.995,classification_task,2021.2.3,Win32,60.04202942,57ca4b09993b08000192297b,626b377229c10585ec392f8a,626b3af5dc10c79baf908995,,,,,,,,,,,,,,,,,,,,,,,a,1,0.9314,"[""0.211"",""0.346"",""0.852"",""0.427""]","[1,1,1,0]",0,5,5,5,1,0,0,,,1,FALSE,,,,,,,,,,,,,,,,,,,,,,,,,,,,,,
,,001,2022-04-29_02h11.08.995,classification_task,2021.2.3,Win32,60.04202942,57ca4b09993b08000192297b,626b377229c10585ec392f8a,626b3af5dc10c79baf908995,,,,,,,,,,,,,,,,,,,,,,,a,0,1.1656,"[""0.422"",""0.301"",""0.667"",""0.717""]","[0,1,1,1]",0,6,6,6,1,1,0,,,1,FALSE,,,,,,,,,,,,,,,,,,,,,,,,,,,,,,
,,001,2022-04-29_02h11.08.995,classification_task,2021.2.3,Win32,60.04202942,57ca4b09993b08000192297b,626b377229c10585ec392f8a,626b3af5dc10c79baf908995,,,,,,,,,,,,,,,,,,,,,,,l,1,1.2833,"[""0.065"",""0.383"",""0.480"",""0.099""]","[1,1,1,0]",0,7,7,7,1,1,1,,,1,FALSE,,,,,,,,,,,,,,,,,,,,,,,,,,,,,,
,,001,2022-04-29_02h11.08.995,classification_task,2021.2.3,Win32,60.04202942,57ca4b09993b08000192297b,626b377229c10585ec392f8a,626b3af5dc10c79baf908995,,,,,,,,,,,,,,,,,,,,,,,l,1,1.3995,"[""0.145"",""0.301"",""0.667"",""0.438""]","[1,1,1,0]",0,8,8,8,1,1,0,,,1,FALSE,,,,,,,,,,,,,,,,,,,,,,,,,,,,,,
,,001,2022-04-29_02h11.08.995,classification_task,2021.2.3,Win32,60.04202942,57ca4b09993b08000192297b,626b377229c10585ec392f8a,626b3af5dc10c79baf908995,,,,,,,,,,,,,,,,,,,,,,,l,1,0.8152,"[""0.145"",""0.585"",""0.667"",""0.717""]","[1,0,1,1]",0,9,9,9,1,1,0,,,1,FALSE,,,,,,,,,,,,,,,,,,,,,,,,,,,,,,
,,001,2022-04-29_02h11.08.995,classification_task,2021.2.3,Win32,60.04202942,57ca4b09993b08000192297b,626b377229c10585ec392f8a,626b3af5dc10c79baf908995,,,,,,,,,,,,,,,,,,,,,,,a,0,1.567,"[""0.434"",""0.383"",""0.480"",""0.792""]","[0,1,1,1]",0,10,10,10,1,1,1,,,1,FALSE,,,,,,,,,,,,,,,,,,,,,,,,,,,,,,
,,001,2022-04-29_02h11.08.995,classification_task,2021.2.3,Win32,60.04202942,57ca4b09993b08000192297b,626b377229c10585ec392f8a,626b3af5dc10c79baf908995,,,,,,,,,,,,,,,,,,,,,,,a,1,2.8163,"[""0.109"",""0.518"",""0.623"",""0.899""]","[0,1,1,1]",0,11,11,11,1,0,1,,,1,FALSE,,,,,,,,,,,,,,,,,,,,,,,,,,,,,,
,,001,2022-04-29_02h11.08.995,classification_task,2021.2.3,Win32,60.04202942,57ca4b09993b08000192297b,626b377229c10585ec392f8a,626b3af5dc10c79baf908995,,,,,,,,,,,,,,,,,,,,,,,l,0,1.601,"[""0.254"",""0.518"",""0.585"",""0.899""]","[1,1,0,1]",0,12,12,12,1,0,1,,,1,FALSE,,,,,,,,,,,,,,,,,,,,,,,,,,,,,,
,,001,2022-04-29_02h11.08.995,classification_task,2021.2.3,Win32,60.04202942,57ca4b09993b08000192297b,626b377229c10585ec392f8a,626b3af5dc10c79baf908995,,,,,,,,,,,,,,,,,,,,,,,l,1,1.685,"[""0.065"",""0.383"",""0.438"",""0.792""]","[1,1,0,1]",0,13,13,13,1,1,1,,,1,FALSE,,,,,,,,,,,,,,,,,,,,,,,,,,,,,,
,,001,2022-04-29_02h11.08.995,classification_task,2021.2.3,Win32,60.04202942,57ca4b09993b08000192297b,626b377229c10585ec392f8a,626b3af5dc10c79baf908995,,,,,,,,,,,,,,,,,,,,,,,l,0,1.6509,"[""0.254"",""0.518"",""0.623"",""0.434""]","[1,1,1,0]",0,14,14,14,1,0,1,,,1,FALSE,,,,,,,,,,,,,,,,,,,,,,,,,,,,,,
,,001,2022-04-29_02h11.08.995,classification_task,2021.2.3,Win32,60.04202942,57ca4b09993b08000192297b,626b377229c10585ec392f8a,626b3af5dc10c79baf908995,,,,,,,,,,,,,,,,,,,,,,,a,1,1.4319,"[""0.211"",""0.429"",""0.852"",""0.938""]","[1,0,1,1]",0,15,15,15,1,0,0,,,1,FALSE,,,,,,,,,,,,,,,,,,,,,,,,,,,,,,
,,001,2022-04-29_02h11.08.995,classification_task,2021.2.3,Win32,60.04202942,57ca4b09993b08000192297b,626b377229c10585ec392f8a,626b3af5dc10c79baf908995,,,,,,,,,,,,,,,,,,,,,,,l,1,1.1983,"[""0.065"",""0.383"",""0.429"",""0.792""]","[1,1,0,1]",0,16,16,16,1,1,1,,,1,FALSE,,,,,,,,,,,,,,,,,,,,,,,,,,,,,,
,,001,2022-04-29_02h11.08.995,classification_task,2021.2.3,Win32,60.04202942,57ca4b09993b08000192297b,626b377229c10585ec392f8a,626b3af5dc10c79baf908995,,,,,,,,,,,,,,,,,,,,,,,l,0,2.3823,"[""0.254"",""0.518"",""0.418"",""0.899""]","[1,1,0,1]",0,17,17,17,1,0,1,,,1,FALSE,,,,,,,,,,,,,,,,,,,,,,,,,,,,,,
,,001,2022-04-29_02h11.08.995,classification_task,2021.2.3,Win32,60.04202942,57ca4b09993b08000192297b,626b377229c10585ec392f8a,626b3af5dc10c79baf908995,,,,,,,,,,,,,,,,,,,,,,,a,1,1.4504,"[""0.211"",""0.346"",""0.572"",""0.938""]","[1,1,0,1]",0,18,18,18,1,0,0,,,1,FALSE,,,,,,,,,,,,,,,,,,,,,,,,,,,,,,
,,001,2022-04-29_02h11.08.995,classification_task,2021.2.3,Win32,60.04202942,57ca4b09993b08000192297b,626b377229c10585ec392f8a,626b3af5dc10c79baf908995,,,,,,,,,,,,,,,,,,,,,,,l,1,1.0491,"[""0.145"",""0.301"",""0.584"",""0.717""]","[1,1,0,1]",0,19,19,19,1,1,0,,,1,FALSE,,,,,,,,,,,,,,,,,,,,,,,,,,,,,,
,,001,2022-04-29_02h11.08.995,classification_task,2021.2.3,Win32,60.04202942,57ca4b09993b08000192297b,626b377229c10585ec392f8a,626b3af5dc10c79baf908995,,,,,,,,,,,,,,,,,,,,,,,l,0,3.6821,"[""0.254"",""0.518"",""0.623"",""0.434""]","[1,1,1,0]",0,20,20,20,1,0,1,,,1,FALSE,,,,,,,,,,,,,,,,,,,,,,,,,,,,,,
,,001,2022-04-29_02h11.08.995,classification_task,2021.2.3,Win32,60.04202942,57ca4b09993b08000192297b,626b377229c10585ec392f8a,626b3af5dc10c79baf908995,,,,,,,,,,,,,,,,,,,,,,,a,0,1.867,"[""0.585"",""0.301"",""0.667"",""0.717""]","[0,1,1,1]",0,21,21,21,1,1,0,,,1,FALSE,,,,,,,,,,,,,,,,,,,,,,,,,,,,,,
,,001,2022-04-29_02h11.08.995,classification_task,2021.2.3,Win32,60.04202942,57ca4b09993b08000192297b,626b377229c10585ec392f8a,626b3af5dc10c79baf908995,,,,,,,,,,,,,,,,,,,,,,,l,1,1.4835,"[""0.065"",""0.383"",""0.480"",""0.427""]","[1,1,1,0]",0,22,22,22,1,1,1,,,1,FALSE,,,,,,,,,,,,,,,,,,,,,,,,,,,,,,
,,001,2022-04-29_02h11.08.995,classification_task,2021.2.3,Win32,60.04202942,57ca4b09993b08000192297b,626b377229c10585ec392f8a,626b3af5dc10c79baf908995,,,,,,,,,,,,,,,,,,,,,,,a,1,1.151,"[""0.211"",""0.438"",""0.852"",""0.938""]","[1,0,1,1]",0,23,23,23,1,0,0,,,1,FALSE,,,,,,,,,,,,,,,,,,,,,,,,,,,,,,
,,001,2022-04-29_02h11.08.995,classification_task,2021.2.3,Win32,60.04202942,57ca4b09993b08000192297b,626b377229c10585ec392f8a,626b3af5dc10c79baf908995,,,,,,,,,,,,,,,,,,,,,,,a,0,1.2672,"[""0.584"",""0.383"",""0.480"",""0.792""]","[0,1,1,1]",0,24,24,24,1,1,1,,,1,FALSE,,,,,,,,,,,,,,,,,,,,,,,,,,,,,,
,,001,2022-04-29_02h11.08.995,classification_task,2021.2.3,Win32,60.04202942,57ca4b09993b08000192297b,626b377229c10585ec392f8a,626b3af5dc10c79baf908995,,,,,,,,,,,,,,,,,,,,,,,a,1,1.9826,"[""0.211"",""0.346"",""0.852"",""0.109""]","[1,1,1,0]",0,25,25,25,1,0,0,,,1,FALSE,,,,,,,,,,,,,,,,,,,,,,,,,,,,,,
,,001,2022-04-29_02h11.08.995,classification_task,2021.2.3,Win32,60.04202942,57ca4b09993b08000192297b,626b377229c10585ec392f8a,626b3af5dc10c79baf908995,,,,,,,,,,,,,,,,,,,,,,,a,1,1.9151,"[""0.572"",""0.346"",""0.852"",""0.938""]","[0,1,1,1]",0,26,26,26,1,0,0,,,1,FALSE,,,,,,,,,,,,,,,,,,,,,,,,,,,,,,
,,001,2022-04-29_02h11.08.995,classification_task,2021.2.3,Win32,60.04202942,57ca4b09993b08000192297b,626b377229c10585ec392f8a,626b3af5dc10c79baf908995,,,,,,,,,,,,,,,,,,,,,,,l,0,1.9564,"[""0.254"",""0.585"",""0.623"",""0.899""]","[1,0,1,1]",0,27,27,27,1,0,1,,,1,FALSE,,,,,,,,,,,,,,,,,,,,,,,,,,,,,,
,,001,2022-04-29_02h11.08.995,classification_task,2021.2.3,Win32,60.04202942,57ca4b09993b08000192297b,626b377229c10585ec392f8a,626b3af5dc10c79baf908995,,,,,,,,,,,,,,,,,,,,,,,l,1,1.2841,"[""0.065"",""0.585"",""0.480"",""0.792""]","[1,0,1,1]",0,28,28,28,1,1,1,,,1,FALSE,,,,,,,,,,,,,,,,,,,,,,,,,,,,,,
,,001,2022-04-29_02h11.08.995,classification_task,2021.2.3,Win32,60.04202942,57ca4b09993b08000192297b,626b377229c10585ec392f8a,626b3af5dc10c79baf908995,,,,,,,,,,,,,,,,,,,,,,,l,1,2.5664,"[""0.145"",""0.301"",""0.667"",""0.099""]","[1,1,1,0]",0,29,29,29,1,1,0,,,1,FALSE,,,,,,,,,,,,,,,,,,,,,,,,,,,,,,
,,001,2022-04-29_02h11.08.995,classification_task,2021.2.3,Win32,60.04202942,57ca4b09993b08000192297b,626b377229c10585ec392f8a,626b3af5dc10c79baf908995,,,,,,,,,,,,,,,,,,,,,,,a,1,3.3012,"[""0.109"",""0.518"",""0.623"",""0.899""]","[0,1,1,1]",0,30,30,30,1,0,1,,,1,FALSE,,,,,,,,,,,,,,,,,,,,,,,,,,,,,,
,,001,2022-04-29_02h11.08.995,classification_task,2021.2.3,Win32,60.04202942,57ca4b09993b08000192297b,626b377229c10585ec392f8a,626b3af5dc10c79baf908995,,,,,,,,,,,,,,,,,,,,,,,l,1,1.8492,"[""0.145"",""0.427"",""0.667"",""0.717""]","[1,0,1,1]",0,31,31,31,1,1,0,,,1,FALSE,,,,,,,,,,,,,,,,,,,,,,,,,,,,,,
,,001,2022-04-29_02h11.08.995,classification_task,2021.2.3,Win32,60.04202942,57ca4b09993b08000192297b,626b377229c10585ec392f8a,626b3af5dc10c79baf908995,,,,,,,,,,,,,,,,,,,,,,,a,1,1.7675,"[""0.254"",""0.518"",""0.623"",""0.422""]","[1,1,1,0]",0,32,32,32,1,0,1,,,1,FALSE,,,,,,,,,,,,,,,,,,,,,,,,,,,,,,
,,001,2022-04-29_02h11.08.995,classification_task,2021.2.3,Win32,60.04202942,57ca4b09993b08000192297b,626b377229c10585ec392f8a,626b3af5dc10c79baf908995,,,,,,,,,,,,,,,,,,,,,,,l,1,1.6838,"[""0.145"",""0.301"",""0.667"",""0.429""]","[1,1,1,0]",0,33,33,33,1,1,0,,,1,FALSE,,,,,,,,,,,,,,,,,,,,,,,,,,,,,,
,,001,2022-04-29_02h11.08.995,classification_task,2021.2.3,Win32,60.04202942,57ca4b09993b08000192297b,626b377229c10585ec392f8a,626b3af5dc10c79baf908995,,,,,,,,,,,,,,,,,,,,,,,l,1,0.7159,"[""0.145"",""0.422"",""0.667"",""0.717""]","[1,0,1,1]",0,34,34,34,1,1,0,,,1,FALSE,,,,,,,,,,,,,,,,,,,,,,,,,,,,,,
,,001,2022-04-29_02h11.08.995,classification_task,2021.2.3,Win32,60.04202942,57ca4b09993b08000192297b,626b377229c10585ec392f8a,626b3af5dc10c79baf908995,,,,,,,,,,,,,,,,,,,,,,,l,0,1.4185,"[""0.254"",""0.518"",""0.757"",""0.899""]","[1,1,0,1]",0,35,35,35,1,0,1,,,1,FALSE,,,,,,,,,,,,,,,,,,,,,,,,,,,,,,
,,001,2022-04-29_02h11.08.995,classification_task,2021.2.3,Win32,60.04202942,57ca4b09993b08000192297b,626b377229c10585ec392f8a,626b3af5dc10c79baf908995,,,,,,,,,,,,,,,,,,,,,,,l,1,1.3494,"[""0.065"",""0.383"",""0.109"",""0.792""]","[1,1,0,1]",0,36,36,36,1,1,1,,,1,FALSE,,,,,,,,,,,,,,,,,,,,,,,,,,,,,,
,,001,2022-04-29_02h11.08.995,classification_task,2021.2.3,Win32,60.04202942,57ca4b09993b08000192297b,626b377229c10585ec392f8a,626b3af5dc10c79baf908995,,,,,,,,,,,,,,,,,,,,,,,a,1,1.1144,"[""0.211"",""0.346"",""0.852"",""0.418""]","[1,1,1,0]",0,37,37,37,1,0,0,,,1,FALSE,,,,,,,,,,,,,,,,,,,,,,,,,,,,,,
,,001,2022-04-29_02h11.08.995,classification_task,2021.2.3,Win32,60.04202942,57ca4b09993b08000192297b,626b377229c10585ec392f8a,626b3af5dc10c79baf908995,,,,,,,,,,,,,,,,,,,,,,,a,0,1.349,"[""0.422"",""0.383"",""0.480"",""0.792""]","[0,1,1,1]",0,38,38,38,1,1,1,,,1,FALSE,,,,,,,,,,,,,,,,,,,,,,,,,,,,,,
,,001,2022-04-29_02h11.08.995,classification_task,2021.2.3,Win32,60.04202942,57ca4b09993b08000192297b,626b377229c10585ec392f8a,626b3af5dc10c79baf908995,,,,,,,,,,,,,,,,,,,,,,,l,1,1.1832,"[""0.145"",""0.301"",""0.434"",""0.717""]","[1,1,0,1]",0,39,39,39,1,1,0,,,1,FALSE,,,,,,,,,,,,,,,,,,,,,,,,,,,,,,
,,001,2022-04-29_02h11.08.995,classification_task,2021.2.3,Win32,60.04202942,57ca4b09993b08000192297b,626b377229c10585ec392f8a,626b3af5dc10c79baf908995,,,,,,,,,,,,,,,,,,,,,,,a,1,2.0494,"[""0.211"",""0.346"",""0.109"",""0.938""]","[1,1,0,1]",0,40,40,40,1,0,0,,,1,FALSE,,,,,,,,,,,,,,,,,,,,,,,,,,,,,,
,,001,2022-04-29_02h11.08.995,classification_task,2021.2.3,Win32,60.04202942,57ca4b09993b08000192297b,626b377229c10585ec392f8a,626b3af5dc10c79baf908995,,,,,,,,,,,,,,,,,,,,,,,l,1,1.3512,"[""0.065"",""0.383"",""0.480"",""0.427""]","[1,1,1,0]",0,41,41,41,1,1,1,,,1,FALSE,,,,,,,,,,,,,,,,,,,,,,,,,,,,,,
,,001,2022-04-29_02h11.08.995,classification_task,2021.2.3,Win32,60.04202942,57ca4b09993b08000192297b,626b377229c10585ec392f8a,626b3af5dc10c79baf908995,,,,,,,,,,,,,,,,,,,,,,,a,1,1.3506,"[""0.572"",""0.518"",""0.623"",""0.899""]","[0,1,1,1]",0,42,42,42,1,0,1,,,1,FALSE,,,,,,,,,,,,,,,,,,,,,,,,,,,,,,
,,001,2022-04-29_02h11.08.995,classification_task,2021.2.3,Win32,60.04202942,57ca4b09993b08000192297b,626b377229c10585ec392f8a,626b3af5dc10c79baf908995,,,,,,,,,,,,,,,,,,,,,,,l,0,2.7491,"[""0.254"",""0.422"",""0.623"",""0.899""]","[1,0,1,1]",0,43,43,43,1,0,1,,,1,FALSE,,,,,,,,,,,,,,,,,,,,,,,,,,,,,,
,,001,2022-04-29_02h11.08.995,classification_task,2021.2.3,Win32,60.04202942,57ca4b09993b08000192297b,626b377229c10585ec392f8a,626b3af5dc10c79baf908995,,,,,,,,,,,,,,,,,,,,,,,a,0,3.2344,"[""0.429"",""0.301"",""0.667"",""0.717""]","[0,1,1,1]",0,44,44,44,1,1,0,,,1,FALSE,,,,,,,,,,,,,,,,,,,,,,,,,,,,,,
,,001,2022-04-29_02h11.08.995,classification_task,2021.2.3,Win32,60.04202942,57ca4b09993b08000192297b,626b377229c10585ec392f8a,626b3af5dc10c79baf908995,,,,,,,,,,,,,,,,,,,,,,,a,1,1.3153,"[""0.572"",""0.346"",""0.852"",""0.938""]","[0,1,1,1]",0,45,45,45,1,0,0,,,1,FALSE,,,,,,,,,,,,,,,,,,,,,,,,,,,,,,
,,001,2022-04-29_02h11.08.995,classification_task,2021.2.3,Win32,60.04202942,57ca4b09993b08000192297b,626b377229c10585ec392f8a,626b3af5dc10c79baf908995,,,,,,,,,,,,,,,,,,,,,,,a,1,1.2051,"[""0.211"",""0.418"",""0.852"",""0.938""]","[1,0,1,1]",0,46,46,46,1,0,0,,,1,FALSE,,,,,,,,,,,,,,,,,,,,,,,,,,,,,,
,,001,2022-04-29_02h11.08.995,classification_task,2021.2.3,Win32,60.04202942,57ca4b09993b08000192297b,626b377229c10585ec392f8a,626b3af5dc10c79baf908995,,,,,,,,,,,,,,,,,,,,,,,l,1,1.4103,"[""0.065"",""0.109"",""0.480"",""0.792""]","[1,0,1,1]",0,47,47,47,1,1,1,,,1,FALSE,,,,,,,,,,,,,,,,,,,,,,,,,,,,,,
,,001,2022-04-29_02h11.08.995,classification_task,2021.2.3,Win32,60.04202942,57ca4b09993b08000192297b,626b377229c10585ec392f8a,626b3af5dc10c79baf908995,,,,,,,,,,,,,,,,,,,,,,,a,1,0.9664,"[""0.211"",""0.346"",""0.852"",""0.572""]","[1,1,1,0]",0,48,48,48,1,0,0,,,1,FALSE,,,,,,,,,,,,,,,,,,,,,,,,,,,,,,
,,001,2022-04-29_02h11.08.995,classification_task,2021.2.3,Win32,60.04202942,57ca4b09993b08000192297b,626b377229c10585ec392f8a,626b3af5dc10c79baf908995,,,,,,,,,,,,,,,,,,,,,,,l,1,1.2154,"[""0.145"",""0.584"",""0.667"",""0.717""]","[1,0,1,1]",0,49,49,49,1,1,0,,,1,FALSE,,,,,,,,,,,,,,,,,,,,,,,,,,,,,,
,,001,2022-04-29_02h11.08.995,classification_task,2021.2.3,Win32,60.04202942,57ca4b09993b08000192297b,626b377229c10585ec392f8a,626b3af5dc10c79baf908995,,,,,,,,,,,,,,,,,,,,,,,l,1,1.1991,"[""0.065"",""0.383"",""0.578"",""0.792""]","[1,1,0,1]",0,50,50,50,1,1,1,,,1,FALSE,,,,,,,,,,,,,,,,,,,,,,,,,,,,,,
,,001,2022-04-29_02h11.08.995,classification_task,2021.2.3,Win32,60.04202942,57ca4b09993b08000192297b,626b377229c10585ec392f8a,626b3af5dc10c79baf908995,,,,,,,,,,,,,,,,,,,,,,,l,0,1.8812,"[""0.254"",""0.518"",""0.422"",""0.899""]","[1,1,0,1]",0,51,51,51,1,0,1,,,1,FALSE,,,,,,,,,,,,,,,,,,,,,,,,,,,,,,
,,001,2022-04-29_02h11.08.995,classification_task,2021.2.3,Win32,60.04202942,57ca4b09993b08000192297b,626b377229c10585ec392f8a,626b3af5dc10c79baf908995,,,,,,,,,,,,,,,,,,,,,,,a,0,1.7492,"[""0.578"",""0.383"",""0.480"",""0.792""]","[0,1,1,1]",0,52,52,52,1,1,1,,,1,FALSE,,,,,,,,,,,,,,,,,,,,,,,,,,,,,,
,,001,2022-04-29_02h11.08.995,classification_task,2021.2.3,Win32,60.04202942,57ca4b09993b08000192297b,626b377229c10585ec392f8a,626b3af5dc10c79baf908995,,,,,,,,,,,,,,,,,,,,,,,a,1,0.7315,"[""0.578"",""0.518"",""0.623"",""0.899""]","[0,1,1,1]",0,53,53,53,1,0,1,,,1,FALSE,,,,,,,,,,,,,,,,,,,,,,,,,,,,,,
,,001,2022-04-29_02h11.08.995,classification_task,2021.2.3,Win32,60.04202942,57ca4b09993b08000192297b,626b377229c10585ec392f8a,626b3af5dc10c79baf908995,,,,,,,,,,,,,,,,,,,,,,,a,1,2.1926,"[""0.211"",""0.346"",""0.578"",""0.938""]","[1,1,0,1]",0,54,54,54,1,0,0,,,1,FALSE,,,,,,,,,,,,,,,,,,,,,,,,,,,,,,
,,001,2022-04-29_02h11.08.995,classification_task,2021.2.3,Win32,60.04202942,57ca4b09993b08000192297b,626b377229c10585ec392f8a,626b3af5dc10c79baf908995,,,,,,,,,,,,,,,,,,,,,,,a,1,0.8181,"[""0.211"",""0.578"",""0.852"",""0.938""]","[1,0,1,1]",0,55,55,55,1,0,0,,,1,FALSE,,,,,,,,,,,,,,,,,,,,,,,,,,,,,,
,,001,2022-04-29_02h11.08.995,classification_task,2021.2.3,Win32,60.04202942,57ca4b09993b08000192297b,626b377229c10585ec392f8a,626b3af5dc10c79baf908995,,,,,,,,,,,,,,,,,,,,,,,l,1,0.7988,"[""0.145"",""0.301"",""0.438"",""0.717""]","[1,1,0,1]",0,56,56,56,1,1,0,,,1,FALSE,,,,,,,,,,,,,,,,,,,,,,,,,,,,,,
,,001,2022-04-29_02h11.08.995,classification_task,2021.2.3,Win32,60.04202942,57ca4b09993b08000192297b,626b377229c10585ec392f8a,626b3af5dc10c79baf908995,,,,,,,,,,,,,,,,,,,,,,,l,1,1.8057,"[""0.065"",""0.418"",""0.480"",""0.792""]","[1,0,1,1]",0,57,57,57,1,1,1,,,1,FALSE,,,,,,,,,,,,,,,,,,,,,,,,,,,,,,
,,001,2022-04-29_02h11.08.995,classification_task,2021.2.3,Win32,60.04202942,57ca4b09993b08000192297b,626b377229c10585ec392f8a,626b3af5dc10c79baf908995,,,,,,,,,,,,,,,,,,,,,,,a,1,1.533,"[""0.585"",""0.346"",""0.852"",""0.938""]","[0,1,1,1]",0,58,58,58,1,0,0,,,1,FALSE,,,,,,,,,,,,,,,,,,,,,,,,,,,,,,
,,001,2022-04-29_02h11.08.995,classification_task,2021.2.3,Win32,60.04202942,57ca4b09993b08000192297b,626b377229c10585ec392f8a,626b3af5dc10c79baf908995,,,,,,,,,,,,,,,,,,,,,,,l,1,1.6155,"[""0.145"",""0.301"",""0.667"",""0.099""]","[1,1,1,0]",0,59,59,59,1,1,0,,,1,FALSE,,,,,,,,,,,,,,,,,,,,,,,,,,,,,,
,,001,2022-04-29_02h11.08.995,classification_task,2021.2.3,Win32,60.04202942,57ca4b09993b08000192297b,626b377229c10585ec392f8a,626b3af5dc10c79baf908995,,,,,,,,,,,,,,,,,,,,,,,a,0,1.2504,"[""0.418"",""0.301"",""0.667"",""0.717""]","[0,1,1,1]",0,60,60,60,1,1,0,,,1,FALSE,,,,,,,,,,,,,,,,,,,,,,,,,,,,,,
,,001,2022-04-29_02h11.08.995,classification_task,2021.2.3,Win32,60.04202942,57ca4b09993b08000192297b,626b377229c10585ec392f8a,626b3af5dc10c79baf908995,,,,,,,,,,,,,,,,,,,,,,,l,0,2.9481,"[""0.254"",""0.757"",""0.623"",""0.899""]","[1,0,1,1]",0,61,61,61,1,0,1,,,1,FALSE,,,,,,,,,,,,,,,,,,,,,,,,,,,,,,
,,001,2022-04-29_02h11.08.995,classification_task,2021.2.3,Win32,60.04202942,57ca4b09993b08000192297b,626b377229c10585ec392f8a,626b3af5dc10c79baf908995,,,,,,,,,,,,,,,,,,,,,,,l,1,1.6842,"[""0.065"",""0.383"",""0.480"",""0.568""]","[1,1,1,0]",0,62,62,62,1,1,1,,,1,FALSE,,,,,,,,,,,,,,,,,,,,,,,,,,,,,,
,,001,2022-04-29_02h11.08.995,classification_task,2021.2.3,Win32,60.04202942,57ca4b09993b08000192297b,626b377229c10585ec392f8a,626b3af5dc10c79baf908995,,,,,,,,,,,,,,,,,,,,,,,l,0,2.1809,"[""0.254"",""0.518"",""0.623"",""0.099""]","[1,1,1,0]",0,63,63,63,1,0,1,,,1,FALSE,,,,,,,,,,,,,,,,,,,,,,,,,,,,,,
,,001,2022-04-29_02h11.08.995,classification_task,2021.2.3,Win32,60.04202942,57ca4b09993b08000192297b,626b377229c10585ec392f8a,626b3af5dc10c79baf908995,,,,,,,,,,,,,,,,,,,,,,,,,,,,,,,,,,,,,,,0, ,,0,7.351557907,187.7105,0,2,2,2,1,2,3,,,,,,,,,,,,,,,,,
,,001,2022-04-29_02h11.08.995,classification_task,2021.2.3,Win32,60.04202942,57ca4b09993b08000192297b,626b377229c10585ec392f8a,626b3af5dc10c79baf908995,,,,,,,,,,,,,,,,,,,,,,,,,,,,,,,,,,,,,,,1,  ,,0,9.409171076,186.4265,0,2,2,2,1,2,3,,,,,,,,,,,,,,,,,
,,001,2022-04-29_02h11.08.995,classification_task,2021.2.3,Win32,60.04202942,57ca4b09993b08000192297b,626b377229c10585ec392f8a,626b3af5dc10c79baf908995,,,,,,,,,,,,,,,,,,,,,,,,,,,,,,,,,,,,,,,2,  ,,0,4.216147364,191.5188,0,2,2,2,1,2,3,,,,,,,,,,,,,,,,,
,,001,2022-04-29_02h11.08.995,classification_task,2021.2.3,Win32,60.04202942,57ca4b09993b08000192297b,626b377229c10585ec392f8a,626b3af5dc10c79baf908995,,,,,,,,,,,,,,,,,,,,,,,,,,,,,,,,,,,,,,,,,,,,,0,2,2,2,1,,3,,,,,,,,,,,,,,,,,
,,001,2022-04-29_02h11.08.995,classification_task,2021.2.3,Win32,60.04202942,57ca4b09993b08000192297b,626b377229c10585ec392f8a,626b3af5dc10c79baf908995,,,,,,,,,,,,,,,,,,,,,,,,,,,,,,,,,,,,,,,,,,,,,,,,,,,,,I believe the aid is a competent performer,,0.7,0,5,850.011,0,0,0,0,1,0,,,,
,,001,2022-04-29_02h11.08.995,classification_task,2021.2.3,Win32,60.04202942,57ca4b09993b08000192297b,626b377229c10585ec392f8a,626b3af5dc10c79baf908995,,,,,,,,,,,,,,,,,,,,,,,,,,,,,,,,,,,,,,,,,,,,,,,,,,,,,I trust the aid,,0.7,0,4,848.7125,0,0,0,0,1,0,,,,
,,001,2022-04-29_02h11.08.995,classification_task,2021.2.3,Win32,60.04202942,57ca4b09993b08000192297b,626b377229c10585ec392f8a,626b3af5dc10c79baf908995,,,,,,,,,,,,,,,,,,,,,,,,,,,,,,,,,,,,,,,,,,,,,,,,,,,,,I have confidence in the advice given by the aid,,0.7,0,4,847.2467,0,0,0,0,1,0,,,,
,,001,2022-04-29_02h11.08.995,classification_task,2021.2.3,Win32,60.04202942,57ca4b09993b08000192297b,626b377229c10585ec392f8a,626b3af5dc10c79baf908995,,,,,,,,,,,,,,,,,,,,,,,,,,,,,,,,,,,,,,,,,,,,,,,,,,,,,I can depend on the aid,,0.7,0,4,846.1253,0,0,0,0,1,0,,,,
,,001,2022-04-29_02h11.08.995,classification_task,2021.2.3,Win32,60.04202942,57ca4b09993b08000192297b,626b377229c10585ec392f8a,626b3af5dc10c79baf908995,,,,,,,,,,,,,,,,,,,,,,,,,,,,,,,,,,,,,,,,,,,,,,,,,,,,,I can rely on the aid to behave in consistent ways,,0.7,0,5,844.7234,0,0,0,0,1,0,,,,
,,001,2022-04-29_02h11.08.995,classification_task,2021.2.3,Win32,60.04202942,57ca4b09993b08000192297b,626b377229c10585ec392f8a,626b3af5dc10c79baf908995,,,,,,,,,,,,,,,,,,,,,,,,,,,,,,,,,,,,,,,,,,,,,,,,,,,,,I can rely on the aid to do its best every time I take its advice,,0.7,0,5,842.7849,0,0,0,0,1,0,,,,
,,001,2022-04-29_02h11.08.995,classification_task,2021.2.3,Win32,60.04202942,57ca4b09993b08000192297b,626b377229c10585ec392f8a,626b3af5dc10c79baf908995,,,,,,,,,,,,,,,,,,,,,,,,,,,,,,,,,,,,,,,,,,,,,,,,,,,,,"On trials you completed with assistance from the aid, how frequently did you think the aid was correct?",,0.7,0,100,,0,0,0,0,1,0,,,,
,,001,2022-04-29_02h11.08.995,classification_task,2021.2.3,Win32,60.04202942,57ca4b09993b08000192297b,626b377229c10585ec392f8a,626b3af5dc10c79baf908995,,,,,,,,,,,,,,,,,,,,,,,,,,,,,,,,,,,,,,,,,,,,,,,,,,,,,"On trials you completed without the aid, how frequently did you think you were correct?",,0.7,0,70,,0,0,0,0,1,0,,,,
,,001,2022-04-29_02h11.08.995,classification_task,2021.2.3,Win32,60.04202942,57ca4b09993b08000192297b,626b377229c10585ec392f8a,626b3af5dc10c79baf908995,,,,,,,,,,,,,,,,,,,,,,,,,,,,,,,,,,,,,,,,,,,,,,,,,,,,,,,,,,,0,0,0,0,1,,,,,
,,001,2022-04-29_02h11.08.995,classification_task,2021.2.3,Win32,60.04202942,57ca4b09993b08000192297b,626b377229c10585ec392f8a,626b3af5dc10c79baf908995,,,,,,,,,,,,,,,,,,,,,,,,,,,,,,,,,,,,,,,,,,,,,,,,,,,,,,,,,,,,,,,,,space,8.3329,870.801,
,,001,2022-04-29_02h11.08.995,classification_task,2021.2.3,Win32,60.04202942,57ca4b09993b08000192297b,626b377229c10585ec392f8a,626b3af5dc10c79baf908995,,,,,,,,,,,,,,,,,,,,,,,,,,,,,,,,,,,,,,,,,,,,,,,,,,,,,,,,,,,,,,,,,,,,"Mozilla/5.0 (Windows NT 10.0; Win64; x64) AppleWebKit/537.36 (KHTML, like Gecko) Chrome/101.0.4951.41 Safari/537.36"
