usingWebGL,participant,session,date,expName,psychopyVersion,OS,frameRate,PROLIFIC_PID,STUDY_ID,SESSION_ID,signatures_friend,signatures_foe,band_ranges_top,band_ranges_bottom,formitemText,formtype,formundefined,formitemWidth,formindex,formresponse,formrt,key_resp_2.keys,key_resp_2.rt,tute_resp.keys,tute_resp.rt,tutorial.thisRepN,tutorial.thisTrialN,tutorial.thisN,tutorial.thisIndex,tutorial.ran,key_resp_4.keys,key_resp_4.rt,key_resp.keys,key_resp.corr,key_resp.rt,lines_presented,is_signal_presented,trials.thisRepN,trials.thisTrialN,trials.thisN,trials.thisIndex,trials.ran,vessel,active_band,lines,is_signal,supported_pos,catch_trial,debrief_formindex,debrief_formitemText,debrief_formtype,debrief_formitemWidth,debrief_formresponse,debrief_formrt,phases.thisRepN,phases.thisTrialN,phases.thisN,phases.thisIndex,phases.ran,phases.order,phase,key_resp_3.keys,trustitemText,trusttype,trustitemWidth,trustindex,trustresponse,trustrt,support_status.thisRepN,support_status.thisTrialN,support_status.thisN,support_status.thisIndex,support_status.ran,support_status.order,key_resp_5.keys,key_resp_5.rt,globalClockTime,userAgent
TRUE,,001,2022-04-28_20h11.18.773,classification_task,2021.2.3,Win32,144.1129846,5d9a74f72aae4c031a29af9b,626b377229c10585ec392f89,626b39f1bd8a0cab449d1ccb,,,,,,,,,,,,,,,,,,,,,,,,,,,,,,,,,,,,,,,,,,,,,,,,,,,,,,,,,,,,,,,,,,,,
,,001,2022-04-28_20h11.18.773,classification_task,2021.2.3,Win32,144.1129846,5d9a74f72aae4c031a29af9b,626b377229c10585ec392f89,626b39f1bd8a0cab449d1ccb,"[[""0.233"",""0.417"",""0.629"",""0.966""],[""0.326"",""0.513"",""0.849"",""0.904""]]","[[""0.087"",""0.286"",""0.471"",""0.804""],[""0.053"",""0.182"",""0.671"",""0.736""]]","[1,10]","[100,1000]",Video game experience,,,0.7,0,,,,,,,,,,,,,,,,,,,,,,,,,,,,,,,,,,,,,,,,,,,,,,,,,,,,,,,,,,,
,,001,2022-04-28_20h11.18.773,classification_task,2021.2.3,Win32,144.1129846,5d9a74f72aae4c031a29af9b,626b377229c10585ec392f89,626b39f1bd8a0cab449d1ccb,,,,,Approximately how many hours did you spend playing video games in the last week?,,,0.7,0,10,,,,,,,,,,,,,,,,,,,,,,,,,,,,,,,,,,,,,,,,,,,,,,,,,,,,,,,,,,
,,001,2022-04-28_20h11.18.773,classification_task,2021.2.3,Win32,144.1129846,5d9a74f72aae4c031a29af9b,626b377229c10585ec392f89,626b39f1bd8a0cab449d1ccb,,,,,"Which game did you play the most this year? (Enter ""None"" if you didn't play any)",,,0.7,0,Formula 1 2021,,,,,,,,,,,,,,,,,,,,,,,,,,,,,,,,,,,,,,,,,,,,,,,,,,,,,,,,,,
,,001,2022-04-28_20h11.18.773,classification_task,2021.2.3,Win32,144.1129846,5d9a74f72aae4c031a29af9b,626b377229c10585ec392f89,626b39f1bd8a0cab449d1ccb,,,,,Visual perception,,,0.7,0,,,,,,,,,,,,,,,,,,,,,,,,,,,,,,,,,,,,,,,,,,,,,,,,,,,,,,,,,,,
,,001,2022-04-28_20h11.18.773,classification_task,2021.2.3,Win32,144.1129846,5d9a74f72aae4c031a29af9b,626b377229c10585ec392f89,626b39f1bd8a0cab449d1ccb,,,,,Do you have any form of color blindness?,,,0.7,0,Yes,24.9994,,,,,,,,,,,,,,,,,,,,,,,,,,,,,,,,,,,,,,,,,,,,,,,,,,,,,,,,,
,,001,2022-04-28_20h11.18.773,classification_task,2021.2.3,Win32,144.1129846,5d9a74f72aae4c031a29af9b,626b377229c10585ec392f89,626b39f1bd8a0cab449d1ccb,,,,,Do you use software to change the colour temperature of your screen (e.g. f.lux)?,,,0.7,0,No,27.4354,,,,,,,,,,,,,,,,,,,,,,,,,,,,,,,,,,,,,,,,,,,,,,,,,,,,,,,,,
,,001,2022-04-28_20h11.18.773,classification_task,2021.2.3,Win32,144.1129846,5d9a74f72aae4c031a29af9b,626b377229c10585ec392f89,626b39f1bd8a0cab449d1ccb,,,,,,,,,,,,space,30.7622,space,5.893,0,0,0,0,1,,,,,,,,,,,,,,,,,,,,,,,,,,,,,,,,,,,,,,,,,,,,,,,,
,,001,2022-04-28_20h11.18.773,classification_task,2021.2.3,Win32,144.1129846,5d9a74f72aae4c031a29af9b,626b377229c10585ec392f89,626b39f1bd8a0cab449d1ccb,,,,,,,,,,,,,,space,17.6188,1,0,1,0,1,,,,,,,,,,,,,,,,,,,,,,,,,,,,,,,,,,,,,,,,,,,,,,,,
,,001,2022-04-28_20h11.18.773,classification_task,2021.2.3,Win32,144.1129846,5d9a74f72aae4c031a29af9b,626b377229c10585ec392f89,626b39f1bd8a0cab449d1ccb,,,,,,,,,,,,,,space,13.6467,2,0,2,0,1,,,,,,,,,,,,,,,,,,,,,,,,,,,,,,,,,,,,,,,,,,,,,,,,
,,001,2022-04-28_20h11.18.773,classification_task,2021.2.3,Win32,144.1129846,5d9a74f72aae4c031a29af9b,626b377229c10585ec392f89,626b39f1bd8a0cab449d1ccb,,,,,,,,,,,,,,space,6.0715,3,0,3,0,1,,,,,,,,,,,,,,,,,,,,,,,,,,,,,,,,,,,,,,,,,,,,,,,,
,,001,2022-04-28_20h11.18.773,classification_task,2021.2.3,Win32,144.1129846,5d9a74f72aae4c031a29af9b,626b377229c10585ec392f89,626b39f1bd8a0cab449d1ccb,,,,,,,,,,,,,,space,21.0599,4,0,4,0,1,,,,,,,,,,,,,,,,,,,,,,,,,,,,,,,,,,,,,,,,,,,,,,,,
,,001,2022-04-28_20h11.18.773,classification_task,2021.2.3,Win32,144.1129846,5d9a74f72aae4c031a29af9b,626b377229c10585ec392f89,626b39f1bd8a0cab449d1ccb,,,,,,,,,,,,,,,,,,,,,space,23.5908,a,1,7.6031,"[""0.131"",""0.417"",""0.629"",""0.966""]","[0,1,1,1]",0,0,0,0,1,0,0,,,0,FALSE,,,,,,,,,,,,,,,,,,,,,,,,,,,,,,
,,001,2022-04-28_20h11.18.773,classification_task,2021.2.3,Win32,144.1129846,5d9a74f72aae4c031a29af9b,626b377229c10585ec392f89,626b39f1bd8a0cab449d1ccb,,,,,,,,,,,,,,,,,,,,,,,a,1,3.4026,"[""0.233"",""0.417"",""0.629"",""0.581""]","[1,1,1,0]",0,1,1,1,1,0,0,,,0,FALSE,,,,,,,,,,,,,,,,,,,,,,,,,,,,,,
,,001,2022-04-28_20h11.18.773,classification_task,2021.2.3,Win32,144.1129846,5d9a74f72aae4c031a29af9b,626b377229c10585ec392f89,626b39f1bd8a0cab449d1ccb,,,,,,,,,,,,,,,,,,,,,,,l,1,3.3538,"[""0.087"",""0.286"",""0.471"",""0.577""]","[1,1,1,0]",0,2,2,2,1,1,0,,,0,FALSE,,,,,,,,,,,,,,,,,,,,,,,,,,,,,,
,,001,2022-04-28_20h11.18.773,classification_task,2021.2.3,Win32,144.1129846,5d9a74f72aae4c031a29af9b,626b377229c10585ec392f89,626b39f1bd8a0cab449d1ccb,,,,,,,,,,,,,,,,,,,,,,,l,1,2.9086,"[""0.053"",""0.131"",""0.671"",""0.736""]","[1,0,1,1]",0,3,3,3,1,1,1,,,0,FALSE,,,,,,,,,,,,,,,,,,,,,,,,,,,,,,
,,001,2022-04-28_20h11.18.773,classification_task,2021.2.3,Win32,144.1129846,5d9a74f72aae4c031a29af9b,626b377229c10585ec392f89,626b39f1bd8a0cab449d1ccb,,,,,,,,,,,,,,,,,,,,,,,l,1,5.0275,"[""0.131"",""0.182"",""0.671"",""0.736""]","[0,1,1,1]",0,4,4,4,1,1,1,,,0,FALSE,,,,,,,,,,,,,,,,,,,,,,,,,,,,,,
,,001,2022-04-28_20h11.18.773,classification_task,2021.2.3,Win32,144.1129846,5d9a74f72aae4c031a29af9b,626b377229c10585ec392f89,626b39f1bd8a0cab449d1ccb,,,,,,,,,,,,,,,,,,,,,,,l,1,4.7836,"[""0.087"",""0.125"",""0.471"",""0.804""]","[1,0,1,1]",0,5,5,5,1,1,0,,,0,FALSE,,,,,,,,,,,,,,,,,,,,,,,,,,,,,,
,,001,2022-04-28_20h11.18.773,classification_task,2021.2.3,Win32,144.1129846,5d9a74f72aae4c031a29af9b,626b377229c10585ec392f89,626b39f1bd8a0cab449d1ccb,,,,,,,,,,,,,,,,,,,,,,,a,1,1.9718,"[""0.233"",""0.417"",""0.370"",""0.966""]","[1,1,0,1]",0,6,6,6,1,0,0,,,0,FALSE,,,,,,,,,,,,,,,,,,,,,,,,,,,,,,
,,001,2022-04-28_20h11.18.773,classification_task,2021.2.3,Win32,144.1129846,5d9a74f72aae4c031a29af9b,626b377229c10585ec392f89,626b39f1bd8a0cab449d1ccb,,,,,,,,,,,,,,,,,,,,,,,a,1,2.0205,"[""0.233"",""0.370"",""0.629"",""0.966""]","[1,0,1,1]",0,7,7,7,1,0,0,,,0,FALSE,,,,,,,,,,,,,,,,,,,,,,,,,,,,,,
,,001,2022-04-28_20h11.18.773,classification_task,2021.2.3,Win32,144.1129846,5d9a74f72aae4c031a29af9b,626b377229c10585ec392f89,626b39f1bd8a0cab449d1ccb,,,,,,,,,,,,,,,,,,,,,,,a,1,4.2144,"[""0.326"",""0.513"",""0.125"",""0.904""]","[1,1,0,1]",0,8,8,8,1,0,1,,,0,FALSE,,,,,,,,,,,,,,,,,,,,,,,,,,,,,,
,,001,2022-04-28_20h11.18.773,classification_task,2021.2.3,Win32,144.1129846,5d9a74f72aae4c031a29af9b,626b377229c10585ec392f89,626b39f1bd8a0cab449d1ccb,,,,,,,,,,,,,,,,,,,,,,,a,1,2.2017,"[""0.326"",""0.370"",""0.849"",""0.904""]","[1,0,1,1]",0,9,9,9,1,0,1,,,0,FALSE,,,,,,,,,,,,,,,,,,,,,,,,,,,,,,
,,001,2022-04-28_20h11.18.773,classification_task,2021.2.3,Win32,144.1129846,5d9a74f72aae4c031a29af9b,626b377229c10585ec392f89,626b39f1bd8a0cab449d1ccb,,,,,,,,,,,,,,,,,,,,,,,l,1,2.9097,"[""0.053"",""0.182"",""0.671"",""0.552""]","[1,1,1,0]",0,10,10,10,1,1,1,,,0,FALSE,,,,,,,,,,,,,,,,,,,,,,,,,,,,,,
,,001,2022-04-28_20h11.18.773,classification_task,2021.2.3,Win32,144.1129846,5d9a74f72aae4c031a29af9b,626b377229c10585ec392f89,626b39f1bd8a0cab449d1ccb,,,,,,,,,,,,,,,,,,,,,,,a,1,3.3057,"[""0.370"",""0.513"",""0.849"",""0.904""]","[0,1,1,1]",0,11,11,11,1,0,1,,,0,FALSE,,,,,,,,,,,,,,,,,,,,,,,,,,,,,,
,,001,2022-04-28_20h11.18.773,classification_task,2021.2.3,Win32,144.1129846,5d9a74f72aae4c031a29af9b,626b377229c10585ec392f89,626b39f1bd8a0cab449d1ccb,,,,,,,,,,,,,,,,,,,,,,,a,0,2.3391,"[""0.087"",""0.286"",""0.370"",""0.804""]","[1,1,0,1]",0,12,12,12,1,1,0,,,0,FALSE,,,,,,,,,,,,,,,,,,,,,,,,,,,,,,
,,001,2022-04-28_20h11.18.773,classification_task,2021.2.3,Win32,144.1129846,5d9a74f72aae4c031a29af9b,626b377229c10585ec392f89,626b39f1bd8a0cab449d1ccb,,,,,,,,,,,,,,,,,,,,,,,l,1,2.5889,"[""0.053"",""0.182"",""0.595"",""0.736""]","[1,1,0,1]",0,13,13,13,1,1,1,,,0,FALSE,,,,,,,,,,,,,,,,,,,,,,,,,,,,,,
,,001,2022-04-28_20h11.18.773,classification_task,2021.2.3,Win32,144.1129846,5d9a74f72aae4c031a29af9b,626b377229c10585ec392f89,626b39f1bd8a0cab449d1ccb,,,,,,,,,,,,,,,,,,,,,,,a,1,2.1176,"[""0.326"",""0.513"",""0.849"",""0.595""]","[1,1,1,0]",0,14,14,14,1,0,1,,,0,FALSE,,,,,,,,,,,,,,,,,,,,,,,,,,,,,,
,,001,2022-04-28_20h11.18.773,classification_task,2021.2.3,Win32,144.1129846,5d9a74f72aae4c031a29af9b,626b377229c10585ec392f89,626b39f1bd8a0cab449d1ccb,,,,,,,,,,,,,,,,,,,,,,,l,1,3.1864,"[""0.563"",""0.286"",""0.471"",""0.804""]","[0,1,1,1]",0,15,15,15,1,1,0,,,0,FALSE,,,,,,,,,,,,,,,,,,,,,,,,,,,,,,
,,001,2022-04-28_20h11.18.773,classification_task,2021.2.3,Win32,144.1129846,5d9a74f72aae4c031a29af9b,626b377229c10585ec392f89,626b39f1bd8a0cab449d1ccb,,,,,,,,,,,,,,,,,,,,,,,a,1,1.6249,"[""0.233"",""0.370"",""0.629"",""0.966""]","[1,0,1,1]",0,16,16,16,1,0,0,,,0,FALSE,,,,,,,,,,,,,,,,,,,,,,,,,,,,,,
,,001,2022-04-28_20h11.18.773,classification_task,2021.2.3,Win32,144.1129846,5d9a74f72aae4c031a29af9b,626b377229c10585ec392f89,626b39f1bd8a0cab449d1ccb,,,,,,,,,,,,,,,,,,,,,,,a,1,4.3746,"[""0.126"",""0.417"",""0.629"",""0.966""]","[0,1,1,1]",0,17,17,17,1,0,0,,,0,FALSE,,,,,,,,,,,,,,,,,,,,,,,,,,,,,,
,,001,2022-04-28_20h11.18.773,classification_task,2021.2.3,Win32,144.1129846,5d9a74f72aae4c031a29af9b,626b377229c10585ec392f89,626b39f1bd8a0cab449d1ccb,,,,,,,,,,,,,,,,,,,,,,,a,1,4.2629,"[""0.370"",""0.513"",""0.849"",""0.904""]","[0,1,1,1]",0,18,18,18,1,0,1,,,0,FALSE,,,,,,,,,,,,,,,,,,,,,,,,,,,,,,
,,001,2022-04-28_20h11.18.773,classification_task,2021.2.3,Win32,144.1129846,5d9a74f72aae4c031a29af9b,626b377229c10585ec392f89,626b39f1bd8a0cab449d1ccb,,,,,,,,,,,,,,,,,,,,,,,l,1,3.0071,"[""0.053"",""0.370"",""0.671"",""0.736""]","[1,0,1,1]",0,19,19,19,1,1,1,,,0,FALSE,,,,,,,,,,,,,,,,,,,,,,,,,,,,,,
,,001,2022-04-28_20h11.18.773,classification_task,2021.2.3,Win32,144.1129846,5d9a74f72aae4c031a29af9b,626b377229c10585ec392f89,626b39f1bd8a0cab449d1ccb,,,,,,,,,,,,,,,,,,,,,,,l,1,2.2219,"[""0.053"",""0.182"",""0.671"",""0.370""]","[1,1,1,0]",0,20,20,20,1,1,1,,,0,FALSE,,,,,,,,,,,,,,,,,,,,,,,,,,,,,,
,,001,2022-04-28_20h11.18.773,classification_task,2021.2.3,Win32,144.1129846,5d9a74f72aae4c031a29af9b,626b377229c10585ec392f89,626b39f1bd8a0cab449d1ccb,,,,,,,,,,,,,,,,,,,,,,,a,1,2.8322,"[""0.233"",""0.417"",""0.629"",""0.369""]","[1,1,1,0]",0,21,21,21,1,0,0,,,0,FALSE,,,,,,,,,,,,,,,,,,,,,,,,,,,,,,
,,001,2022-04-28_20h11.18.773,classification_task,2021.2.3,Win32,144.1129846,5d9a74f72aae4c031a29af9b,626b377229c10585ec392f89,626b39f1bd8a0cab449d1ccb,,,,,,,,,,,,,,,,,,,,,,,l,1,3.5903,"[""0.087"",""0.286"",""0.471"",""0.370""]","[1,1,1,0]",0,22,22,22,1,1,0,,,0,FALSE,,,,,,,,,,,,,,,,,,,,,,,,,,,,,,
,,001,2022-04-28_20h11.18.773,classification_task,2021.2.3,Win32,144.1129846,5d9a74f72aae4c031a29af9b,626b377229c10585ec392f89,626b39f1bd8a0cab449d1ccb,,,,,,,,,,,,,,,,,,,,,,,l,1,2.6875,"[""0.577"",""0.286"",""0.471"",""0.804""]","[0,1,1,1]",0,23,23,23,1,1,0,,,0,FALSE,,,,,,,,,,,,,,,,,,,,,,,,,,,,,,
,,001,2022-04-28_20h11.18.773,classification_task,2021.2.3,Win32,144.1129846,5d9a74f72aae4c031a29af9b,626b377229c10585ec392f89,626b39f1bd8a0cab449d1ccb,,,,,,,,,,,,,,,,,,,,,,,a,0,3.1178,"[""0.087"",""0.365"",""0.471"",""0.804""]","[1,0,1,1]",0,24,24,24,1,1,0,,,0,FALSE,,,,,,,,,,,,,,,,,,,,,,,,,,,,,,
,,001,2022-04-28_20h11.18.773,classification_task,2021.2.3,Win32,144.1129846,5d9a74f72aae4c031a29af9b,626b377229c10585ec392f89,626b39f1bd8a0cab449d1ccb,,,,,,,,,,,,,,,,,,,,,,,a,1,1.6596,"[""0.233"",""0.417"",""0.577"",""0.966""]","[1,1,0,1]",0,25,25,25,1,0,0,,,0,FALSE,,,,,,,,,,,,,,,,,,,,,,,,,,,,,,
,,001,2022-04-28_20h11.18.773,classification_task,2021.2.3,Win32,144.1129846,5d9a74f72aae4c031a29af9b,626b377229c10585ec392f89,626b39f1bd8a0cab449d1ccb,,,,,,,,,,,,,,,,,,,,,,,l,1,3.3054,"[""0.053"",""0.182"",""0.370"",""0.736""]","[1,1,0,1]",0,26,26,26,1,1,1,,,0,FALSE,,,,,,,,,,,,,,,,,,,,,,,,,,,,,,
,,001,2022-04-28_20h11.18.773,classification_task,2021.2.3,Win32,144.1129846,5d9a74f72aae4c031a29af9b,626b377229c10585ec392f89,626b39f1bd8a0cab449d1ccb,,,,,,,,,,,,,,,,,,,,,,,l,0,3.7222,"[""0.326"",""0.513"",""0.148"",""0.904""]","[1,1,0,1]",0,27,27,27,1,0,1,,,0,FALSE,,,,,,,,,,,,,,,,,,,,,,,,,,,,,,
,,001,2022-04-28_20h11.18.773,classification_task,2021.2.3,Win32,144.1129846,5d9a74f72aae4c031a29af9b,626b377229c10585ec392f89,626b39f1bd8a0cab449d1ccb,,,,,,,,,,,,,,,,,,,,,,,a,1,1.7705,"[""0.326"",""0.513"",""0.849"",""0.370""]","[1,1,1,0]",0,28,28,28,1,0,1,,,0,FALSE,,,,,,,,,,,,,,,,,,,,,,,,,,,,,,
,,001,2022-04-28_20h11.18.773,classification_task,2021.2.3,Win32,144.1129846,5d9a74f72aae4c031a29af9b,626b377229c10585ec392f89,626b39f1bd8a0cab449d1ccb,,,,,,,,,,,,,,,,,,,,,,,a,1,5.7289,"[""0.326"",""0.143"",""0.849"",""0.904""]","[1,0,1,1]",0,29,29,29,1,0,1,,,0,FALSE,,,,,,,,,,,,,,,,,,,,,,,,,,,,,,
,,001,2022-04-28_20h11.18.773,classification_task,2021.2.3,Win32,144.1129846,5d9a74f72aae4c031a29af9b,626b377229c10585ec392f89,626b39f1bd8a0cab449d1ccb,,,,,,,,,,,,,,,,,,,,,,,l,1,2.7835,"[""0.087"",""0.286"",""0.563"",""0.804""]","[1,1,0,1]",0,30,30,30,1,1,0,,,0,FALSE,,,,,,,,,,,,,,,,,,,,,,,,,,,,,,
,,001,2022-04-28_20h11.18.773,classification_task,2021.2.3,Win32,144.1129846,5d9a74f72aae4c031a29af9b,626b377229c10585ec392f89,626b39f1bd8a0cab449d1ccb,,,,,,,,,,,,,,,,,,,,,,,l,1,5.8396,"[""0.365"",""0.182"",""0.671"",""0.736""]","[0,1,1,1]",0,31,31,31,1,1,1,,,0,FALSE,,,,,,,,,,,,,,,,,,,,,,,,,,,,,,
,,001,2022-04-28_20h11.18.773,classification_task,2021.2.3,Win32,144.1129846,5d9a74f72aae4c031a29af9b,626b377229c10585ec392f89,626b39f1bd8a0cab449d1ccb,,,,,,,,,,,,,,,,,,,,,,,a,1,4.763,"[""0.326"",""0.513"",""0.595"",""0.904""]","[1,1,0,1]",0,32,32,32,1,0,1,,,0,FALSE,,,,,,,,,,,,,,,,,,,,,,,,,,,,,,
,,001,2022-04-28_20h11.18.773,classification_task,2021.2.3,Win32,144.1129846,5d9a74f72aae4c031a29af9b,626b377229c10585ec392f89,626b39f1bd8a0cab449d1ccb,,,,,,,,,,,,,,,,,,,,,,,a,1,1.8746,"[""0.326"",""0.563"",""0.849"",""0.904""]","[1,0,1,1]",0,33,33,33,1,0,1,,,0,FALSE,,,,,,,,,,,,,,,,,,,,,,,,,,,,,,
,,001,2022-04-28_20h11.18.773,classification_task,2021.2.3,Win32,144.1129846,5d9a74f72aae4c031a29af9b,626b377229c10585ec392f89,626b39f1bd8a0cab449d1ccb,,,,,,,,,,,,,,,,,,,,,,,l,1,3.3683,"[""0.087"",""0.286"",""0.471"",""0.369""]","[1,1,1,0]",0,34,34,34,1,1,0,,,0,FALSE,,,,,,,,,,,,,,,,,,,,,,,,,,,,,,
,,001,2022-04-28_20h11.18.773,classification_task,2021.2.3,Win32,144.1129846,5d9a74f72aae4c031a29af9b,626b377229c10585ec392f89,626b39f1bd8a0cab449d1ccb,,,,,,,,,,,,,,,,,,,,,,,a,1,2.59,"[""0.233"",""0.417"",""0.126"",""0.966""]","[1,1,0,1]",0,35,35,35,1,0,0,,,0,FALSE,,,,,,,,,,,,,,,,,,,,,,,,,,,,,,
,,001,2022-04-28_20h11.18.773,classification_task,2021.2.3,Win32,144.1129846,5d9a74f72aae4c031a29af9b,626b377229c10585ec392f89,626b39f1bd8a0cab449d1ccb,,,,,,,,,,,,,,,,,,,,,,,l,0,2.3678,"[""0.233"",""0.417"",""0.629"",""0.125""]","[1,1,1,0]",0,36,36,36,1,0,0,,,0,FALSE,,,,,,,,,,,,,,,,,,,,,,,,,,,,,,
,,001,2022-04-28_20h11.18.773,classification_task,2021.2.3,Win32,144.1129846,5d9a74f72aae4c031a29af9b,626b377229c10585ec392f89,626b39f1bd8a0cab449d1ccb,,,,,,,,,,,,,,,,,,,,,,,l,0,2.4373,"[""0.370"",""0.417"",""0.629"",""0.966""]","[0,1,1,1]",0,37,37,37,1,0,0,,,0,FALSE,,,,,,,,,,,,,,,,,,,,,,,,,,,,,,
,,001,2022-04-28_20h11.18.773,classification_task,2021.2.3,Win32,144.1129846,5d9a74f72aae4c031a29af9b,626b377229c10585ec392f89,626b39f1bd8a0cab449d1ccb,,,,,,,,,,,,,,,,,,,,,,,l,1,2.2707,"[""0.087"",""0.125"",""0.471"",""0.804""]","[1,0,1,1]",0,38,38,38,1,1,0,,,0,FALSE,,,,,,,,,,,,,,,,,,,,,,,,,,,,,,
,,001,2022-04-28_20h11.18.773,classification_task,2021.2.3,Win32,144.1129846,5d9a74f72aae4c031a29af9b,626b377229c10585ec392f89,626b39f1bd8a0cab449d1ccb,,,,,,,,,,,,,,,,,,,,,,,l,1,2.5276,"[""0.053"",""0.563"",""0.671"",""0.736""]","[1,0,1,1]",0,39,39,39,1,1,1,,,0,FALSE,,,,,,,,,,,,,,,,,,,,,,,,,,,,,,
,,001,2022-04-28_20h11.18.773,classification_task,2021.2.3,Win32,144.1129846,5d9a74f72aae4c031a29af9b,626b377229c10585ec392f89,626b39f1bd8a0cab449d1ccb,,,,,,,,,,,,,,,,,,,,,,,a,1,2.5414,"[""0.126"",""0.513"",""0.849"",""0.904""]","[0,1,1,1]",0,40,40,40,1,0,1,,,0,FALSE,,,,,,,,,,,,,,,,,,,,,,,,,,,,,,
,,001,2022-04-28_20h11.18.773,classification_task,2021.2.3,Win32,144.1129846,5d9a74f72aae4c031a29af9b,626b377229c10585ec392f89,626b39f1bd8a0cab449d1ccb,,,,,,,,,,,,,,,,,,,,,,,l,0,3.1315,"[""0.233"",""0.131"",""0.629"",""0.966""]","[1,0,1,1]",0,41,41,41,1,0,0,,,0,FALSE,,,,,,,,,,,,,,,,,,,,,,,,,,,,,,
,,001,2022-04-28_20h11.18.773,classification_task,2021.2.3,Win32,144.1129846,5d9a74f72aae4c031a29af9b,626b377229c10585ec392f89,626b39f1bd8a0cab449d1ccb,,,,,,,,,,,,,,,,,,,,,,,l,1,2.0208,"[""0.125"",""0.182"",""0.671"",""0.736""]","[0,1,1,1]",0,42,42,42,1,1,1,,,0,FALSE,,,,,,,,,,,,,,,,,,,,,,,,,,,,,,
,,001,2022-04-28_20h11.18.773,classification_task,2021.2.3,Win32,144.1129846,5d9a74f72aae4c031a29af9b,626b377229c10585ec392f89,626b39f1bd8a0cab449d1ccb,,,,,,,,,,,,,,,,,,,,,,,a,1,2.7502,"[""0.326"",""0.513"",""0.849"",""0.148""]","[1,1,1,0]",0,43,43,43,1,0,1,,,0,FALSE,,,,,,,,,,,,,,,,,,,,,,,,,,,,,,
,,001,2022-04-28_20h11.18.773,classification_task,2021.2.3,Win32,144.1129846,5d9a74f72aae4c031a29af9b,626b377229c10585ec392f89,626b39f1bd8a0cab449d1ccb,,,,,,,,,,,,,,,,,,,,,,,a,0,2.6523,"[""0.087"",""0.286"",""0.577"",""0.804""]","[1,1,0,1]",0,44,44,44,1,1,0,,,0,FALSE,,,,,,,,,,,,,,,,,,,,,,,,,,,,,,
,,001,2022-04-28_20h11.18.773,classification_task,2021.2.3,Win32,144.1129846,5d9a74f72aae4c031a29af9b,626b377229c10585ec392f89,626b39f1bd8a0cab449d1ccb,,,,,,,,,,,,,,,,,,,,,,,a,0,2.5761,"[""0.563"",""0.286"",""0.471"",""0.804""]","[0,1,1,1]",0,45,45,45,1,1,0,,,0,FALSE,,,,,,,,,,,,,,,,,,,,,,,,,,,,,,
,,001,2022-04-28_20h11.18.773,classification_task,2021.2.3,Win32,144.1129846,5d9a74f72aae4c031a29af9b,626b377229c10585ec392f89,626b39f1bd8a0cab449d1ccb,,,,,,,,,,,,,,,,,,,,,,,l,1,1.8121,"[""0.053"",""0.182"",""0.671"",""0.552""]","[1,1,1,0]",0,46,46,46,1,1,1,,,0,FALSE,,,,,,,,,,,,,,,,,,,,,,,,,,,,,,
,,001,2022-04-28_20h11.18.773,classification_task,2021.2.3,Win32,144.1129846,5d9a74f72aae4c031a29af9b,626b377229c10585ec392f89,626b39f1bd8a0cab449d1ccb,,,,,,,,,,,,,,,,,,,,,,,l,1,3.9237,"[""0.053"",""0.182"",""0.369"",""0.736""]","[1,1,0,1]",0,47,47,47,1,1,1,,,0,FALSE,,,,,,,,,,,,,,,,,,,,,,,,,,,,,,
,,001,2022-04-28_20h11.18.773,classification_task,2021.2.3,Win32,144.1129846,5d9a74f72aae4c031a29af9b,626b377229c10585ec392f89,626b39f1bd8a0cab449d1ccb,,,,,,,,,,,,,,,,,,,,,,,a,0,1.9442,"[""0.369"",""0.286"",""0.471"",""0.804""]","[0,1,1,1]",0,48,48,48,1,1,0,,,0,FALSE,,,,,,,,,,,,,,,,,,,,,,,,,,,,,,
,,001,2022-04-28_20h11.18.773,classification_task,2021.2.3,Win32,144.1129846,5d9a74f72aae4c031a29af9b,626b377229c10585ec392f89,626b39f1bd8a0cab449d1ccb,,,,,,,,,,,,,,,,,,,,,,,l,1,1.6454,"[""0.053"",""0.365"",""0.671"",""0.736""]","[1,0,1,1]",0,49,49,49,1,1,1,,,0,FALSE,,,,,,,,,,,,,,,,,,,,,,,,,,,,,,
,,001,2022-04-28_20h11.18.773,classification_task,2021.2.3,Win32,144.1129846,5d9a74f72aae4c031a29af9b,626b377229c10585ec392f89,626b39f1bd8a0cab449d1ccb,,,,,,,,,,,,,,,,,,,,,,,a,0,1.694,"[""0.595"",""0.182"",""0.671"",""0.736""]","[0,1,1,1]",0,50,50,50,1,1,1,,,0,FALSE,,,,,,,,,,,,,,,,,,,,,,,,,,,,,,
,,001,2022-04-28_20h11.18.773,classification_task,2021.2.3,Win32,144.1129846,5d9a74f72aae4c031a29af9b,626b377229c10585ec392f89,626b39f1bd8a0cab449d1ccb,,,,,,,,,,,,,,,,,,,,,,,a,0,1.9998,"[""0.087"",""0.286"",""0.471"",""0.148""]","[1,1,1,0]",0,51,51,51,1,1,0,,,0,FALSE,,,,,,,,,,,,,,,,,,,,,,,,,,,,,,
,,001,2022-04-28_20h11.18.773,classification_task,2021.2.3,Win32,144.1129846,5d9a74f72aae4c031a29af9b,626b377229c10585ec392f89,626b39f1bd8a0cab449d1ccb,,,,,,,,,,,,,,,,,,,,,,,l,0,2.0274,"[""0.326"",""0.513"",""0.131"",""0.904""]","[1,1,0,1]",0,52,52,52,1,0,1,,,0,FALSE,,,,,,,,,,,,,,,,,,,,,,,,,,,,,,
,,001,2022-04-28_20h11.18.773,classification_task,2021.2.3,Win32,144.1129846,5d9a74f72aae4c031a29af9b,626b377229c10585ec392f89,626b39f1bd8a0cab449d1ccb,,,,,,,,,,,,,,,,,,,,,,,a,0,1.847,"[""0.087"",""0.563"",""0.471"",""0.804""]","[1,0,1,1]",0,53,53,53,1,1,0,,,0,FALSE,,,,,,,,,,,,,,,,,,,,,,,,,,,,,,
,,001,2022-04-28_20h11.18.773,classification_task,2021.2.3,Win32,144.1129846,5d9a74f72aae4c031a29af9b,626b377229c10585ec392f89,626b39f1bd8a0cab449d1ccb,,,,,,,,,,,,,,,,,,,,,,,a,1,1.7219,"[""0.326"",""0.370"",""0.849"",""0.904""]","[1,0,1,1]",0,54,54,54,1,0,1,,,0,FALSE,,,,,,,,,,,,,,,,,,,,,,,,,,,,,,
,,001,2022-04-28_20h11.18.773,classification_task,2021.2.3,Win32,144.1129846,5d9a74f72aae4c031a29af9b,626b377229c10585ec392f89,626b39f1bd8a0cab449d1ccb,,,,,,,,,,,,,,,,,,,,,,,a,1,2.5484,"[""0.233"",""0.126"",""0.629"",""0.966""]","[1,0,1,1]",0,55,55,55,1,0,0,,,0,FALSE,,,,,,,,,,,,,,,,,,,,,,,,,,,,,,
,,001,2022-04-28_20h11.18.773,classification_task,2021.2.3,Win32,144.1129846,5d9a74f72aae4c031a29af9b,626b377229c10585ec392f89,626b39f1bd8a0cab449d1ccb,,,,,,,,,,,,,,,,,,,,,,,a,1,3.4096,"[""0.233"",""0.417"",""0.629"",""0.369""]","[1,1,1,0]",0,56,56,56,1,0,0,,,0,FALSE,,,,,,,,,,,,,,,,,,,,,,,,,,,,,,
,,001,2022-04-28_20h11.18.773,classification_task,2021.2.3,Win32,144.1129846,5d9a74f72aae4c031a29af9b,626b377229c10585ec392f89,626b39f1bd8a0cab449d1ccb,,,,,,,,,,,,,,,,,,,,,,,l,0,1.5135,"[""0.143"",""0.417"",""0.629"",""0.966""]","[0,1,1,1]",0,57,57,57,1,0,0,,,0,FALSE,,,,,,,,,,,,,,,,,,,,,,,,,,,,,,
,,001,2022-04-28_20h11.18.773,classification_task,2021.2.3,Win32,144.1129846,5d9a74f72aae4c031a29af9b,626b377229c10585ec392f89,626b39f1bd8a0cab449d1ccb,,,,,,,,,,,,,,,,,,,,,,,l,0,1.9998,"[""0.370"",""0.513"",""0.849"",""0.904""]","[0,1,1,1]",0,58,58,58,1,0,1,,,0,FALSE,,,,,,,,,,,,,,,,,,,,,,,,,,,,,,
,,001,2022-04-28_20h11.18.773,classification_task,2021.2.3,Win32,144.1129846,5d9a74f72aae4c031a29af9b,626b377229c10585ec392f89,626b39f1bd8a0cab449d1ccb,,,,,,,,,,,,,,,,,,,,,,,l,1,1.7289,"[""0.053"",""0.182"",""0.671"",""0.370""]","[1,1,1,0]",0,59,59,59,1,1,1,,,0,FALSE,,,,,,,,,,,,,,,,,,,,,,,,,,,,,,
,,001,2022-04-28_20h11.18.773,classification_task,2021.2.3,Win32,144.1129846,5d9a74f72aae4c031a29af9b,626b377229c10585ec392f89,626b39f1bd8a0cab449d1ccb,,,,,,,,,,,,,,,,,,,,,,,l,1,1.4373,"[""0.053"",""0.182"",""0.595"",""0.736""]","[1,1,0,1]",0,60,60,60,1,1,1,,,0,FALSE,,,,,,,,,,,,,,,,,,,,,,,,,,,,,,
,,001,2022-04-28_20h11.18.773,classification_task,2021.2.3,Win32,144.1129846,5d9a74f72aae4c031a29af9b,626b377229c10585ec392f89,626b39f1bd8a0cab449d1ccb,,,,,,,,,,,,,,,,,,,,,,,a,1,1.3402,"[""0.326"",""0.513"",""0.849"",""0.370""]","[1,1,1,0]",0,61,61,61,1,0,1,,,0,FALSE,,,,,,,,,,,,,,,,,,,,,,,,,,,,,,
,,001,2022-04-28_20h11.18.773,classification_task,2021.2.3,Win32,144.1129846,5d9a74f72aae4c031a29af9b,626b377229c10585ec392f89,626b39f1bd8a0cab449d1ccb,,,,,,,,,,,,,,,,,,,,,,,a,0,1.708,"[""0.087"",""0.286"",""0.131"",""0.804""]","[1,1,0,1]",0,62,62,62,1,1,0,,,0,FALSE,,,,,,,,,,,,,,,,,,,,,,,,,,,,,,
,,001,2022-04-28_20h11.18.773,classification_task,2021.2.3,Win32,144.1129846,5d9a74f72aae4c031a29af9b,626b377229c10585ec392f89,626b39f1bd8a0cab449d1ccb,,,,,,,,,,,,,,,,,,,,,,,a,1,1.5483,"[""0.233"",""0.417"",""0.581"",""0.966""]","[1,1,0,1]",0,63,63,63,1,0,0,,,0,FALSE,,,,,,,,,,,,,,,,,,,,,,,,,,,,,,
,,001,2022-04-28_20h11.18.773,classification_task,2021.2.3,Win32,144.1129846,5d9a74f72aae4c031a29af9b,626b377229c10585ec392f89,626b39f1bd8a0cab449d1ccb,,,,,,,,,,,,,,,,,,,,,,,,,,,,,,,,,,,,,,,0, ,,0,3.285322359,427.8645,0,0,0,0,1,2,1,,,,,,,,,,,,,,,,,
,,001,2022-04-28_20h11.18.773,classification_task,2021.2.3,Win32,144.1129846,5d9a74f72aae4c031a29af9b,626b377229c10585ec392f89,626b39f1bd8a0cab449d1ccb,,,,,,,,,,,,,,,,,,,,,,,,,,,,,,,,,,,,,,,1,  ,,0,6.249265138,419.4373,0,0,0,0,1,2,1,,,,,,,,,,,,,,,,,
,,001,2022-04-28_20h11.18.773,classification_task,2021.2.3,Win32,144.1129846,5d9a74f72aae4c031a29af9b,626b377229c10585ec392f89,626b39f1bd8a0cab449d1ccb,,,,,,,,,,,,,,,,,,,,,,,,,,,,,,,,,,,,,,,2,  ,,0,3.603762493,423.2957,0,0,0,0,1,2,1,,,,,,,,,,,,,,,,,
,,001,2022-04-28_20h11.18.773,classification_task,2021.2.3,Win32,144.1129846,5d9a74f72aae4c031a29af9b,626b377229c10585ec392f89,626b39f1bd8a0cab449d1ccb,,,,,,,,,,,,,,,,,,,,,,,,,,,,,,,,,,,,,,,,,,,,,0,0,0,0,1,,1,,,,,,,,,,,,,,,,,
,,001,2022-04-28_20h11.18.773,classification_task,2021.2.3,Win32,144.1129846,5d9a74f72aae4c031a29af9b,626b377229c10585ec392f89,626b39f1bd8a0cab449d1ccb,,,,,,,,,,,,,,,,,,,,,space,19.5687,a,1,5.3001,"[""0.326"",""0.513"",""0.148"",""0.904""]","[1,1,0,1]",0,0,0,0,1,0,1,,,0,FALSE,,,,,,,,,,,,,,,,,,,,,,,,,,,,,,
,,001,2022-04-28_20h11.18.773,classification_task,2021.2.3,Win32,144.1129846,5d9a74f72aae4c031a29af9b,626b377229c10585ec392f89,626b39f1bd8a0cab449d1ccb,,,,,,,,,,,,,,,,,,,,,,,a,1,4.1796,"[""0.233"",""0.143"",""0.629"",""0.966""]","[1,0,1,1]",0,1,1,1,1,0,0,,,0,FALSE,,,,,,,,,,,,,,,,,,,,,,,,,,,,,,
,,001,2022-04-28_20h11.18.773,classification_task,2021.2.3,Win32,144.1129846,5d9a74f72aae4c031a29af9b,626b377229c10585ec392f89,626b39f1bd8a0cab449d1ccb,,,,,,,,,,,,,,,,,,,,,,,l,0,3.2948,"[""0.233"",""0.417"",""0.369"",""0.966""]","[1,1,0,1]",0,2,2,2,1,0,0,,,0,FALSE,,,,,,,,,,,,,,,,,,,,,,,,,,,,,,
,,001,2022-04-28_20h11.18.773,classification_task,2021.2.3,Win32,144.1129846,5d9a74f72aae4c031a29af9b,626b377229c10585ec392f89,626b39f1bd8a0cab449d1ccb,,,,,,,,,,,,,,,,,,,,,,,l,0,1.9482,"[""0.326"",""0.513"",""0.849"",""0.126""]","[1,1,1,0]",0,3,3,3,1,0,1,,,0,FALSE,,,,,,,,,,,,,,,,,,,,,,,,,,,,,,
,,001,2022-04-28_20h11.18.773,classification_task,2021.2.3,Win32,144.1129846,5d9a74f72aae4c031a29af9b,626b377229c10585ec392f89,626b39f1bd8a0cab449d1ccb,,,,,,,,,,,,,,,,,,,,,,,a,1,2.8946,"[""0.581"",""0.417"",""0.629"",""0.966""]","[0,1,1,1]",0,4,4,4,1,0,0,,,0,FALSE,,,,,,,,,,,,,,,,,,,,,,,,,,,,,,
,,001,2022-04-28_20h11.18.773,classification_task,2021.2.3,Win32,144.1129846,5d9a74f72aae4c031a29af9b,626b377229c10585ec392f89,626b39f1bd8a0cab449d1ccb,,,,,,,,,,,,,,,,,,,,,,,a,0,2.8301,"[""0.087"",""0.286"",""0.471"",""0.370""]","[1,1,1,0]",0,5,5,5,1,1,0,,,0,FALSE,,,,,,,,,,,,,,,,,,,,,,,,,,,,,,
,,001,2022-04-28_20h11.18.773,classification_task,2021.2.3,Win32,144.1129846,5d9a74f72aae4c031a29af9b,626b377229c10585ec392f89,626b39f1bd8a0cab449d1ccb,,,,,,,,,,,,,,,,,,,,,,,l,1,2.5967,"[""0.087"",""0.286"",""0.365"",""0.804""]","[1,1,0,1]",0,6,6,6,1,1,0,,,0,FALSE,,,,,,,,,,,,,,,,,,,,,,,,,,,,,,
,,001,2022-04-28_20h11.18.773,classification_task,2021.2.3,Win32,144.1129846,5d9a74f72aae4c031a29af9b,626b377229c10585ec392f89,626b39f1bd8a0cab449d1ccb,,,,,,,,,,,,,,,,,,,,,,,l,0,2.8487,"[""0.370"",""0.513"",""0.849"",""0.904""]","[0,1,1,1]",0,7,7,7,1,0,1,,,0,FALSE,,,,,,,,,,,,,,,,,,,,,,,,,,,,,,
,,001,2022-04-28_20h11.18.773,classification_task,2021.2.3,Win32,144.1129846,5d9a74f72aae4c031a29af9b,626b377229c10585ec392f89,626b39f1bd8a0cab449d1ccb,,,,,,,,,,,,,,,,,,,,,,,a,1,1.3879,"[""0.233"",""0.417"",""0.629"",""0.369""]","[1,1,1,0]",0,8,8,8,1,0,0,,,0,FALSE,,,,,,,,,,,,,,,,,,,,,,,,,,,,,,
,,001,2022-04-28_20h11.18.773,classification_task,2021.2.3,Win32,144.1129846,5d9a74f72aae4c031a29af9b,626b377229c10585ec392f89,626b39f1bd8a0cab449d1ccb,,,,,,,,,,,,,,,,,,,,,,,a,0,3.0147,"[""0.053"",""0.370"",""0.671"",""0.736""]","[1,0,1,1]",0,9,9,9,1,1,1,,,0,FALSE,,,,,,,,,,,,,,,,,,,,,,,,,,,,,,
,,001,2022-04-28_20h11.18.773,classification_task,2021.2.3,Win32,144.1129846,5d9a74f72aae4c031a29af9b,626b377229c10585ec392f89,626b39f1bd8a0cab449d1ccb,,,,,,,,,,,,,,,,,,,,,,,l,1,1.8189,"[""0.581"",""0.182"",""0.671"",""0.736""]","[0,1,1,1]",0,10,10,10,1,1,1,,,0,FALSE,,,,,,,,,,,,,,,,,,,,,,,,,,,,,,
,,001,2022-04-28_20h11.18.773,classification_task,2021.2.3,Win32,144.1129846,5d9a74f72aae4c031a29af9b,626b377229c10585ec392f89,626b39f1bd8a0cab449d1ccb,,,,,,,,,,,,,,,,,,,,,,,a,0,2.5521,"[""0.053"",""0.182"",""0.125"",""0.736""]","[1,1,0,1]",0,11,11,11,1,1,1,,,0,FALSE,,,,,,,,,,,,,,,,,,,,,,,,,,,,,,
,,001,2022-04-28_20h11.18.773,classification_task,2021.2.3,Win32,144.1129846,5d9a74f72aae4c031a29af9b,626b377229c10585ec392f89,626b39f1bd8a0cab449d1ccb,,,,,,,,,,,,,,,,,,,,,,,a,0,3.3083,"[""0.369"",""0.286"",""0.471"",""0.804""]","[0,1,1,1]",0,12,12,12,1,1,0,,,0,FALSE,,,,,,,,,,,,,,,,,,,,,,,,,,,,,,
,,001,2022-04-28_20h11.18.773,classification_task,2021.2.3,Win32,144.1129846,5d9a74f72aae4c031a29af9b,626b377229c10585ec392f89,626b39f1bd8a0cab449d1ccb,,,,,,,,,,,,,,,,,,,,,,,l,0,1.8535,"[""0.326"",""0.370"",""0.849"",""0.904""]","[1,0,1,1]",0,13,13,13,1,0,1,,,0,FALSE,,,,,,,,,,,,,,,,,,,,,,,,,,,,,,
,,001,2022-04-28_20h11.18.773,classification_task,2021.2.3,Win32,144.1129846,5d9a74f72aae4c031a29af9b,626b377229c10585ec392f89,626b39f1bd8a0cab449d1ccb,,,,,,,,,,,,,,,,,,,,,,,l,1,2.5509,"[""0.053"",""0.182"",""0.671"",""0.552""]","[1,1,1,0]",0,14,14,14,1,1,1,,,0,FALSE,,,,,,,,,,,,,,,,,,,,,,,,,,,,,,
,,001,2022-04-28_20h11.18.773,classification_task,2021.2.3,Win32,144.1129846,5d9a74f72aae4c031a29af9b,626b377229c10585ec392f89,626b39f1bd8a0cab449d1ccb,,,,,,,,,,,,,,,,,,,,,,,a,0,2.1072,"[""0.087"",""0.563"",""0.471"",""0.804""]","[1,0,1,1]",0,15,15,15,1,1,0,,,0,FALSE,,,,,,,,,,,,,,,,,,,,,,,,,,,,,,
,,001,2022-04-28_20h11.18.773,classification_task,2021.2.3,Win32,144.1129846,5d9a74f72aae4c031a29af9b,626b377229c10585ec392f89,626b39f1bd8a0cab449d1ccb,,,,,,,,,,,,,,,,,,,,,,,a,1,2.1402,"[""0.326"",""0.513"",""0.126"",""0.904""]","[1,1,0,1]",0,16,16,16,1,0,1,,,0,FALSE,,,,,,,,,,,,,,,,,,,,,,,,,,,,,,
,,001,2022-04-28_20h11.18.773,classification_task,2021.2.3,Win32,144.1129846,5d9a74f72aae4c031a29af9b,626b377229c10585ec392f89,626b39f1bd8a0cab449d1ccb,,,,,,,,,,,,,,,,,,,,,,,l,0,3.0987,"[""0.233"",""0.417"",""0.629"",""0.148""]","[1,1,1,0]",0,17,17,17,1,0,0,,,0,FALSE,,,,,,,,,,,,,,,,,,,,,,,,,,,,,,
,,001,2022-04-28_20h11.18.773,classification_task,2021.2.3,Win32,144.1129846,5d9a74f72aae4c031a29af9b,626b377229c10585ec392f89,626b39f1bd8a0cab449d1ccb,,,,,,,,,,,,,,,,,,,,,,,l,0,3.7864,"[""0.595"",""0.513"",""0.849"",""0.904""]","[0,1,1,1]",0,18,18,18,1,0,1,,,0,FALSE,,,,,,,,,,,,,,,,,,,,,,,,,,,,,,
,,001,2022-04-28_20h11.18.773,classification_task,2021.2.3,Win32,144.1129846,5d9a74f72aae4c031a29af9b,626b377229c10585ec392f89,626b39f1bd8a0cab449d1ccb,,,,,,,,,,,,,,,,,,,,,,,l,0,3.652,"[""0.233"",""0.370"",""0.629"",""0.966""]","[1,0,1,1]",0,19,19,19,1,0,0,,,0,FALSE,,,,,,,,,,,,,,,,,,,,,,,,,,,,,,
,,001,2022-04-28_20h11.18.773,classification_task,2021.2.3,Win32,144.1129846,5d9a74f72aae4c031a29af9b,626b377229c10585ec392f89,626b39f1bd8a0cab449d1ccb,,,,,,,,,,,,,,,,,,,,,,,a,0,3.0892,"[""0.124"",""0.182"",""0.671"",""0.736""]","[0,1,1,1]",0,20,20,20,1,1,1,,,0,FALSE,,,,,,,,,,,,,,,,,,,,,,,,,,,,,,
,,001,2022-04-28_20h11.18.773,classification_task,2021.2.3,Win32,144.1129846,5d9a74f72aae4c031a29af9b,626b377229c10585ec392f89,626b39f1bd8a0cab449d1ccb,,,,,,,,,,,,,,,,,,,,,,,a,0,2.5982,"[""0.053"",""0.182"",""0.671"",""0.563""]","[1,1,1,0]",0,21,21,21,1,1,1,,,0,FALSE,,,,,,,,,,,,,,,,,,,,,,,,,,,,,,
,,001,2022-04-28_20h11.18.773,classification_task,2021.2.3,Win32,144.1129846,5d9a74f72aae4c031a29af9b,626b377229c10585ec392f89,626b39f1bd8a0cab449d1ccb,,,,,,,,,,,,,,,,,,,,,,,l,1,2.7858,"[""0.087"",""0.286"",""0.471"",""0.595""]","[1,1,1,0]",0,22,22,22,1,1,0,,,0,FALSE,,,,,,,,,,,,,,,,,,,,,,,,,,,,,,
,,001,2022-04-28_20h11.18.773,classification_task,2021.2.3,Win32,144.1129846,5d9a74f72aae4c031a29af9b,626b377229c10585ec392f89,626b39f1bd8a0cab449d1ccb,,,,,,,,,,,,,,,,,,,,,,,a,0,5.1728,"[""0.053"",""0.370"",""0.671"",""0.736""]","[1,0,1,1]",0,23,23,23,1,1,1,,,0,FALSE,,,,,,,,,,,,,,,,,,,,,,,,,,,,,,
,,001,2022-04-28_20h11.18.773,classification_task,2021.2.3,Win32,144.1129846,5d9a74f72aae4c031a29af9b,626b377229c10585ec392f89,626b39f1bd8a0cab449d1ccb,,,,,,,,,,,,,,,,,,,,,,,a,1,3.5419,"[""0.326"",""0.552"",""0.849"",""0.904""]","[1,0,1,1]",0,24,24,24,1,0,1,,,0,FALSE,,,,,,,,,,,,,,,,,,,,,,,,,,,,,,
,,001,2022-04-28_20h11.18.773,classification_task,2021.2.3,Win32,144.1129846,5d9a74f72aae4c031a29af9b,626b377229c10585ec392f89,626b39f1bd8a0cab449d1ccb,,,,,,,,,,,,,,,,,,,,,,,a,1,1.5454,"[""0.126"",""0.417"",""0.629"",""0.966""]","[0,1,1,1]",0,25,25,25,1,0,0,,,0,FALSE,,,,,,,,,,,,,,,,,,,,,,,,,,,,,,
,,001,2022-04-28_20h11.18.773,classification_task,2021.2.3,Win32,144.1129846,5d9a74f72aae4c031a29af9b,626b377229c10585ec392f89,626b39f1bd8a0cab449d1ccb,,,,,,,,,,,,,,,,,,,,,,,a,1,1.1589,"[""0.233"",""0.417"",""0.126"",""0.966""]","[1,1,0,1]",0,26,26,26,1,0,0,,,0,FALSE,,,,,,,,,,,,,,,,,,,,,,,,,,,,,,
,,001,2022-04-28_20h11.18.773,classification_task,2021.2.3,Win32,144.1129846,5d9a74f72aae4c031a29af9b,626b377229c10585ec392f89,626b39f1bd8a0cab449d1ccb,,,,,,,,,,,,,,,,,,,,,,,a,0,1.2008,"[""0.125"",""0.286"",""0.471"",""0.804""]","[0,1,1,1]",0,27,27,27,1,1,0,,,0,FALSE,,,,,,,,,,,,,,,,,,,,,,,,,,,,,,
,,001,2022-04-28_20h11.18.773,classification_task,2021.2.3,Win32,144.1129846,5d9a74f72aae4c031a29af9b,626b377229c10585ec392f89,626b39f1bd8a0cab449d1ccb,,,,,,,,,,,,,,,,,,,,,,,a,1,2.766,"[""0.326"",""0.513"",""0.849"",""0.581""]","[1,1,1,0]",0,28,28,28,1,0,1,,,0,FALSE,,,,,,,,,,,,,,,,,,,,,,,,,,,,,,
,,001,2022-04-28_20h11.18.773,classification_task,2021.2.3,Win32,144.1129846,5d9a74f72aae4c031a29af9b,626b377229c10585ec392f89,626b39f1bd8a0cab449d1ccb,,,,,,,,,,,,,,,,,,,,,,,a,0,1.2431,"[""0.087"",""0.286"",""0.143"",""0.804""]","[1,1,0,1]",0,29,29,29,1,1,0,,,0,FALSE,,,,,,,,,,,,,,,,,,,,,,,,,,,,,,
,,001,2022-04-28_20h11.18.773,classification_task,2021.2.3,Win32,144.1129846,5d9a74f72aae4c031a29af9b,626b377229c10585ec392f89,626b39f1bd8a0cab449d1ccb,,,,,,,,,,,,,,,,,,,,,,,a,0,3.1381,"[""0.087"",""0.131"",""0.471"",""0.804""]","[1,0,1,1]",0,30,30,30,1,1,0,,,0,FALSE,,,,,,,,,,,,,,,,,,,,,,,,,,,,,,
,,001,2022-04-28_20h11.18.773,classification_task,2021.2.3,Win32,144.1129846,5d9a74f72aae4c031a29af9b,626b377229c10585ec392f89,626b39f1bd8a0cab449d1ccb,,,,,,,,,,,,,,,,,,,,,,,l,1,3.7837,"[""0.053"",""0.182"",""0.581"",""0.736""]","[1,1,0,1]",0,31,31,31,1,1,1,,,0,FALSE,,,,,,,,,,,,,,,,,,,,,,,,,,,,,,
,,001,2022-04-28_20h11.18.773,classification_task,2021.2.3,Win32,144.1129846,5d9a74f72aae4c031a29af9b,626b377229c10585ec392f89,626b39f1bd8a0cab449d1ccb,,,,,,,,,,,,,,,,,,,,,,,a,1,4.2564,"[""0.326"",""0.581"",""0.849"",""0.904""]","[1,0,1,1]",0,32,32,32,1,0,1,,,0,FALSE,,,,,,,,,,,,,,,,,,,,,,,,,,,,,,
,,001,2022-04-28_20h11.18.773,classification_task,2021.2.3,Win32,144.1129846,5d9a74f72aae4c031a29af9b,626b377229c10585ec392f89,626b39f1bd8a0cab449d1ccb,,,,,,,,,,,,,,,,,,,,,,,l,0,1.5061,"[""0.233"",""0.417"",""0.629"",""0.563""]","[1,1,1,0]",0,33,33,33,1,0,0,,,0,FALSE,,,,,,,,,,,,,,,,,,,,,,,,,,,,,,
,,001,2022-04-28_20h11.18.773,classification_task,2021.2.3,Win32,144.1129846,5d9a74f72aae4c031a29af9b,626b377229c10585ec392f89,626b39f1bd8a0cab449d1ccb,,,,,,,,,,,,,,,,,,,,,,,a,1,1.4306,"[""0.233"",""0.417"",""0.370"",""0.966""]","[1,1,0,1]",0,34,34,34,1,0,0,,,0,FALSE,,,,,,,,,,,,,,,,,,,,,,,,,,,,,,
,,001,2022-04-28_20h11.18.773,classification_task,2021.2.3,Win32,144.1129846,5d9a74f72aae4c031a29af9b,626b377229c10585ec392f89,626b39f1bd8a0cab449d1ccb,,,,,,,,,,,,,,,,,,,,,,,l,0,3.7449,"[""0.131"",""0.513"",""0.849"",""0.904""]","[0,1,1,1]",0,35,35,35,1,0,1,,,0,FALSE,,,,,,,,,,,,,,,,,,,,,,,,,,,,,,
,,001,2022-04-28_20h11.18.773,classification_task,2021.2.3,Win32,144.1129846,5d9a74f72aae4c031a29af9b,626b377229c10585ec392f89,626b39f1bd8a0cab449d1ccb,,,,,,,,,,,,,,,,,,,,,,,l,1,2.6113,"[""0.053"",""0.182"",""0.563"",""0.736""]","[1,1,0,1]",0,36,36,36,1,1,1,,,0,FALSE,,,,,,,,,,,,,,,,,,,,,,,,,,,,,,
,,001,2022-04-28_20h11.18.773,classification_task,2021.2.3,Win32,144.1129846,5d9a74f72aae4c031a29af9b,626b377229c10585ec392f89,626b39f1bd8a0cab449d1ccb,,,,,,,,,,,,,,,,,,,,,,,a,0,2.9929,"[""0.143"",""0.182"",""0.671"",""0.736""]","[0,1,1,1]",0,37,37,37,1,1,1,,,0,FALSE,,,,,,,,,,,,,,,,,,,,,,,,,,,,,,
,,001,2022-04-28_20h11.18.773,classification_task,2021.2.3,Win32,144.1129846,5d9a74f72aae4c031a29af9b,626b377229c10585ec392f89,626b39f1bd8a0cab449d1ccb,,,,,,,,,,,,,,,,,,,,,,,a,0,2.5452,"[""0.087"",""0.286"",""0.369"",""0.804""]","[1,1,0,1]",0,38,38,38,1,1,0,,,0,FALSE,,,,,,,,,,,,,,,,,,,,,,,,,,,,,,
,,001,2022-04-28_20h11.18.773,classification_task,2021.2.3,Win32,144.1129846,5d9a74f72aae4c031a29af9b,626b377229c10585ec392f89,626b39f1bd8a0cab449d1ccb,,,,,,,,,,,,,,,,,,,,,,,l,1,2.9327,"[""0.053"",""0.370"",""0.671"",""0.736""]","[1,0,1,1]",0,39,39,39,1,1,1,,,0,FALSE,,,,,,,,,,,,,,,,,,,,,,,,,,,,,,
,,001,2022-04-28_20h11.18.773,classification_task,2021.2.3,Win32,144.1129846,5d9a74f72aae4c031a29af9b,626b377229c10585ec392f89,626b39f1bd8a0cab449d1ccb,,,,,,,,,,,,,,,,,,,,,,,l,1,3.9156,"[""0.577"",""0.286"",""0.471"",""0.804""]","[0,1,1,1]",0,40,40,40,1,1,0,,,0,FALSE,,,,,,,,,,,,,,,,,,,,,,,,,,,,,,
,,001,2022-04-28_20h11.18.773,classification_task,2021.2.3,Win32,144.1129846,5d9a74f72aae4c031a29af9b,626b377229c10585ec392f89,626b39f1bd8a0cab449d1ccb,,,,,,,,,,,,,,,,,,,,,,,l,0,1.9999,"[""0.233"",""0.125"",""0.629"",""0.966""]","[1,0,1,1]",0,41,41,41,1,0,0,,,0,FALSE,,,,,,,,,,,,,,,,,,,,,,,,,,,,,,
,,001,2022-04-28_20h11.18.773,classification_task,2021.2.3,Win32,144.1129846,5d9a74f72aae4c031a29af9b,626b377229c10585ec392f89,626b39f1bd8a0cab449d1ccb,,,,,,,,,,,,,,,,,,,,,,,l,0,1.945,"[""0.326"",""0.513"",""0.126"",""0.904""]","[1,1,0,1]",0,42,42,42,1,0,1,,,0,FALSE,,,,,,,,,,,,,,,,,,,,,,,,,,,,,,
,,001,2022-04-28_20h11.18.773,classification_task,2021.2.3,Win32,144.1129846,5d9a74f72aae4c031a29af9b,626b377229c10585ec392f89,626b39f1bd8a0cab449d1ccb,,,,,,,,,,,,,,,,,,,,,,,a,0,1.6815,"[""0.087"",""0.286"",""0.471"",""0.370""]","[1,1,1,0]",0,43,43,43,1,1,0,,,0,FALSE,,,,,,,,,,,,,,,,,,,,,,,,,,,,,,
,,001,2022-04-28_20h11.18.773,classification_task,2021.2.3,Win32,144.1129846,5d9a74f72aae4c031a29af9b,626b377229c10585ec392f89,626b39f1bd8a0cab449d1ccb,,,,,,,,,,,,,,,,,,,,,,,a,0,4.0827,"[""0.053"",""0.182"",""0.671"",""0.143""]","[1,1,1,0]",0,44,44,44,1,1,1,,,0,FALSE,,,,,,,,,,,,,,,,,,,,,,,,,,,,,,
,,001,2022-04-28_20h11.18.773,classification_task,2021.2.3,Win32,144.1129846,5d9a74f72aae4c031a29af9b,626b377229c10585ec392f89,626b39f1bd8a0cab449d1ccb,,,,,,,,,,,,,,,,,,,,,,,a,1,2.4647,"[""0.370"",""0.417"",""0.629"",""0.966""]","[0,1,1,1]",0,45,45,45,1,0,0,,,0,FALSE,,,,,,,,,,,,,,,,,,,,,,,,,,,,,,
,,001,2022-04-28_20h11.18.773,classification_task,2021.2.3,Win32,144.1129846,5d9a74f72aae4c031a29af9b,626b377229c10585ec392f89,626b39f1bd8a0cab449d1ccb,,,,,,,,,,,,,,,,,,,,,,,a,0,1.9368,"[""0.087"",""0.369"",""0.471"",""0.804""]","[1,0,1,1]",0,46,46,46,1,1,0,,,0,FALSE,,,,,,,,,,,,,,,,,,,,,,,,,,,,,,
,,001,2022-04-28_20h11.18.773,classification_task,2021.2.3,Win32,144.1129846,5d9a74f72aae4c031a29af9b,626b377229c10585ec392f89,626b39f1bd8a0cab449d1ccb,,,,,,,,,,,,,,,,,,,,,,,a,1,2.8952,"[""0.326"",""0.513"",""0.849"",""0.370""]","[1,1,1,0]",0,47,47,47,1,0,1,,,0,FALSE,,,,,,,,,,,,,,,,,,,,,,,,,,,,,,
,,001,2022-04-28_20h11.18.773,classification_task,2021.2.3,Win32,144.1129846,5d9a74f72aae4c031a29af9b,626b377229c10585ec392f89,626b39f1bd8a0cab449d1ccb,,,,,,,,,,,,,,,,,,,,,,,a,1,1.5925,"[""0.233"",""0.417"",""0.370"",""0.966""]","[1,1,0,1]",0,48,48,48,1,0,0,,,0,FALSE,,,,,,,,,,,,,,,,,,,,,,,,,,,,,,
,,001,2022-04-28_20h11.18.773,classification_task,2021.2.3,Win32,144.1129846,5d9a74f72aae4c031a29af9b,626b377229c10585ec392f89,626b39f1bd8a0cab449d1ccb,,,,,,,,,,,,,,,,,,,,,,,l,0,2.9876,"[""0.326"",""0.577"",""0.849"",""0.904""]","[1,0,1,1]",0,49,49,49,1,0,1,,,0,FALSE,,,,,,,,,,,,,,,,,,,,,,,,,,,,,,
,,001,2022-04-28_20h11.18.773,classification_task,2021.2.3,Win32,144.1129846,5d9a74f72aae4c031a29af9b,626b377229c10585ec392f89,626b39f1bd8a0cab449d1ccb,,,,,,,,,,,,,,,,,,,,,,,a,1,3.1144,"[""0.370"",""0.417"",""0.629"",""0.966""]","[0,1,1,1]",0,50,50,50,1,0,0,,,0,FALSE,,,,,,,,,,,,,,,,,,,,,,,,,,,,,,
,,001,2022-04-28_20h11.18.773,classification_task,2021.2.3,Win32,144.1129846,5d9a74f72aae4c031a29af9b,626b377229c10585ec392f89,626b39f1bd8a0cab449d1ccb,,,,,,,,,,,,,,,,,,,,,,,l,1,3.1173,"[""0.053"",""0.182"",""0.581"",""0.736""]","[1,1,0,1]",0,51,51,51,1,1,1,,,0,FALSE,,,,,,,,,,,,,,,,,,,,,,,,,,,,,,
,,001,2022-04-28_20h11.18.773,classification_task,2021.2.3,Win32,144.1129846,5d9a74f72aae4c031a29af9b,626b377229c10585ec392f89,626b39f1bd8a0cab449d1ccb,,,,,,,,,,,,,,,,,,,,,,,a,0,1.3437,"[""0.087"",""0.369"",""0.471"",""0.804""]","[1,0,1,1]",0,52,52,52,1,1,0,,,0,FALSE,,,,,,,,,,,,,,,,,,,,,,,,,,,,,,
,,001,2022-04-28_20h11.18.773,classification_task,2021.2.3,Win32,144.1129846,5d9a74f72aae4c031a29af9b,626b377229c10585ec392f89,626b39f1bd8a0cab449d1ccb,,,,,,,,,,,,,,,,,,,,,,,l,0,2.9165,"[""0.581"",""0.513"",""0.849"",""0.904""]","[0,1,1,1]",0,53,53,53,1,0,1,,,0,FALSE,,,,,,,,,,,,,,,,,,,,,,,,,,,,,,
,,001,2022-04-28_20h11.18.773,classification_task,2021.2.3,Win32,144.1129846,5d9a74f72aae4c031a29af9b,626b377229c10585ec392f89,626b39f1bd8a0cab449d1ccb,,,,,,,,,,,,,,,,,,,,,,,l,1,3.3609,"[""0.577"",""0.182"",""0.671"",""0.736""]","[0,1,1,1]",0,54,54,54,1,1,1,,,0,FALSE,,,,,,,,,,,,,,,,,,,,,,,,,,,,,,
,,001,2022-04-28_20h11.18.773,classification_task,2021.2.3,Win32,144.1129846,5d9a74f72aae4c031a29af9b,626b377229c10585ec392f89,626b39f1bd8a0cab449d1ccb,,,,,,,,,,,,,,,,,,,,,,,a,1,2.377,"[""0.326"",""0.513"",""0.849"",""0.563""]","[1,1,1,0]",0,55,55,55,1,0,1,,,0,FALSE,,,,,,,,,,,,,,,,,,,,,,,,,,,,,,
,,001,2022-04-28_20h11.18.773,classification_task,2021.2.3,Win32,144.1129846,5d9a74f72aae4c031a29af9b,626b377229c10585ec392f89,626b39f1bd8a0cab449d1ccb,,,,,,,,,,,,,,,,,,,,,,,a,0,2.475,"[""0.087"",""0.286"",""0.131"",""0.804""]","[1,1,0,1]",0,56,56,56,1,1,0,,,0,FALSE,,,,,,,,,,,,,,,,,,,,,,,,,,,,,,
,,001,2022-04-28_20h11.18.773,classification_task,2021.2.3,Win32,144.1129846,5d9a74f72aae4c031a29af9b,626b377229c10585ec392f89,626b39f1bd8a0cab449d1ccb,,,,,,,,,,,,,,,,,,,,,,,l,1,2.0131,"[""0.053"",""0.124"",""0.671"",""0.736""]","[1,0,1,1]",0,57,57,57,1,1,1,,,0,FALSE,,,,,,,,,,,,,,,,,,,,,,,,,,,,,,
,,001,2022-04-28_20h11.18.773,classification_task,2021.2.3,Win32,144.1129846,5d9a74f72aae4c031a29af9b,626b377229c10585ec392f89,626b39f1bd8a0cab449d1ccb,,,,,,,,,,,,,,,,,,,,,,,l,1,6.9275,"[""0.053"",""0.182"",""0.671"",""0.370""]","[1,1,1,0]",0,58,58,58,1,1,1,,,0,FALSE,,,,,,,,,,,,,,,,,,,,,,,,,,,,,,
,,001,2022-04-28_20h11.18.773,classification_task,2021.2.3,Win32,144.1129846,5d9a74f72aae4c031a29af9b,626b377229c10585ec392f89,626b39f1bd8a0cab449d1ccb,,,,,,,,,,,,,,,,,,,,,,,a,1,4.1174,"[""0.326"",""0.513"",""0.143"",""0.904""]","[1,1,0,1]",0,59,59,59,1,0,1,,,0,FALSE,,,,,,,,,,,,,,,,,,,,,,,,,,,,,,
,,001,2022-04-28_20h11.18.773,classification_task,2021.2.3,Win32,144.1129846,5d9a74f72aae4c031a29af9b,626b377229c10585ec392f89,626b39f1bd8a0cab449d1ccb,,,,,,,,,,,,,,,,,,,,,,,a,0,3.448,"[""0.087"",""0.286"",""0.471"",""0.369""]","[1,1,1,0]",0,60,60,60,1,1,0,,,0,FALSE,,,,,,,,,,,,,,,,,,,,,,,,,,,,,,
,,001,2022-04-28_20h11.18.773,classification_task,2021.2.3,Win32,144.1129846,5d9a74f72aae4c031a29af9b,626b377229c10585ec392f89,626b39f1bd8a0cab449d1ccb,,,,,,,,,,,,,,,,,,,,,,,a,0,2.7981,"[""0.126"",""0.286"",""0.471"",""0.804""]","[0,1,1,1]",0,61,61,61,1,1,0,,,0,FALSE,,,,,,,,,,,,,,,,,,,,,,,,,,,,,,
,,001,2022-04-28_20h11.18.773,classification_task,2021.2.3,Win32,144.1129846,5d9a74f72aae4c031a29af9b,626b377229c10585ec392f89,626b39f1bd8a0cab449d1ccb,,,,,,,,,,,,,,,,,,,,,,,l,0,2.1753,"[""0.233"",""0.417"",""0.629"",""0.124""]","[1,1,1,0]",0,62,62,62,1,0,0,,,0,FALSE,,,,,,,,,,,,,,,,,,,,,,,,,,,,,,
,,001,2022-04-28_20h11.18.773,classification_task,2021.2.3,Win32,144.1129846,5d9a74f72aae4c031a29af9b,626b377229c10585ec392f89,626b39f1bd8a0cab449d1ccb,,,,,,,,,,,,,,,,,,,,,,,l,0,2.9157,"[""0.233"",""0.595"",""0.629"",""0.966""]","[1,0,1,1]",0,63,63,63,1,0,0,,,0,FALSE,,,,,,,,,,,,,,,,,,,,,,,,,,,,,,
,,001,2022-04-28_20h11.18.773,classification_task,2021.2.3,Win32,144.1129846,5d9a74f72aae4c031a29af9b,626b377229c10585ec392f89,626b39f1bd8a0cab449d1ccb,,,,,,,,,,,,,,,,,,,,,,,,,,,,,,,,,,,,,,,0, ,,0,6.76366843,269.7774,0,1,1,1,1,2,2,,,,,,,,,,,,,,,,,
,,001,2022-04-28_20h11.18.773,classification_task,2021.2.3,Win32,144.1129846,5d9a74f72aae4c031a29af9b,626b377229c10585ec392f89,626b39f1bd8a0cab449d1ccb,,,,,,,,,,,,,,,,,,,,,,,,,,,,,,,,,,,,,,,1,  ,,0,9.384675681,272.9769,0,1,1,1,1,2,2,,,,,,,,,,,,,,,,,
,,001,2022-04-28_20h11.18.773,classification_task,2021.2.3,Win32,144.1129846,5d9a74f72aae4c031a29af9b,626b377229c10585ec392f89,626b39f1bd8a0cab449d1ccb,,,,,,,,,,,,,,,,,,,,,,,,,,,,,,,,,,,,,,,2,  ,,0,10,277.0125,0,1,1,1,1,2,2,,,,,,,,,,,,,,,,,
,,001,2022-04-28_20h11.18.773,classification_task,2021.2.3,Win32,144.1129846,5d9a74f72aae4c031a29af9b,626b377229c10585ec392f89,626b39f1bd8a0cab449d1ccb,,,,,,,,,,,,,,,,,,,,,,,,,,,,,,,,,,,,,,,,,,,,,0,1,1,1,1,,2,,,,,,,,,,,,,,,,,
,,001,2022-04-28_20h11.18.773,classification_task,2021.2.3,Win32,144.1129846,5d9a74f72aae4c031a29af9b,626b377229c10585ec392f89,626b39f1bd8a0cab449d1ccb,,,,,,,,,,,,,,,,,,,,,space,10.1414,l,0,6.4286,"[""0.233"",""0.143"",""0.629"",""0.966""]","[1,0,1,1]",0,0,0,0,1,0,0,,,0,FALSE,,,,,,,,,,,,,,,,,,,,,,,,,,,,,,
,,001,2022-04-28_20h11.18.773,classification_task,2021.2.3,Win32,144.1129846,5d9a74f72aae4c031a29af9b,626b377229c10585ec392f89,626b39f1bd8a0cab449d1ccb,,,,,,,,,,,,,,,,,,,,,,,l,1,4.5693,"[""0.053"",""0.148"",""0.671"",""0.736""]","[1,0,1,1]",0,1,1,1,1,1,1,,,0,FALSE,,,,,,,,,,,,,,,,,,,,,,,,,,,,,,
,,001,2022-04-28_20h11.18.773,classification_task,2021.2.3,Win32,144.1129846,5d9a74f72aae4c031a29af9b,626b377229c10585ec392f89,626b39f1bd8a0cab449d1ccb,,,,,,,,,,,,,,,,,,,,,,,l,0,5.9996,"[""0.233"",""0.417"",""0.629"",""0.563""]","[1,1,1,0]",0,2,2,2,1,0,0,,,0,FALSE,,,,,,,,,,,,,,,,,,,,,,,,,,,,,,
,,001,2022-04-28_20h11.18.773,classification_task,2021.2.3,Win32,144.1129846,5d9a74f72aae4c031a29af9b,626b377229c10585ec392f89,626b39f1bd8a0cab449d1ccb,,,,,,,,,,,,,,,,,,,,,,,a,0,4.8262,"[""0.148"",""0.286"",""0.471"",""0.804""]","[0,1,1,1]",0,3,3,3,1,1,0,,,0,FALSE,,,,,,,,,,,,,,,,,,,,,,,,,,,,,,
,,001,2022-04-28_20h11.18.773,classification_task,2021.2.3,Win32,144.1129846,5d9a74f72aae4c031a29af9b,626b377229c10585ec392f89,626b39f1bd8a0cab449d1ccb,,,,,,,,,,,,,,,,,,,,,,,l,1,3.9373,"[""0.053"",""0.182"",""0.552"",""0.736""]","[1,1,0,1]",0,4,4,4,1,1,1,,,0,FALSE,,,,,,,,,,,,,,,,,,,,,,,,,,,,,,
,,001,2022-04-28_20h11.18.773,classification_task,2021.2.3,Win32,144.1129846,5d9a74f72aae4c031a29af9b,626b377229c10585ec392f89,626b39f1bd8a0cab449d1ccb,,,,,,,,,,,,,,,,,,,,,,,a,1,3.2635,"[""0.148"",""0.417"",""0.629"",""0.966""]","[0,1,1,1]",0,5,5,5,1,0,0,,,0,FALSE,,,,,,,,,,,,,,,,,,,,,,,,,,,,,,
,,001,2022-04-28_20h11.18.773,classification_task,2021.2.3,Win32,144.1129846,5d9a74f72aae4c031a29af9b,626b377229c10585ec392f89,626b39f1bd8a0cab449d1ccb,,,,,,,,,,,,,,,,,,,,,,,a,1,2.3331,"[""0.365"",""0.513"",""0.849"",""0.904""]","[0,1,1,1]",0,6,6,6,1,0,1,,,0,FALSE,,,,,,,,,,,,,,,,,,,,,,,,,,,,,,
,,001,2022-04-28_20h11.18.773,classification_task,2021.2.3,Win32,144.1129846,5d9a74f72aae4c031a29af9b,626b377229c10585ec392f89,626b39f1bd8a0cab449d1ccb,,,,,,,,,,,,,,,,,,,,,,,l,1,2.3677,"[""0.053"",""0.182"",""0.671"",""0.581""]","[1,1,1,0]",0,7,7,7,1,1,1,,,0,FALSE,,,,,,,,,,,,,,,,,,,,,,,,,,,,,,
,,001,2022-04-28_20h11.18.773,classification_task,2021.2.3,Win32,144.1129846,5d9a74f72aae4c031a29af9b,626b377229c10585ec392f89,626b39f1bd8a0cab449d1ccb,,,,,,,,,,,,,,,,,,,,,,,a,1,3.1319,"[""0.326"",""0.577"",""0.849"",""0.904""]","[1,0,1,1]",0,8,8,8,1,0,1,,,0,FALSE,,,,,,,,,,,,,,,,,,,,,,,,,,,,,,
,,001,2022-04-28_20h11.18.773,classification_task,2021.2.3,Win32,144.1129846,5d9a74f72aae4c031a29af9b,626b377229c10585ec392f89,626b39f1bd8a0cab449d1ccb,,,,,,,,,,,,,,,,,,,,,,,l,1,4.0901,"[""0.087"",""0.286"",""0.471"",""0.552""]","[1,1,1,0]",0,9,9,9,1,1,0,,,0,FALSE,,,,,,,,,,,,,,,,,,,,,,,,,,,,,,
,,001,2022-04-28_20h11.18.773,classification_task,2021.2.3,Win32,144.1129846,5d9a74f72aae4c031a29af9b,626b377229c10585ec392f89,626b39f1bd8a0cab449d1ccb,,,,,,,,,,,,,,,,,,,,,,,a,0,3.8404,"[""0.087"",""0.286"",""0.124"",""0.804""]","[1,1,0,1]",0,10,10,10,1,1,0,,,0,FALSE,,,,,,,,,,,,,,,,,,,,,,,,,,,,,,
,,001,2022-04-28_20h11.18.773,classification_task,2021.2.3,Win32,144.1129846,5d9a74f72aae4c031a29af9b,626b377229c10585ec392f89,626b39f1bd8a0cab449d1ccb,,,,,,,,,,,,,,,,,,,,,,,a,1,3.0416,"[""0.233"",""0.417"",""0.365"",""0.966""]","[1,1,0,1]",0,11,11,11,1,0,0,,,0,FALSE,,,,,,,,,,,,,,,,,,,,,,,,,,,,,,
,,001,2022-04-28_20h11.18.773,classification_task,2021.2.3,Win32,144.1129846,5d9a74f72aae4c031a29af9b,626b377229c10585ec392f89,626b39f1bd8a0cab449d1ccb,,,,,,,,,,,,,,,,,,,,,,,a,0,5.0003,"[""0.125"",""0.182"",""0.671"",""0.736""]","[0,1,1,1]",0,12,12,12,1,1,1,,,0,FALSE,,,,,,,,,,,,,,,,,,,,,,,,,,,,,,
,,001,2022-04-28_20h11.18.773,classification_task,2021.2.3,Win32,144.1129846,5d9a74f72aae4c031a29af9b,626b377229c10585ec392f89,626b39f1bd8a0cab449d1ccb,,,,,,,,,,,,,,,,,,,,,,,a,1,4.0066,"[""0.326"",""0.513"",""0.849"",""0.369""]","[1,1,1,0]",0,13,13,13,1,0,1,,,0,FALSE,,,,,,,,,,,,,,,,,,,,,,,,,,,,,,
,,001,2022-04-28_20h11.18.773,classification_task,2021.2.3,Win32,144.1129846,5d9a74f72aae4c031a29af9b,626b377229c10585ec392f89,626b39f1bd8a0cab449d1ccb,,,,,,,,,,,,,,,,,,,,,,,a,0,4.1526,"[""0.087"",""0.365"",""0.471"",""0.804""]","[1,0,1,1]",0,14,14,14,1,1,0,,,0,FALSE,,,,,,,,,,,,,,,,,,,,,,,,,,,,,,
,,001,2022-04-28_20h11.18.773,classification_task,2021.2.3,Win32,144.1129846,5d9a74f72aae4c031a29af9b,626b377229c10585ec392f89,626b39f1bd8a0cab449d1ccb,,,,,,,,,,,,,,,,,,,,,,,l,0,3.4369,"[""0.326"",""0.513"",""0.563"",""0.904""]","[1,1,0,1]",0,15,15,15,1,0,1,,,0,FALSE,,,,,,,,,,,,,,,,,,,,,,,,,,,,,,
,,001,2022-04-28_20h11.18.773,classification_task,2021.2.3,Win32,144.1129846,5d9a74f72aae4c031a29af9b,626b377229c10585ec392f89,626b39f1bd8a0cab449d1ccb,,,,,,,,,,,,,,,,,,,,,,,a,1,3.5764,"[""0.326"",""0.513"",""0.370"",""0.904""]","[1,1,0,1]",0,16,16,16,1,0,1,,,0,FALSE,,,,,,,,,,,,,,,,,,,,,,,,,,,,,,
,,001,2022-04-28_20h11.18.773,classification_task,2021.2.3,Win32,144.1129846,5d9a74f72aae4c031a29af9b,626b377229c10585ec392f89,626b39f1bd8a0cab449d1ccb,,,,,,,,,,,,,,,,,,,,,,,l,0,5.3121,"[""0.233"",""0.417"",""0.629"",""0.563""]","[1,1,1,0]",0,17,17,17,1,0,0,,,0,FALSE,,,,,,,,,,,,,,,,,,,,,,,,,,,,,,
,,001,2022-04-28_20h11.18.773,classification_task,2021.2.3,Win32,144.1129846,5d9a74f72aae4c031a29af9b,626b377229c10585ec392f89,626b39f1bd8a0cab449d1ccb,,,,,,,,,,,,,,,,,,,,,,,a,0,4.3885,"[""0.087"",""0.286"",""0.563"",""0.804""]","[1,1,0,1]",0,18,18,18,1,1,0,,,0,FALSE,,,,,,,,,,,,,,,,,,,,,,,,,,,,,,
,,001,2022-04-28_20h11.18.773,classification_task,2021.2.3,Win32,144.1129846,5d9a74f72aae4c031a29af9b,626b377229c10585ec392f89,626b39f1bd8a0cab449d1ccb,,,,,,,,,,,,,,,,,,,,,,,a,1,4.4996,"[""0.326"",""0.369"",""0.849"",""0.904""]","[1,0,1,1]",0,19,19,19,1,0,1,,,0,FALSE,,,,,,,,,,,,,,,,,,,,,,,,,,,,,,
,,001,2022-04-28_20h11.18.773,classification_task,2021.2.3,Win32,144.1129846,5d9a74f72aae4c031a29af9b,626b377229c10585ec392f89,626b39f1bd8a0cab449d1ccb,,,,,,,,,,,,,,,,,,,,,,,a,1,5.6038,"[""0.233"",""0.417"",""0.369"",""0.966""]","[1,1,0,1]",0,20,20,20,1,0,0,,,0,FALSE,,,,,,,,,,,,,,,,,,,,,,,,,,,,,,
,,001,2022-04-28_20h11.18.773,classification_task,2021.2.3,Win32,144.1129846,5d9a74f72aae4c031a29af9b,626b377229c10585ec392f89,626b39f1bd8a0cab449d1ccb,,,,,,,,,,,,,,,,,,,,,,,a,1,4.3262,"[""0.233"",""0.370"",""0.629"",""0.966""]","[1,0,1,1]",0,21,21,21,1,0,0,,,0,FALSE,,,,,,,,,,,,,,,,,,,,,,,,,,,,,,
,,001,2022-04-28_20h11.18.773,classification_task,2021.2.3,Win32,144.1129846,5d9a74f72aae4c031a29af9b,626b377229c10585ec392f89,626b39f1bd8a0cab449d1ccb,,,,,,,,,,,,,,,,,,,,,,,l,1,3.9994,"[""0.053"",""0.182"",""0.125"",""0.736""]","[1,1,0,1]",0,22,22,22,1,1,1,,,0,FALSE,,,,,,,,,,,,,,,,,,,,,,,,,,,,,,
,,001,2022-04-28_20h11.18.773,classification_task,2021.2.3,Win32,144.1129846,5d9a74f72aae4c031a29af9b,626b377229c10585ec392f89,626b39f1bd8a0cab449d1ccb,,,,,,,,,,,,,,,,,,,,,,,a,0,2.694,"[""0.577"",""0.286"",""0.471"",""0.804""]","[0,1,1,1]",0,23,23,23,1,1,0,,,0,FALSE,,,,,,,,,,,,,,,,,,,,,,,,,,,,,,
,,001,2022-04-28_20h11.18.773,classification_task,2021.2.3,Win32,144.1129846,5d9a74f72aae4c031a29af9b,626b377229c10585ec392f89,626b39f1bd8a0cab449d1ccb,,,,,,,,,,,,,,,,,,,,,,,a,0,2.9234,"[""0.087"",""0.286"",""0.471"",""0.581""]","[1,1,1,0]",0,24,24,24,1,1,0,,,0,FALSE,,,,,,,,,,,,,,,,,,,,,,,,,,,,,,
,,001,2022-04-28_20h11.18.773,classification_task,2021.2.3,Win32,144.1129846,5d9a74f72aae4c031a29af9b,626b377229c10585ec392f89,626b39f1bd8a0cab449d1ccb,,,,,,,,,,,,,,,,,,,,,,,l,1,4.4789,"[""0.053"",""0.182"",""0.671"",""0.148""]","[1,1,1,0]",0,25,25,25,1,1,1,,,0,FALSE,,,,,,,,,,,,,,,,,,,,,,,,,,,,,,
,,001,2022-04-28_20h11.18.773,classification_task,2021.2.3,Win32,144.1129846,5d9a74f72aae4c031a29af9b,626b377229c10585ec392f89,626b39f1bd8a0cab449d1ccb,,,,,,,,,,,,,,,,,,,,,,,a,1,3.5341,"[""0.595"",""0.513"",""0.849"",""0.904""]","[0,1,1,1]",0,26,26,26,1,0,1,,,0,FALSE,,,,,,,,,,,,,,,,,,,,,,,,,,,,,,
,,001,2022-04-28_20h11.18.773,classification_task,2021.2.3,Win32,144.1129846,5d9a74f72aae4c031a29af9b,626b377229c10585ec392f89,626b39f1bd8a0cab449d1ccb,,,,,,,,,,,,,,,,,,,,,,,l,1,3.812,"[""0.053"",""0.370"",""0.671"",""0.736""]","[1,0,1,1]",0,27,27,27,1,1,1,,,0,FALSE,,,,,,,,,,,,,,,,,,,,,,,,,,,,,,
,,001,2022-04-28_20h11.18.773,classification_task,2021.2.3,Win32,144.1129846,5d9a74f72aae4c031a29af9b,626b377229c10585ec392f89,626b39f1bd8a0cab449d1ccb,,,,,,,,,,,,,,,,,,,,,,,l,1,3.4095,"[""0.131"",""0.182"",""0.671"",""0.736""]","[0,1,1,1]",0,28,28,28,1,1,1,,,0,FALSE,,,,,,,,,,,,,,,,,,,,,,,,,,,,,,
,,001,2022-04-28_20h11.18.773,classification_task,2021.2.3,Win32,144.1129846,5d9a74f72aae4c031a29af9b,626b377229c10585ec392f89,626b39f1bd8a0cab449d1ccb,,,,,,,,,,,,,,,,,,,,,,,l,0,3.9653,"[""0.370"",""0.417"",""0.629"",""0.966""]","[0,1,1,1]",0,29,29,29,1,0,0,,,0,FALSE,,,,,,,,,,,,,,,,,,,,,,,,,,,,,,
,,001,2022-04-28_20h11.18.773,classification_task,2021.2.3,Win32,144.1129846,5d9a74f72aae4c031a29af9b,626b377229c10585ec392f89,626b39f1bd8a0cab449d1ccb,,,,,,,,,,,,,,,,,,,,,,,a,0,3.4723,"[""0.087"",""0.370"",""0.471"",""0.804""]","[1,0,1,1]",0,30,30,30,1,1,0,,,0,FALSE,,,,,,,,,,,,,,,,,,,,,,,,,,,,,,
,,001,2022-04-28_20h11.18.773,classification_task,2021.2.3,Win32,144.1129846,5d9a74f72aae4c031a29af9b,626b377229c10585ec392f89,626b39f1bd8a0cab449d1ccb,,,,,,,,,,,,,,,,,,,,,,,a,1,3.93,"[""0.326"",""0.513"",""0.849"",""0.125""]","[1,1,1,0]",0,31,31,31,1,0,1,,,0,FALSE,,,,,,,,,,,,,,,,,,,,,,,,,,,,,,
,,001,2022-04-28_20h11.18.773,classification_task,2021.2.3,Win32,144.1129846,5d9a74f72aae4c031a29af9b,626b377229c10585ec392f89,626b39f1bd8a0cab449d1ccb,,,,,,,,,,,,,,,,,,,,,,,l,1,3.6111,"[""0.053"",""0.182"",""0.143"",""0.736""]","[1,1,0,1]",0,32,32,32,1,1,1,,,0,FALSE,,,,,,,,,,,,,,,,,,,,,,,,,,,,,,
,,001,2022-04-28_20h11.18.773,classification_task,2021.2.3,Win32,144.1129846,5d9a74f72aae4c031a29af9b,626b377229c10585ec392f89,626b39f1bd8a0cab449d1ccb,,,,,,,,,,,,,,,,,,,,,,,a,1,3.9094,"[""0.326"",""0.365"",""0.849"",""0.904""]","[1,0,1,1]",0,33,33,33,1,0,1,,,0,FALSE,,,,,,,,,,,,,,,,,,,,,,,,,,,,,,
,,001,2022-04-28_20h11.18.773,classification_task,2021.2.3,Win32,144.1129846,5d9a74f72aae4c031a29af9b,626b377229c10585ec392f89,626b39f1bd8a0cab449d1ccb,,,,,,,,,,,,,,,,,,,,,,,a,0,3.6594,"[""0.087"",""0.286"",""0.370"",""0.804""]","[1,1,0,1]",0,34,34,34,1,1,0,,,0,FALSE,,,,,,,,,,,,,,,,,,,,,,,,,,,,,,
,,001,2022-04-28_20h11.18.773,classification_task,2021.2.3,Win32,144.1129846,5d9a74f72aae4c031a29af9b,626b377229c10585ec392f89,626b39f1bd8a0cab449d1ccb,,,,,,,,,,,,,,,,,,,,,,,a,1,2.6387,"[""0.326"",""0.513"",""0.849"",""0.365""]","[1,1,1,0]",0,35,35,35,1,0,1,,,0,FALSE,,,,,,,,,,,,,,,,,,,,,,,,,,,,,,
,,001,2022-04-28_20h11.18.773,classification_task,2021.2.3,Win32,144.1129846,5d9a74f72aae4c031a29af9b,626b377229c10585ec392f89,626b39f1bd8a0cab449d1ccb,,,,,,,,,,,,,,,,,,,,,,,a,0,2.6943,"[""0.087"",""0.286"",""0.471"",""0.131""]","[1,1,1,0]",0,36,36,36,1,1,0,,,0,FALSE,,,,,,,,,,,,,,,,,,,,,,,,,,,,,,
,,001,2022-04-28_20h11.18.773,classification_task,2021.2.3,Win32,144.1129846,5d9a74f72aae4c031a29af9b,626b377229c10585ec392f89,626b39f1bd8a0cab449d1ccb,,,,,,,,,,,,,,,,,,,,,,,a,0,2.8055,"[""0.125"",""0.286"",""0.471"",""0.804""]","[0,1,1,1]",0,37,37,37,1,1,0,,,0,FALSE,,,,,,,,,,,,,,,,,,,,,,,,,,,,,,
,,001,2022-04-28_20h11.18.773,classification_task,2021.2.3,Win32,144.1129846,5d9a74f72aae4c031a29af9b,626b377229c10585ec392f89,626b39f1bd8a0cab449d1ccb,,,,,,,,,,,,,,,,,,,,,,,l,0,2.7293,"[""0.233"",""0.417"",""0.563"",""0.966""]","[1,1,0,1]",0,38,38,38,1,0,0,,,0,FALSE,,,,,,,,,,,,,,,,,,,,,,,,,,,,,,
,,001,2022-04-28_20h11.18.773,classification_task,2021.2.3,Win32,144.1129846,5d9a74f72aae4c031a29af9b,626b377229c10585ec392f89,626b39f1bd8a0cab449d1ccb,,,,,,,,,,,,,,,,,,,,,,,l,0,3.5276,"[""0.563"",""0.513"",""0.849"",""0.904""]","[0,1,1,1]",0,39,39,39,1,0,1,,,0,FALSE,,,,,,,,,,,,,,,,,,,,,,,,,,,,,,
,,001,2022-04-28_20h11.18.773,classification_task,2021.2.3,Win32,144.1129846,5d9a74f72aae4c031a29af9b,626b377229c10585ec392f89,626b39f1bd8a0cab449d1ccb,,,,,,,,,,,,,,,,,,,,,,,l,0,2.9373,"[""0.233"",""0.581"",""0.629"",""0.966""]","[1,0,1,1]",0,40,40,40,1,0,0,,,0,FALSE,,,,,,,,,,,,,,,,,,,,,,,,,,,,,,
,,001,2022-04-28_20h11.18.773,classification_task,2021.2.3,Win32,144.1129846,5d9a74f72aae4c031a29af9b,626b377229c10585ec392f89,626b39f1bd8a0cab449d1ccb,,,,,,,,,,,,,,,,,,,,,,,l,1,3.2428,"[""0.053"",""0.131"",""0.671"",""0.736""]","[1,0,1,1]",0,41,41,41,1,1,1,,,0,FALSE,,,,,,,,,,,,,,,,,,,,,,,,,,,,,,
,,001,2022-04-28_20h11.18.773,classification_task,2021.2.3,Win32,144.1129846,5d9a74f72aae4c031a29af9b,626b377229c10585ec392f89,626b39f1bd8a0cab449d1ccb,,,,,,,,,,,,,,,,,,,,,,,a,1,2.9927,"[""0.326"",""0.513"",""0.365"",""0.904""]","[1,1,0,1]",0,42,42,42,1,0,1,,,0,FALSE,,,,,,,,,,,,,,,,,,,,,,,,,,,,,,
,,001,2022-04-28_20h11.18.773,classification_task,2021.2.3,Win32,144.1129846,5d9a74f72aae4c031a29af9b,626b377229c10585ec392f89,626b39f1bd8a0cab449d1ccb,,,,,,,,,,,,,,,,,,,,,,,a,0,5.8957,"[""0.087"",""0.143"",""0.471"",""0.804""]","[1,0,1,1]",0,43,43,43,1,1,0,,,0,FALSE,,,,,,,,,,,,,,,,,,,,,,,,,,,,,,
,,001,2022-04-28_20h11.18.773,classification_task,2021.2.3,Win32,144.1129846,5d9a74f72aae4c031a29af9b,626b377229c10585ec392f89,626b39f1bd8a0cab449d1ccb,,,,,,,,,,,,,,,,,,,,,,,l,0,4.7705,"[""0.233"",""0.417"",""0.629"",""0.552""]","[1,1,1,0]",0,44,44,44,1,0,0,,,0,FALSE,,,,,,,,,,,,,,,,,,,,,,,,,,,,,,
,,001,2022-04-28_20h11.18.773,classification_task,2021.2.3,Win32,144.1129846,5d9a74f72aae4c031a29af9b,626b377229c10585ec392f89,626b39f1bd8a0cab449d1ccb,,,,,,,,,,,,,,,,,,,,,,,l,0,4.4095,"[""0.365"",""0.417"",""0.629"",""0.966""]","[0,1,1,1]",0,45,45,45,1,0,0,,,0,FALSE,,,,,,,,,,,,,,,,,,,,,,,,,,,,,,
,,001,2022-04-28_20h11.18.773,classification_task,2021.2.3,Win32,144.1129846,5d9a74f72aae4c031a29af9b,626b377229c10585ec392f89,626b39f1bd8a0cab449d1ccb,,,,,,,,,,,,,,,,,,,,,,,l,1,3.3676,"[""0.370"",""0.182"",""0.671"",""0.736""]","[0,1,1,1]",0,46,46,46,1,1,1,,,0,FALSE,,,,,,,,,,,,,,,,,,,,,,,,,,,,,,
,,001,2022-04-28_20h11.18.773,classification_task,2021.2.3,Win32,144.1129846,5d9a74f72aae4c031a29af9b,626b377229c10585ec392f89,626b39f1bd8a0cab449d1ccb,,,,,,,,,,,,,,,,,,,,,,,l,1,4.4441,"[""0.053"",""0.182"",""0.671"",""0.125""]","[1,1,1,0]",0,47,47,47,1,1,1,,,0,FALSE,,,,,,,,,,,,,,,,,,,,,,,,,,,,,,
,,001,2022-04-28_20h11.18.773,classification_task,2021.2.3,Win32,144.1129846,5d9a74f72aae4c031a29af9b,626b377229c10585ec392f89,626b39f1bd8a0cab449d1ccb,,,,,,,,,,,,,,,,,,,,,,,a,0,3.6732,"[""0.087"",""0.370"",""0.471"",""0.804""]","[1,0,1,1]",0,48,48,48,1,1,0,,,0,FALSE,,,,,,,,,,,,,,,,,,,,,,,,,,,,,,
,,001,2022-04-28_20h11.18.773,classification_task,2021.2.3,Win32,144.1129846,5d9a74f72aae4c031a29af9b,626b377229c10585ec392f89,626b39f1bd8a0cab449d1ccb,,,,,,,,,,,,,,,,,,,,,,,l,0,3.5689,"[""0.233"",""0.417"",""0.595"",""0.966""]","[1,1,0,1]",0,49,49,49,1,0,0,,,0,FALSE,,,,,,,,,,,,,,,,,,,,,,,,,,,,,,
,,001,2022-04-28_20h11.18.773,classification_task,2021.2.3,Win32,144.1129846,5d9a74f72aae4c031a29af9b,626b377229c10585ec392f89,626b39f1bd8a0cab449d1ccb,,,,,,,,,,,,,,,,,,,,,,,l,1,3.9864,"[""0.053"",""0.182"",""0.671"",""0.370""]","[1,1,1,0]",0,50,50,50,1,1,1,,,0,FALSE,,,,,,,,,,,,,,,,,,,,,,,,,,,,,,
,,001,2022-04-28_20h11.18.773,classification_task,2021.2.3,Win32,144.1129846,5d9a74f72aae4c031a29af9b,626b377229c10585ec392f89,626b39f1bd8a0cab449d1ccb,,,,,,,,,,,,,,,,,,,,,,,l,1,4.4653,"[""0.125"",""0.182"",""0.671"",""0.736""]","[0,1,1,1]",0,51,51,51,1,1,1,,,0,FALSE,,,,,,,,,,,,,,,,,,,,,,,,,,,,,,
,,001,2022-04-28_20h11.18.773,classification_task,2021.2.3,Win32,144.1129846,5d9a74f72aae4c031a29af9b,626b377229c10585ec392f89,626b39f1bd8a0cab449d1ccb,,,,,,,,,,,,,,,,,,,,,,,a,0,3.8676,"[""0.087"",""0.286"",""0.125"",""0.804""]","[1,1,0,1]",0,52,52,52,1,1,0,,,0,FALSE,,,,,,,,,,,,,,,,,,,,,,,,,,,,,,
,,001,2022-04-28_20h11.18.773,classification_task,2021.2.3,Win32,144.1129846,5d9a74f72aae4c031a29af9b,626b377229c10585ec392f89,626b39f1bd8a0cab449d1ccb,,,,,,,,,,,,,,,,,,,,,,,l,0,6.0829,"[""0.233"",""0.417"",""0.629"",""0.552""]","[1,1,1,0]",0,53,53,53,1,0,0,,,0,FALSE,,,,,,,,,,,,,,,,,,,,,,,,,,,,,,
,,001,2022-04-28_20h11.18.773,classification_task,2021.2.3,Win32,144.1129846,5d9a74f72aae4c031a29af9b,626b377229c10585ec392f89,626b39f1bd8a0cab449d1ccb,,,,,,,,,,,,,,,,,,,,,,,l,0,4.4166,"[""0.124"",""0.513"",""0.849"",""0.904""]","[0,1,1,1]",0,54,54,54,1,0,1,,,0,FALSE,,,,,,,,,,,,,,,,,,,,,,,,,,,,,,
,,001,2022-04-28_20h11.18.773,classification_task,2021.2.3,Win32,144.1129846,5d9a74f72aae4c031a29af9b,626b377229c10585ec392f89,626b39f1bd8a0cab449d1ccb,,,,,,,,,,,,,,,,,,,,,,,a,0,4.3334,"[""0.563"",""0.286"",""0.471"",""0.804""]","[0,1,1,1]",0,55,55,55,1,1,0,,,0,FALSE,,,,,,,,,,,,,,,,,,,,,,,,,,,,,,
,,001,2022-04-28_20h11.18.773,classification_task,2021.2.3,Win32,144.1129846,5d9a74f72aae4c031a29af9b,626b377229c10585ec392f89,626b39f1bd8a0cab449d1ccb,,,,,,,,,,,,,,,,,,,,,,,l,0,3.5971,"[""0.326"",""0.513"",""0.849"",""0.131""]","[1,1,1,0]",0,56,56,56,1,0,1,,,0,FALSE,,,,,,,,,,,,,,,,,,,,,,,,,,,,,,
,,001,2022-04-28_20h11.18.773,classification_task,2021.2.3,Win32,144.1129846,5d9a74f72aae4c031a29af9b,626b377229c10585ec392f89,626b39f1bd8a0cab449d1ccb,,,,,,,,,,,,,,,,,,,,,,,l,1,4.2224,"[""0.053"",""0.182"",""0.131"",""0.736""]","[1,1,0,1]",0,57,57,57,1,1,1,,,0,FALSE,,,,,,,,,,,,,,,,,,,,,,,,,,,,,,
,,001,2022-04-28_20h11.18.773,classification_task,2021.2.3,Win32,144.1129846,5d9a74f72aae4c031a29af9b,626b377229c10585ec392f89,626b39f1bd8a0cab449d1ccb,,,,,,,,,,,,,,,,,,,,,,,a,0,3.4025,"[""0.087"",""0.286"",""0.471"",""0.148""]","[1,1,1,0]",0,58,58,58,1,1,0,,,0,FALSE,,,,,,,,,,,,,,,,,,,,,,,,,,,,,,
,,001,2022-04-28_20h11.18.773,classification_task,2021.2.3,Win32,144.1129846,5d9a74f72aae4c031a29af9b,626b377229c10585ec392f89,626b39f1bd8a0cab449d1ccb,,,,,,,,,,,,,,,,,,,,,,,l,0,3.222,"[""0.563"",""0.417"",""0.629"",""0.966""]","[0,1,1,1]",0,59,59,59,1,0,0,,,0,FALSE,,,,,,,,,,,,,,,,,,,,,,,,,,,,,,
,,001,2022-04-28_20h11.18.773,classification_task,2021.2.3,Win32,144.1129846,5d9a74f72aae4c031a29af9b,626b377229c10585ec392f89,626b39f1bd8a0cab449d1ccb,,,,,,,,,,,,,,,,,,,,,,,a,1,2.868,"[""0.326"",""0.563"",""0.849"",""0.904""]","[1,0,1,1]",0,60,60,60,1,0,1,,,0,FALSE,,,,,,,,,,,,,,,,,,,,,,,,,,,,,,
,,001,2022-04-28_20h11.18.773,classification_task,2021.2.3,Win32,144.1129846,5d9a74f72aae4c031a29af9b,626b377229c10585ec392f89,626b39f1bd8a0cab449d1ccb,,,,,,,,,,,,,,,,,,,,,,,l,0,9.7981,"[""0.326"",""0.513"",""0.143"",""0.904""]","[1,1,0,1]",0,61,61,61,1,0,1,,,0,FALSE,,,,,,,,,,,,,,,,,,,,,,,,,,,,,,
,,001,2022-04-28_20h11.18.773,classification_task,2021.2.3,Win32,144.1129846,5d9a74f72aae4c031a29af9b,626b377229c10585ec392f89,626b39f1bd8a0cab449d1ccb,,,,,,,,,,,,,,,,,,,,,,,l,1,9.5413,"[""0.053"",""0.124"",""0.671"",""0.736""]","[1,0,1,1]",0,62,62,62,1,1,1,,,0,FALSE,,,,,,,,,,,,,,,,,,,,,,,,,,,,,,
,,001,2022-04-28_20h11.18.773,classification_task,2021.2.3,Win32,144.1129846,5d9a74f72aae4c031a29af9b,626b377229c10585ec392f89,626b39f1bd8a0cab449d1ccb,,,,,,,,,,,,,,,,,,,,,,,a,1,7.8887,"[""0.233"",""0.370"",""0.629"",""0.966""]","[1,0,1,1]",0,63,63,63,1,0,0,,,0,FALSE,,,,,,,,,,,,,,,,,,,,,,,,,,,,,,
,,001,2022-04-28_20h11.18.773,classification_task,2021.2.3,Win32,144.1129846,5d9a74f72aae4c031a29af9b,626b377229c10585ec392f89,626b39f1bd8a0cab449d1ccb,,,,,,,,,,,,,,,,,,,,,,,,,,,,,,,,,,,,,,,0, ,,0,7.572016461,346.4213,0,2,2,2,1,2,3,,,,,,,,,,,,,,,,,
,,001,2022-04-28_20h11.18.773,classification_task,2021.2.3,Win32,144.1129846,5d9a74f72aae4c031a29af9b,626b377229c10585ec392f89,626b39f1bd8a0cab449d1ccb,,,,,,,,,,,,,,,,,,,,,,,,,,,,,,,,,,,,,,,1,  ,,0,9.62962963,349.5552,0,2,2,2,1,2,3,,,,,,,,,,,,,,,,,
,,001,2022-04-28_20h11.18.773,classification_task,2021.2.3,Win32,144.1129846,5d9a74f72aae4c031a29af9b,626b377229c10585ec392f89,626b39f1bd8a0cab449d1ccb,,,,,,,,,,,,,,,,,,,,,,,,,,,,,,,,,,,,,,,2,  ,,0,10,351.9169,0,2,2,2,1,2,3,,,,,,,,,,,,,,,,,
,,001,2022-04-28_20h11.18.773,classification_task,2021.2.3,Win32,144.1129846,5d9a74f72aae4c031a29af9b,626b377229c10585ec392f89,626b39f1bd8a0cab449d1ccb,,,,,,,,,,,,,,,,,,,,,,,,,,,,,,,,,,,,,,,,,,,,,0,2,2,2,1,,3,,,,,,,,,,,,,,,,,
,,001,2022-04-28_20h11.18.773,classification_task,2021.2.3,Win32,144.1129846,5d9a74f72aae4c031a29af9b,626b377229c10585ec392f89,626b39f1bd8a0cab449d1ccb,,,,,,,,,,,,,,,,,,,,,,,,,,,,,,,,,,,,,,,,,,,,,,,,,,,,,I believe the aid is a competent performer,,0.7,0,3,1344.1115,0,0,0,0,1,0,,,,
,,001,2022-04-28_20h11.18.773,classification_task,2021.2.3,Win32,144.1129846,5d9a74f72aae4c031a29af9b,626b377229c10585ec392f89,626b39f1bd8a0cab449d1ccb,,,,,,,,,,,,,,,,,,,,,,,,,,,,,,,,,,,,,,,,,,,,,,,,,,,,,I trust the aid,,0.7,0,2,1348.8961,0,0,0,0,1,0,,,,
,,001,2022-04-28_20h11.18.773,classification_task,2021.2.3,Win32,144.1129846,5d9a74f72aae4c031a29af9b,626b377229c10585ec392f89,626b39f1bd8a0cab449d1ccb,,,,,,,,,,,,,,,,,,,,,,,,,,,,,,,,,,,,,,,,,,,,,,,,,,,,,I have confidence in the advice given by the aid,,0.7,0,3,1354.3327,0,0,0,0,1,0,,,,
,,001,2022-04-28_20h11.18.773,classification_task,2021.2.3,Win32,144.1129846,5d9a74f72aae4c031a29af9b,626b377229c10585ec392f89,626b39f1bd8a0cab449d1ccb,,,,,,,,,,,,,,,,,,,,,,,,,,,,,,,,,,,,,,,,,,,,,,,,,,,,,I can depend on the aid,,0.7,0,2,1355.6399,0,0,0,0,1,0,,,,
,,001,2022-04-28_20h11.18.773,classification_task,2021.2.3,Win32,144.1129846,5d9a74f72aae4c031a29af9b,626b377229c10585ec392f89,626b39f1bd8a0cab449d1ccb,,,,,,,,,,,,,,,,,,,,,,,,,,,,,,,,,,,,,,,,,,,,,,,,,,,,,I can rely on the aid to behave in consistent ways,,0.7,0,4,1357.9299,0,0,0,0,1,0,,,,
,,001,2022-04-28_20h11.18.773,classification_task,2021.2.3,Win32,144.1129846,5d9a74f72aae4c031a29af9b,626b377229c10585ec392f89,626b39f1bd8a0cab449d1ccb,,,,,,,,,,,,,,,,,,,,,,,,,,,,,,,,,,,,,,,,,,,,,,,,,,,,,I can rely on the aid to do its best every time I take its advice,,0.7,0,4,1369.7189,0,0,0,0,1,0,,,,
,,001,2022-04-28_20h11.18.773,classification_task,2021.2.3,Win32,144.1129846,5d9a74f72aae4c031a29af9b,626b377229c10585ec392f89,626b39f1bd8a0cab449d1ccb,,,,,,,,,,,,,,,,,,,,,,,,,,,,,,,,,,,,,,,,,,,,,,,,,,,,,"On trials you completed with assistance from the aid, how frequently did you think the aid was correct?",,0.7,0,75%,,0,0,0,0,1,0,,,,
,,001,2022-04-28_20h11.18.773,classification_task,2021.2.3,Win32,144.1129846,5d9a74f72aae4c031a29af9b,626b377229c10585ec392f89,626b39f1bd8a0cab449d1ccb,,,,,,,,,,,,,,,,,,,,,,,,,,,,,,,,,,,,,,,,,,,,,,,,,,,,,"On trials you completed without the aid, how frequently did you think you were correct?",,0.7,0,50%,,0,0,0,0,1,0,,,,
,,001,2022-04-28_20h11.18.773,classification_task,2021.2.3,Win32,144.1129846,5d9a74f72aae4c031a29af9b,626b377229c10585ec392f89,626b39f1bd8a0cab449d1ccb,,,,,,,,,,,,,,,,,,,,,,,,,,,,,,,,,,,,,,,,,,,,,,,,,,,,,,,,,,,0,0,0,0,1,,,,,
,,001,2022-04-28_20h11.18.773,classification_task,2021.2.3,Win32,144.1129846,5d9a74f72aae4c031a29af9b,626b377229c10585ec392f89,626b39f1bd8a0cab449d1ccb,,,,,,,,,,,,,,,,,,,,,,,,,,,,,,,,,,,,,,,,,,,,,,,,,,,,,,,,,,,,,,,,,return,7.0856,1388.1251,
,,001,2022-04-28_20h11.18.773,classification_task,2021.2.3,Win32,144.1129846,5d9a74f72aae4c031a29af9b,626b377229c10585ec392f89,626b39f1bd8a0cab449d1ccb,,,,,,,,,,,,,,,,,,,,,,,,,,,,,,,,,,,,,,,,,,,,,,,,,,,,,,,,,,,,,,,,,,,,"Mozilla/5.0 (Windows NT 10.0; Win64; x64) AppleWebKit/537.36 (KHTML, like Gecko) Chrome/100.0.4896.127 Safari/537.36"
