usingWebGL,participant,session,date,expName,psychopyVersion,OS,frameRate,PROLIFIC_PID,STUDY_ID,SESSION_ID,signatures_friend,signatures_foe,band_ranges_top,band_ranges_bottom,formitemText,formtype,formundefined,formitemWidth,formindex,formresponse,formrt,key_resp_2.keys,key_resp_2.rt,tute_resp.keys,tute_resp.rt,tutorial.thisRepN,tutorial.thisTrialN,tutorial.thisN,tutorial.thisIndex,tutorial.ran,key_resp_4.keys,key_resp_4.rt,key_resp.keys,key_resp.corr,lines_presented,is_signal_presented,trials.thisRepN,trials.thisTrialN,trials.thisN,trials.thisIndex,trials.ran,vessel,active_band,lines,is_signal,supported_pos,catch_trial,key_resp.rt,debrief_formindex,debrief_formitemText,debrief_formtype,debrief_formitemWidth,debrief_formresponse,debrief_formrt,phases.thisRepN,phases.thisTrialN,phases.thisN,phases.thisIndex,phases.ran,phases.order,phase,key_resp_3.keys,trustitemText,trusttype,trustitemWidth,trustindex,trustresponse,trustrt,support_status.thisRepN,support_status.thisTrialN,support_status.thisN,support_status.thisIndex,support_status.ran,support_status.order,key_resp_5.keys,key_resp_5.rt,globalClockTime,userAgent
TRUE,,001,2022-04-29_13h13.33.388,classification_task,2021.2.3,Win32,60.25548325,5e3218f5de60e31ff2b2294c,626b377229c10585ec392f8a,626b3b801e07866f9acdc59d,,,,,,,,,,,,,,,,,,,,,,,,,,,,,,,,,,,,,,,,,,,,,,,,,,,,,,,,,,,,,,,,,,,,
,,001,2022-04-29_13h13.33.388,classification_task,2021.2.3,Win32,60.25548325,5e3218f5de60e31ff2b2294c,626b377229c10585ec392f8a,626b3b801e07866f9acdc59d,"[[""0.287"",""0.514"",""0.838"",""0.955""],[""0.167"",""0.562"",""0.663"",""0.899""]]","[[""0.131"",""0.217"",""0.622"",""0.700""],[""0.085"",""0.401"",""0.459"",""0.746""]]","[1,10]","[100,1000]",Video game experience,,,0.7,0,,,,,,,,,,,,,,,,,,,,,,,,,,,,,,,,,,,,,,,,,,,,,,,,,,,,,,,,,,,
,,001,2022-04-29_13h13.33.388,classification_task,2021.2.3,Win32,60.25548325,5e3218f5de60e31ff2b2294c,626b377229c10585ec392f8a,626b3b801e07866f9acdc59d,,,,,Approximately how many hours did you spend playing video games in the last week?,,,0.7,0,0,,,,,,,,,,,,,,,,,,,,,,,,,,,,,,,,,,,,,,,,,,,,,,,,,,,,,,,,,,
,,001,2022-04-29_13h13.33.388,classification_task,2021.2.3,Win32,60.25548325,5e3218f5de60e31ff2b2294c,626b377229c10585ec392f8a,626b3b801e07866f9acdc59d,,,,,"Which game did you play the most this year? (Enter ""None"" if you didn't play any)",,,0.7,0,None,,,,,,,,,,,,,,,,,,,,,,,,,,,,,,,,,,,,,,,,,,,,,,,,,,,,,,,,,,
,,001,2022-04-29_13h13.33.388,classification_task,2021.2.3,Win32,60.25548325,5e3218f5de60e31ff2b2294c,626b377229c10585ec392f8a,626b3b801e07866f9acdc59d,,,,,Visual perception,,,0.7,0,,,,,,,,,,,,,,,,,,,,,,,,,,,,,,,,,,,,,,,,,,,,,,,,,,,,,,,,,,,
,,001,2022-04-29_13h13.33.388,classification_task,2021.2.3,Win32,60.25548325,5e3218f5de60e31ff2b2294c,626b377229c10585ec392f8a,626b3b801e07866f9acdc59d,,,,,Do you have any form of color blindness?,,,0.7,0,No,17.3219,,,,,,,,,,,,,,,,,,,,,,,,,,,,,,,,,,,,,,,,,,,,,,,,,,,,,,,,,
,,001,2022-04-29_13h13.33.388,classification_task,2021.2.3,Win32,60.25548325,5e3218f5de60e31ff2b2294c,626b377229c10585ec392f8a,626b3b801e07866f9acdc59d,,,,,Do you use software to change the colour temperature of your screen (e.g. f.lux)?,,,0.7,0,No,18.2986,,,,,,,,,,,,,,,,,,,,,,,,,,,,,,,,,,,,,,,,,,,,,,,,,,,,,,,,,
,,001,2022-04-29_13h13.33.388,classification_task,2021.2.3,Win32,60.25548325,5e3218f5de60e31ff2b2294c,626b377229c10585ec392f8a,626b3b801e07866f9acdc59d,,,,,,,,,,,,space,27.4571,space,7.2301,0,0,0,0,1,,,,,,,,,,,,,,,,,,,,,,,,,,,,,,,,,,,,,,,,,,,,,,,,
,,001,2022-04-29_13h13.33.388,classification_task,2021.2.3,Win32,60.25548325,5e3218f5de60e31ff2b2294c,626b377229c10585ec392f8a,626b3b801e07866f9acdc59d,,,,,,,,,,,,,,space,7.0328,1,0,1,0,1,,,,,,,,,,,,,,,,,,,,,,,,,,,,,,,,,,,,,,,,,,,,,,,,
,,001,2022-04-29_13h13.33.388,classification_task,2021.2.3,Win32,60.25548325,5e3218f5de60e31ff2b2294c,626b377229c10585ec392f8a,626b3b801e07866f9acdc59d,,,,,,,,,,,,,,space,29.1447,2,0,2,0,1,,,,,,,,,,,,,,,,,,,,,,,,,,,,,,,,,,,,,,,,,,,,,,,,
,,001,2022-04-29_13h13.33.388,classification_task,2021.2.3,Win32,60.25548325,5e3218f5de60e31ff2b2294c,626b377229c10585ec392f8a,626b3b801e07866f9acdc59d,,,,,,,,,,,,,,space,5.9395,3,0,3,0,1,,,,,,,,,,,,,,,,,,,,,,,,,,,,,,,,,,,,,,,,,,,,,,,,
,,001,2022-04-29_13h13.33.388,classification_task,2021.2.3,Win32,60.25548325,5e3218f5de60e31ff2b2294c,626b377229c10585ec392f8a,626b3b801e07866f9acdc59d,,,,,,,,,,,,,,space,20.7077,4,0,4,0,1,,,,,,,,,,,,,,,,,,,,,,,,,,,,,,,,,,,,,,,,,,,,,,,,
,,001,2022-04-29_13h13.33.388,classification_task,2021.2.3,Win32,60.25548325,5e3218f5de60e31ff2b2294c,626b377229c10585ec392f8a,626b3b801e07866f9acdc59d,,,,,,,,,,,,,,,,,,,,,space,14.97,,0,"[""0.362"",""0.401"",""0.459"",""0.746""]","[0,1,1,1]",0,0,0,0,1,1,1,,,1,FALSE,,,,,,,,,,,,,,,,,,,,,,,,,,,,,,,
,,001,2022-04-29_13h13.33.388,classification_task,2021.2.3,Win32,60.25548325,5e3218f5de60e31ff2b2294c,626b377229c10585ec392f8a,626b3b801e07866f9acdc59d,,,,,,,,,,,,,,,,,,,,,,,a,1,"[""0.287"",""0.332"",""0.838"",""0.955""]","[1,0,1,1]",0,1,1,1,1,0,0,,,1,FALSE,8.281,,,,,,,,,,,,,,,,,,,,,,,,,,,,,,
,,001,2022-04-29_13h13.33.388,classification_task,2021.2.3,Win32,60.25548325,5e3218f5de60e31ff2b2294c,626b377229c10585ec392f8a,626b3b801e07866f9acdc59d,,,,,,,,,,,,,,,,,,,,,,,l,1,"[""0.131"",""0.217"",""0.347"",""0.700""]","[1,1,0,1]",0,2,2,2,1,1,0,,,1,FALSE,4.5143,,,,,,,,,,,,,,,,,,,,,,,,,,,,,,
,,001,2022-04-29_13h13.33.388,classification_task,2021.2.3,Win32,60.25548325,5e3218f5de60e31ff2b2294c,626b377229c10585ec392f8a,626b3b801e07866f9acdc59d,,,,,,,,,,,,,,,,,,,,,,,l,1,"[""0.085"",""0.796"",""0.459"",""0.746""]","[1,0,1,1]",0,3,3,3,1,1,1,,,1,FALSE,2.5483,,,,,,,,,,,,,,,,,,,,,,,,,,,,,,
,,001,2022-04-29_13h13.33.388,classification_task,2021.2.3,Win32,60.25548325,5e3218f5de60e31ff2b2294c,626b377229c10585ec392f8a,626b3b801e07866f9acdc59d,,,,,,,,,,,,,,,,,,,,,,,l,1,"[""0.131"",""0.324"",""0.622"",""0.700""]","[1,0,1,1]",0,4,4,4,1,1,0,,,1,FALSE,2.2668,,,,,,,,,,,,,,,,,,,,,,,,,,,,,,
,,001,2022-04-29_13h13.33.388,classification_task,2021.2.3,Win32,60.25548325,5e3218f5de60e31ff2b2294c,626b377229c10585ec392f8a,626b3b801e07866f9acdc59d,,,,,,,,,,,,,,,,,,,,,,,l,1,"[""0.041"",""0.217"",""0.622"",""0.700""]","[0,1,1,1]",0,5,5,5,1,1,0,,,1,FALSE,9.3476,,,,,,,,,,,,,,,,,,,,,,,,,,,,,,
,,001,2022-04-29_13h13.33.388,classification_task,2021.2.3,Win32,60.25548325,5e3218f5de60e31ff2b2294c,626b377229c10585ec392f8a,626b3b801e07866f9acdc59d,,,,,,,,,,,,,,,,,,,,,,,a,1,"[""0.167"",""0.347"",""0.663"",""0.899""]","[1,0,1,1]",0,6,6,6,1,0,1,,,1,FALSE,6.7474,,,,,,,,,,,,,,,,,,,,,,,,,,,,,,
,,001,2022-04-29_13h13.33.388,classification_task,2021.2.3,Win32,60.25548325,5e3218f5de60e31ff2b2294c,626b377229c10585ec392f8a,626b3b801e07866f9acdc59d,,,,,,,,,,,,,,,,,,,,,,,a,1,"[""0.358"",""0.562"",""0.663"",""0.899""]","[0,1,1,1]",0,7,7,7,1,0,1,,,1,FALSE,7.2821,,,,,,,,,,,,,,,,,,,,,,,,,,,,,,
,,001,2022-04-29_13h13.33.388,classification_task,2021.2.3,Win32,60.25548325,5e3218f5de60e31ff2b2294c,626b377229c10585ec392f8a,626b3b801e07866f9acdc59d,,,,,,,,,,,,,,,,,,,,,,,l,1,"[""0.085"",""0.401"",""0.799"",""0.746""]","[1,1,0,1]",0,8,8,8,1,1,1,,,1,FALSE,5.4337,,,,,,,,,,,,,,,,,,,,,,,,,,,,,,
,,001,2022-04-29_13h13.33.388,classification_task,2021.2.3,Win32,60.25548325,5e3218f5de60e31ff2b2294c,626b377229c10585ec392f8a,626b3b801e07866f9acdc59d,,,,,,,,,,,,,,,,,,,,,,,a,1,"[""0.167"",""0.562"",""0.799"",""0.899""]","[1,1,0,1]",0,9,9,9,1,0,1,,,1,FALSE,3.2324,,,,,,,,,,,,,,,,,,,,,,,,,,,,,,
,,001,2022-04-29_13h13.33.388,classification_task,2021.2.3,Win32,60.25548325,5e3218f5de60e31ff2b2294c,626b377229c10585ec392f8a,626b3b801e07866f9acdc59d,,,,,,,,,,,,,,,,,,,,,,,l,1,"[""0.131"",""0.217"",""0.622"",""0.324""]","[1,1,1,0]",0,10,10,10,1,1,0,,,1,FALSE,3.3975,,,,,,,,,,,,,,,,,,,,,,,,,,,,,,
,,001,2022-04-29_13h13.33.388,classification_task,2021.2.3,Win32,60.25548325,5e3218f5de60e31ff2b2294c,626b377229c10585ec392f8a,626b3b801e07866f9acdc59d,,,,,,,,,,,,,,,,,,,,,,,a,1,"[""0.287"",""0.514"",""0.332"",""0.955""]","[1,1,0,1]",0,11,11,11,1,0,0,,,1,FALSE,5.3664,,,,,,,,,,,,,,,,,,,,,,,,,,,,,,
,,001,2022-04-29_13h13.33.388,classification_task,2021.2.3,Win32,60.25548325,5e3218f5de60e31ff2b2294c,626b377229c10585ec392f8a,626b3b801e07866f9acdc59d,,,,,,,,,,,,,,,,,,,,,,,a,1,"[""0.324"",""0.514"",""0.838"",""0.955""]","[0,1,1,1]",0,12,12,12,1,0,0,,,1,FALSE,2.783,,,,,,,,,,,,,,,,,,,,,,,,,,,,,,
,,001,2022-04-29_13h13.33.388,classification_task,2021.2.3,Win32,60.25548325,5e3218f5de60e31ff2b2294c,626b377229c10585ec392f8a,626b3b801e07866f9acdc59d,,,,,,,,,,,,,,,,,,,,,,,l,1,"[""0.085"",""0.401"",""0.459"",""0.799""]","[1,1,1,0]",0,13,13,13,1,1,1,,,1,FALSE,2.7314,,,,,,,,,,,,,,,,,,,,,,,,,,,,,,
,,001,2022-04-29_13h13.33.388,classification_task,2021.2.3,Win32,60.25548325,5e3218f5de60e31ff2b2294c,626b377229c10585ec392f8a,626b3b801e07866f9acdc59d,,,,,,,,,,,,,,,,,,,,,,,a,1,"[""0.167"",""0.562"",""0.663"",""0.362""]","[1,1,1,0]",0,14,14,14,1,0,1,,,1,FALSE,2.5497,,,,,,,,,,,,,,,,,,,,,,,,,,,,,,
,,001,2022-04-29_13h13.33.388,classification_task,2021.2.3,Win32,60.25548325,5e3218f5de60e31ff2b2294c,626b377229c10585ec392f8a,626b3b801e07866f9acdc59d,,,,,,,,,,,,,,,,,,,,,,,a,1,"[""0.287"",""0.514"",""0.838"",""0.799""]","[1,1,1,0]",0,15,15,15,1,0,0,,,1,FALSE,2.5147,,,,,,,,,,,,,,,,,,,,,,,,,,,,,,
,,001,2022-04-29_13h13.33.388,classification_task,2021.2.3,Win32,60.25548325,5e3218f5de60e31ff2b2294c,626b377229c10585ec392f8a,626b3b801e07866f9acdc59d,,,,,,,,,,,,,,,,,,,,,,,l,1,"[""0.131"",""0.800"",""0.622"",""0.700""]","[1,0,1,1]",0,16,16,16,1,1,0,,,1,FALSE,1.9422,,,,,,,,,,,,,,,,,,,,,,,,,,,,,,
,,001,2022-04-29_13h13.33.388,classification_task,2021.2.3,Win32,60.25548325,5e3218f5de60e31ff2b2294c,626b377229c10585ec392f8a,626b3b801e07866f9acdc59d,,,,,,,,,,,,,,,,,,,,,,,l,1,"[""0.085"",""0.401"",""0.459"",""0.793""]","[1,1,1,0]",0,17,17,17,1,1,1,,,1,FALSE,1.9165,,,,,,,,,,,,,,,,,,,,,,,,,,,,,,
,,001,2022-04-29_13h13.33.388,classification_task,2021.2.3,Win32,60.25548325,5e3218f5de60e31ff2b2294c,626b377229c10585ec392f8a,626b3b801e07866f9acdc59d,,,,,,,,,,,,,,,,,,,,,,,,0,"[""0.324"",""0.217"",""0.622"",""0.700""]","[0,1,1,1]",0,18,18,18,1,1,0,,,1,FALSE,,,,,,,,,,,,,,,,,,,,,,,,,,,,,,,
,,001,2022-04-29_13h13.33.388,classification_task,2021.2.3,Win32,60.25548325,5e3218f5de60e31ff2b2294c,626b377229c10585ec392f8a,626b3b801e07866f9acdc59d,,,,,,,,,,,,,,,,,,,,,,,a,1,"[""0.793"",""0.514"",""0.838"",""0.955""]","[0,1,1,1]",0,19,19,19,1,0,0,,,1,FALSE,6.4492,,,,,,,,,,,,,,,,,,,,,,,,,,,,,,
,,001,2022-04-29_13h13.33.388,classification_task,2021.2.3,Win32,60.25548325,5e3218f5de60e31ff2b2294c,626b377229c10585ec392f8a,626b3b801e07866f9acdc59d,,,,,,,,,,,,,,,,,,,,,,,l,1,"[""0.085"",""0.401"",""0.338"",""0.746""]","[1,1,0,1]",0,20,20,20,1,1,1,,,1,FALSE,2.1308,,,,,,,,,,,,,,,,,,,,,,,,,,,,,,
,,001,2022-04-29_13h13.33.388,classification_task,2021.2.3,Win32,60.25548325,5e3218f5de60e31ff2b2294c,626b377229c10585ec392f8a,626b3b801e07866f9acdc59d,,,,,,,,,,,,,,,,,,,,,,,l,1,"[""0.131"",""0.217"",""0.800"",""0.700""]","[1,1,0,1]",0,21,21,21,1,1,0,,,1,FALSE,2.1482,,,,,,,,,,,,,,,,,,,,,,,,,,,,,,
,,001,2022-04-29_13h13.33.388,classification_task,2021.2.3,Win32,60.25548325,5e3218f5de60e31ff2b2294c,626b377229c10585ec392f8a,626b3b801e07866f9acdc59d,,,,,,,,,,,,,,,,,,,,,,,l,1,"[""0.085"",""0.789"",""0.459"",""0.746""]","[1,0,1,1]",0,22,22,22,1,1,1,,,1,FALSE,1.8646,,,,,,,,,,,,,,,,,,,,,,,,,,,,,,
,,001,2022-04-29_13h13.33.388,classification_task,2021.2.3,Win32,60.25548325,5e3218f5de60e31ff2b2294c,626b377229c10585ec392f8a,626b3b801e07866f9acdc59d,,,,,,,,,,,,,,,,,,,,,,,a,1,"[""0.167"",""0.562"",""0.800"",""0.899""]","[1,1,0,1]",0,23,23,23,1,0,1,,,1,FALSE,2.0325,,,,,,,,,,,,,,,,,,,,,,,,,,,,,,
,,001,2022-04-29_13h13.33.388,classification_task,2021.2.3,Win32,60.25548325,5e3218f5de60e31ff2b2294c,626b377229c10585ec392f8a,626b3b801e07866f9acdc59d,,,,,,,,,,,,,,,,,,,,,,,l,1,"[""0.131"",""0.217"",""0.622"",""0.325""]","[1,1,1,0]",0,24,24,24,1,1,0,,,1,FALSE,1.9316,,,,,,,,,,,,,,,,,,,,,,,,,,,,,,
,,001,2022-04-29_13h13.33.388,classification_task,2021.2.3,Win32,60.25548325,5e3218f5de60e31ff2b2294c,626b377229c10585ec392f8a,626b3b801e07866f9acdc59d,,,,,,,,,,,,,,,,,,,,,,,a,1,"[""0.287"",""0.514"",""0.838"",""0.041""]","[1,1,1,0]",0,25,25,25,1,0,0,,,1,FALSE,3.9328,,,,,,,,,,,,,,,,,,,,,,,,,,,,,,
,,001,2022-04-29_13h13.33.388,classification_task,2021.2.3,Win32,60.25548325,5e3218f5de60e31ff2b2294c,626b377229c10585ec392f8a,626b3b801e07866f9acdc59d,,,,,,,,,,,,,,,,,,,,,,,a,1,"[""0.167"",""0.793"",""0.663"",""0.899""]","[1,0,1,1]",0,26,26,26,1,0,1,,,1,FALSE,2.3801,,,,,,,,,,,,,,,,,,,,,,,,,,,,,,
,,001,2022-04-29_13h13.33.388,classification_task,2021.2.3,Win32,60.25548325,5e3218f5de60e31ff2b2294c,626b377229c10585ec392f8a,626b3b801e07866f9acdc59d,,,,,,,,,,,,,,,,,,,,,,,a,1,"[""0.167"",""0.562"",""0.663"",""0.800""]","[1,1,1,0]",0,27,27,27,1,0,1,,,1,FALSE,1.4374,,,,,,,,,,,,,,,,,,,,,,,,,,,,,,
,,001,2022-04-29_13h13.33.388,classification_task,2021.2.3,Win32,60.25548325,5e3218f5de60e31ff2b2294c,626b377229c10585ec392f8a,626b3b801e07866f9acdc59d,,,,,,,,,,,,,,,,,,,,,,,a,1,"[""0.793"",""0.562"",""0.663"",""0.899""]","[0,1,1,1]",0,28,28,28,1,0,1,,,1,FALSE,3.8335,,,,,,,,,,,,,,,,,,,,,,,,,,,,,,
,,001,2022-04-29_13h13.33.388,classification_task,2021.2.3,Win32,60.25548325,5e3218f5de60e31ff2b2294c,626b377229c10585ec392f8a,626b3b801e07866f9acdc59d,,,,,,,,,,,,,,,,,,,,,,,l,1,"[""0.793"",""0.401"",""0.459"",""0.746""]","[0,1,1,1]",0,29,29,29,1,1,1,,,1,FALSE,2.7175,,,,,,,,,,,,,,,,,,,,,,,,,,,,,,
,,001,2022-04-29_13h13.33.388,classification_task,2021.2.3,Win32,60.25548325,5e3218f5de60e31ff2b2294c,626b377229c10585ec392f8a,626b3b801e07866f9acdc59d,,,,,,,,,,,,,,,,,,,,,,,a,1,"[""0.287"",""0.514"",""0.796"",""0.955""]","[1,1,0,1]",0,30,30,30,1,0,0,,,1,FALSE,2.081,,,,,,,,,,,,,,,,,,,,,,,,,,,,,,
,,001,2022-04-29_13h13.33.388,classification_task,2021.2.3,Win32,60.25548325,5e3218f5de60e31ff2b2294c,626b377229c10585ec392f8a,626b3b801e07866f9acdc59d,,,,,,,,,,,,,,,,,,,,,,,a,1,"[""0.287"",""0.332"",""0.838"",""0.955""]","[1,0,1,1]",0,31,31,31,1,0,0,,,1,FALSE,1.548,,,,,,,,,,,,,,,,,,,,,,,,,,,,,,
,,001,2022-04-29_13h13.33.388,classification_task,2021.2.3,Win32,60.25548325,5e3218f5de60e31ff2b2294c,626b377229c10585ec392f8a,626b3b801e07866f9acdc59d,,,,,,,,,,,,,,,,,,,,,,,a,1,"[""0.167"",""0.333"",""0.663"",""0.899""]","[1,0,1,1]",0,32,32,32,1,0,1,,,1,FALSE,2.8657,,,,,,,,,,,,,,,,,,,,,,,,,,,,,,
,,001,2022-04-29_13h13.33.388,classification_task,2021.2.3,Win32,60.25548325,5e3218f5de60e31ff2b2294c,626b377229c10585ec392f8a,626b3b801e07866f9acdc59d,,,,,,,,,,,,,,,,,,,,,,,a,1,"[""0.800"",""0.562"",""0.663"",""0.899""]","[0,1,1,1]",0,33,33,33,1,0,1,,,1,FALSE,3.848,,,,,,,,,,,,,,,,,,,,,,,,,,,,,,
,,001,2022-04-29_13h13.33.388,classification_task,2021.2.3,Win32,60.25548325,5e3218f5de60e31ff2b2294c,626b377229c10585ec392f8a,626b3b801e07866f9acdc59d,,,,,,,,,,,,,,,,,,,,,,,l,0,"[""0.332"",""0.514"",""0.838"",""0.955""]","[0,1,1,1]",0,34,34,34,1,0,0,,,1,FALSE,3.0695,,,,,,,,,,,,,,,,,,,,,,,,,,,,,,
,,001,2022-04-29_13h13.33.388,classification_task,2021.2.3,Win32,60.25548325,5e3218f5de60e31ff2b2294c,626b377229c10585ec392f8a,626b3b801e07866f9acdc59d,,,,,,,,,,,,,,,,,,,,,,,a,0,"[""0.085"",""0.347"",""0.459"",""0.746""]","[1,0,1,1]",0,35,35,35,1,1,1,,,1,FALSE,3.2665,,,,,,,,,,,,,,,,,,,,,,,,,,,,,,
,,001,2022-04-29_13h13.33.388,classification_task,2021.2.3,Win32,60.25548325,5e3218f5de60e31ff2b2294c,626b377229c10585ec392f8a,626b3b801e07866f9acdc59d,,,,,,,,,,,,,,,,,,,,,,,a,1,"[""0.287"",""0.799"",""0.838"",""0.955""]","[1,0,1,1]",0,36,36,36,1,0,0,,,1,FALSE,2.2005,,,,,,,,,,,,,,,,,,,,,,,,,,,,,,
,,001,2022-04-29_13h13.33.388,classification_task,2021.2.3,Win32,60.25548325,5e3218f5de60e31ff2b2294c,626b377229c10585ec392f8a,626b3b801e07866f9acdc59d,,,,,,,,,,,,,,,,,,,,,,,l,1,"[""0.131"",""0.358"",""0.622"",""0.700""]","[1,0,1,1]",0,37,37,37,1,1,0,,,1,FALSE,2.0496,,,,,,,,,,,,,,,,,,,,,,,,,,,,,,
,,001,2022-04-29_13h13.33.388,classification_task,2021.2.3,Win32,60.25548325,5e3218f5de60e31ff2b2294c,626b377229c10585ec392f8a,626b3b801e07866f9acdc59d,,,,,,,,,,,,,,,,,,,,,,,a,1,"[""0.167"",""0.562"",""0.325"",""0.899""]","[1,1,0,1]",0,38,38,38,1,0,1,,,1,FALSE,1.2664,,,,,,,,,,,,,,,,,,,,,,,,,,,,,,
,,001,2022-04-29_13h13.33.388,classification_task,2021.2.3,Win32,60.25548325,5e3218f5de60e31ff2b2294c,626b377229c10585ec392f8a,626b3b801e07866f9acdc59d,,,,,,,,,,,,,,,,,,,,,,,l,1,"[""0.085"",""0.401"",""0.789"",""0.746""]","[1,1,0,1]",0,39,39,39,1,1,1,,,1,FALSE,1.3498,,,,,,,,,,,,,,,,,,,,,,,,,,,,,,
,,001,2022-04-29_13h13.33.388,classification_task,2021.2.3,Win32,60.25548325,5e3218f5de60e31ff2b2294c,626b377229c10585ec392f8a,626b3b801e07866f9acdc59d,,,,,,,,,,,,,,,,,,,,,,,a,1,"[""0.167"",""0.562"",""0.663"",""0.366""]","[1,1,1,0]",0,40,40,40,1,0,1,,,1,FALSE,0.7837,,,,,,,,,,,,,,,,,,,,,,,,,,,,,,
,,001,2022-04-29_13h13.33.388,classification_task,2021.2.3,Win32,60.25548325,5e3218f5de60e31ff2b2294c,626b377229c10585ec392f8a,626b3b801e07866f9acdc59d,,,,,,,,,,,,,,,,,,,,,,,a,0,"[""0.131"",""0.217"",""0.332"",""0.700""]","[1,1,0,1]",0,41,41,41,1,1,0,,,1,FALSE,1.5504,,,,,,,,,,,,,,,,,,,,,,,,,,,,,,
,,001,2022-04-29_13h13.33.388,classification_task,2021.2.3,Win32,60.25548325,5e3218f5de60e31ff2b2294c,626b377229c10585ec392f8a,626b3b801e07866f9acdc59d,,,,,,,,,,,,,,,,,,,,,,,a,1,"[""0.287"",""0.514"",""0.838"",""0.800""]","[1,1,1,0]",0,42,42,42,1,0,0,,,1,FALSE,1.1831,,,,,,,,,,,,,,,,,,,,,,,,,,,,,,
,,001,2022-04-29_13h13.33.388,classification_task,2021.2.3,Win32,60.25548325,5e3218f5de60e31ff2b2294c,626b377229c10585ec392f8a,626b3b801e07866f9acdc59d,,,,,,,,,,,,,,,,,,,,,,,l,1,"[""0.085"",""0.401"",""0.459"",""0.796""]","[1,1,1,0]",0,43,43,43,1,1,1,,,1,FALSE,1.7333,,,,,,,,,,,,,,,,,,,,,,,,,,,,,,
,,001,2022-04-29_13h13.33.388,classification_task,2021.2.3,Win32,60.25548325,5e3218f5de60e31ff2b2294c,626b377229c10585ec392f8a,626b3b801e07866f9acdc59d,,,,,,,,,,,,,,,,,,,,,,,a,0,"[""0.131"",""0.217"",""0.622"",""0.789""]","[1,1,1,0]",0,44,44,44,1,1,0,,,1,FALSE,1.3168,,,,,,,,,,,,,,,,,,,,,,,,,,,,,,
,,001,2022-04-29_13h13.33.388,classification_task,2021.2.3,Win32,60.25548325,5e3218f5de60e31ff2b2294c,626b377229c10585ec392f8a,626b3b801e07866f9acdc59d,,,,,,,,,,,,,,,,,,,,,,,a,1,"[""0.287"",""0.514"",""0.338"",""0.955""]","[1,1,0,1]",0,45,45,45,1,0,0,,,1,FALSE,1.3833,,,,,,,,,,,,,,,,,,,,,,,,,,,,,,
,,001,2022-04-29_13h13.33.388,classification_task,2021.2.3,Win32,60.25548325,5e3218f5de60e31ff2b2294c,626b377229c10585ec392f8a,626b3b801e07866f9acdc59d,,,,,,,,,,,,,,,,,,,,,,,a,0,"[""0.325"",""0.401"",""0.459"",""0.746""]","[0,1,1,1]",0,46,46,46,1,1,1,,,1,FALSE,1.767,,,,,,,,,,,,,,,,,,,,,,,,,,,,,,
,,001,2022-04-29_13h13.33.388,classification_task,2021.2.3,Win32,60.25548325,5e3218f5de60e31ff2b2294c,626b377229c10585ec392f8a,626b3b801e07866f9acdc59d,,,,,,,,,,,,,,,,,,,,,,,l,1,"[""0.366"",""0.217"",""0.622"",""0.700""]","[0,1,1,1]",0,47,47,47,1,1,0,,,1,FALSE,1.6007,,,,,,,,,,,,,,,,,,,,,,,,,,,,,,
,,001,2022-04-29_13h13.33.388,classification_task,2021.2.3,Win32,60.25548325,5e3218f5de60e31ff2b2294c,626b377229c10585ec392f8a,626b3b801e07866f9acdc59d,,,,,,,,,,,,,,,,,,,,,,,l,0,"[""0.167"",""0.048"",""0.663"",""0.899""]","[1,0,1,1]",0,48,48,48,1,0,1,,,1,FALSE,1.3664,,,,,,,,,,,,,,,,,,,,,,,,,,,,,,
,,001,2022-04-29_13h13.33.388,classification_task,2021.2.3,Win32,60.25548325,5e3218f5de60e31ff2b2294c,626b377229c10585ec392f8a,626b3b801e07866f9acdc59d,,,,,,,,,,,,,,,,,,,,,,,a,1,"[""0.287"",""0.514"",""0.838"",""0.048""]","[1,1,1,0]",0,49,49,49,1,0,0,,,1,FALSE,1.3333,,,,,,,,,,,,,,,,,,,,,,,,,,,,,,
,,001,2022-04-29_13h13.33.388,classification_task,2021.2.3,Win32,60.25548325,5e3218f5de60e31ff2b2294c,626b377229c10585ec392f8a,626b3b801e07866f9acdc59d,,,,,,,,,,,,,,,,,,,,,,,a,1,"[""0.167"",""0.562"",""0.800"",""0.899""]","[1,1,0,1]",0,50,50,50,1,0,1,,,1,FALSE,0.9,,,,,,,,,,,,,,,,,,,,,,,,,,,,,,
,,001,2022-04-29_13h13.33.388,classification_task,2021.2.3,Win32,60.25548325,5e3218f5de60e31ff2b2294c,626b377229c10585ec392f8a,626b3b801e07866f9acdc59d,,,,,,,,,,,,,,,,,,,,,,,a,0,"[""0.131"",""0.217"",""0.622"",""0.041""]","[1,1,1,0]",0,51,51,51,1,1,0,,,1,FALSE,2.1832,,,,,,,,,,,,,,,,,,,,,,,,,,,,,,
,,001,2022-04-29_13h13.33.388,classification_task,2021.2.3,Win32,60.25548325,5e3218f5de60e31ff2b2294c,626b377229c10585ec392f8a,626b3b801e07866f9acdc59d,,,,,,,,,,,,,,,,,,,,,,,a,1,"[""0.789"",""0.514"",""0.838"",""0.955""]","[0,1,1,1]",0,52,52,52,1,0,0,,,1,FALSE,1.3003,,,,,,,,,,,,,,,,,,,,,,,,,,,,,,
,,001,2022-04-29_13h13.33.388,classification_task,2021.2.3,Win32,60.25548325,5e3218f5de60e31ff2b2294c,626b377229c10585ec392f8a,626b3b801e07866f9acdc59d,,,,,,,,,,,,,,,,,,,,,,,l,1,"[""0.333"",""0.401"",""0.459"",""0.746""]","[0,1,1,1]",0,53,53,53,1,1,1,,,1,FALSE,1.6837,,,,,,,,,,,,,,,,,,,,,,,,,,,,,,
,,001,2022-04-29_13h13.33.388,classification_task,2021.2.3,Win32,60.25548325,5e3218f5de60e31ff2b2294c,626b377229c10585ec392f8a,626b3b801e07866f9acdc59d,,,,,,,,,,,,,,,,,,,,,,,a,1,"[""0.287"",""0.793"",""0.838"",""0.955""]","[1,0,1,1]",0,54,54,54,1,0,0,,,1,FALSE,1.2663,,,,,,,,,,,,,,,,,,,,,,,,,,,,,,
,,001,2022-04-29_13h13.33.388,classification_task,2021.2.3,Win32,60.25548325,5e3218f5de60e31ff2b2294c,626b377229c10585ec392f8a,626b3b801e07866f9acdc59d,,,,,,,,,,,,,,,,,,,,,,,l,1,"[""0.085"",""0.325"",""0.459"",""0.746""]","[1,0,1,1]",0,55,55,55,1,1,1,,,1,FALSE,1.2499,,,,,,,,,,,,,,,,,,,,,,,,,,,,,,
,,001,2022-04-29_13h13.33.388,classification_task,2021.2.3,Win32,60.25548325,5e3218f5de60e31ff2b2294c,626b377229c10585ec392f8a,626b3b801e07866f9acdc59d,,,,,,,,,,,,,,,,,,,,,,,a,1,"[""0.167"",""0.562"",""0.663"",""0.789""]","[1,1,1,0]",0,56,56,56,1,0,1,,,1,FALSE,1.0174,,,,,,,,,,,,,,,,,,,,,,,,,,,,,,
,,001,2022-04-29_13h13.33.388,classification_task,2021.2.3,Win32,60.25548325,5e3218f5de60e31ff2b2294c,626b377229c10585ec392f8a,626b3b801e07866f9acdc59d,,,,,,,,,,,,,,,,,,,,,,,l,1,"[""0.085"",""0.401"",""0.324"",""0.746""]","[1,1,0,1]",0,57,57,57,1,1,1,,,1,FALSE,1.0495,,,,,,,,,,,,,,,,,,,,,,,,,,,,,,
,,001,2022-04-29_13h13.33.388,classification_task,2021.2.3,Win32,60.25548325,5e3218f5de60e31ff2b2294c,626b377229c10585ec392f8a,626b3b801e07866f9acdc59d,,,,,,,,,,,,,,,,,,,,,,,a,0,"[""0.131"",""0.217"",""0.332"",""0.700""]","[1,1,0,1]",0,58,58,58,1,1,0,,,1,FALSE,1.5501,,,,,,,,,,,,,,,,,,,,,,,,,,,,,,
,,001,2022-04-29_13h13.33.388,classification_task,2021.2.3,Win32,60.25548325,5e3218f5de60e31ff2b2294c,626b377229c10585ec392f8a,626b3b801e07866f9acdc59d,,,,,,,,,,,,,,,,,,,,,,,a,1,"[""0.287"",""0.514"",""0.789"",""0.955""]","[1,1,0,1]",0,59,59,59,1,0,0,,,1,FALSE,0.8338,,,,,,,,,,,,,,,,,,,,,,,,,,,,,,
,,001,2022-04-29_13h13.33.388,classification_task,2021.2.3,Win32,60.25548325,5e3218f5de60e31ff2b2294c,626b377229c10585ec392f8a,626b3b801e07866f9acdc59d,,,,,,,,,,,,,,,,,,,,,,,l,1,"[""0.085"",""0.401"",""0.459"",""0.048""]","[1,1,1,0]",0,60,60,60,1,1,1,,,1,FALSE,1.4322,,,,,,,,,,,,,,,,,,,,,,,,,,,,,,
,,001,2022-04-29_13h13.33.388,classification_task,2021.2.3,Win32,60.25548325,5e3218f5de60e31ff2b2294c,626b377229c10585ec392f8a,626b3b801e07866f9acdc59d,,,,,,,,,,,,,,,,,,,,,,,l,1,"[""0.131"",""0.789"",""0.622"",""0.700""]","[1,0,1,1]",0,61,61,61,1,1,0,,,1,FALSE,1.1338,,,,,,,,,,,,,,,,,,,,,,,,,,,,,,
,,001,2022-04-29_13h13.33.388,classification_task,2021.2.3,Win32,60.25548325,5e3218f5de60e31ff2b2294c,626b377229c10585ec392f8a,626b3b801e07866f9acdc59d,,,,,,,,,,,,,,,,,,,,,,,l,1,"[""0.041"",""0.217"",""0.622"",""0.700""]","[0,1,1,1]",0,62,62,62,1,1,0,,,1,FALSE,0.8672,,,,,,,,,,,,,,,,,,,,,,,,,,,,,,
,,001,2022-04-29_13h13.33.388,classification_task,2021.2.3,Win32,60.25548325,5e3218f5de60e31ff2b2294c,626b377229c10585ec392f8a,626b3b801e07866f9acdc59d,,,,,,,,,,,,,,,,,,,,,,,l,0,"[""0.338"",""0.562"",""0.663"",""0.899""]","[0,1,1,1]",0,63,63,63,1,0,1,,,1,FALSE,1.4646,,,,,,,,,,,,,,,,,,,,,,,,,,,,,,
,,001,2022-04-29_13h13.33.388,classification_task,2021.2.3,Win32,60.25548325,5e3218f5de60e31ff2b2294c,626b377229c10585ec392f8a,626b3b801e07866f9acdc59d,,,,,,,,,,,,,,,,,,,,,,,,,,,,,,,,,,,,,,,0, ,,0,9.243828282,398.8465,0,0,0,0,1,2,1,,,,,,,,,,,,,,,,,
,,001,2022-04-29_13h13.33.388,classification_task,2021.2.3,Win32,60.25548325,5e3218f5de60e31ff2b2294c,626b377229c10585ec392f8a,626b3b801e07866f9acdc59d,,,,,,,,,,,,,,,,,,,,,,,,,,,,,,,,,,,,,,,1,  ,,0,7.088232786,411.5923,0,0,0,0,1,2,1,,,,,,,,,,,,,,,,,
,,001,2022-04-29_13h13.33.388,classification_task,2021.2.3,Win32,60.25548325,5e3218f5de60e31ff2b2294c,626b377229c10585ec392f8a,626b3b801e07866f9acdc59d,,,,,,,,,,,,,,,,,,,,,,,,,,,,,,,,,,,,,,,2,  ,,0,4.124290381,418.2323,0,0,0,0,1,2,1,,,,,,,,,,,,,,,,,
,,001,2022-04-29_13h13.33.388,classification_task,2021.2.3,Win32,60.25548325,5e3218f5de60e31ff2b2294c,626b377229c10585ec392f8a,626b3b801e07866f9acdc59d,,,,,,,,,,,,,,,,,,,,,,,,,,,,,,,,,,,,,,,,,,,,,0,0,0,0,1,,1,,,,,,,,,,,,,,,,,
,,001,2022-04-29_13h13.33.388,classification_task,2021.2.3,Win32,60.25548325,5e3218f5de60e31ff2b2294c,626b377229c10585ec392f8a,626b3b801e07866f9acdc59d,,,,,,,,,,,,,,,,,,,,,space,10.0019,a,1,"[""0.167"",""0.562"",""0.324"",""0.899""]","[1,1,0,1]",0,0,0,0,1,0,1,,,1,FALSE,3.56,,,,,,,,,,,,,,,,,,,,,,,,,,,,,,
,,001,2022-04-29_13h13.33.388,classification_task,2021.2.3,Win32,60.25548325,5e3218f5de60e31ff2b2294c,626b377229c10585ec392f8a,626b3b801e07866f9acdc59d,,,,,,,,,,,,,,,,,,,,,,,a,0,"[""0.085"",""0.401"",""0.459"",""0.793""]","[1,1,1,0]",0,1,1,1,1,1,1,,,1,FALSE,2.2104,,,,,,,,,,,,,,,,,,,,,,,,,,,,,,
,,001,2022-04-29_13h13.33.388,classification_task,2021.2.3,Win32,60.25548325,5e3218f5de60e31ff2b2294c,626b377229c10585ec392f8a,626b3b801e07866f9acdc59d,,,,,,,,,,,,,,,,,,,,,,,a,1,"[""0.287"",""0.338"",""0.838"",""0.955""]","[1,0,1,1]",0,2,2,2,1,0,0,,,1,FALSE,1.2164,,,,,,,,,,,,,,,,,,,,,,,,,,,,,,
,,001,2022-04-29_13h13.33.388,classification_task,2021.2.3,Win32,60.25548325,5e3218f5de60e31ff2b2294c,626b377229c10585ec392f8a,626b3b801e07866f9acdc59d,,,,,,,,,,,,,,,,,,,,,,,a,1,"[""0.287"",""0.514"",""0.838"",""0.799""]","[1,1,1,0]",0,3,3,3,1,0,0,,,1,FALSE,2.9264,,,,,,,,,,,,,,,,,,,,,,,,,,,,,,
,,001,2022-04-29_13h13.33.388,classification_task,2021.2.3,Win32,60.25548325,5e3218f5de60e31ff2b2294c,626b377229c10585ec392f8a,626b3b801e07866f9acdc59d,,,,,,,,,,,,,,,,,,,,,,,l,0,"[""0.358"",""0.562"",""0.663"",""0.899""]","[0,1,1,1]",0,4,4,4,1,0,1,,,1,FALSE,1.3592,,,,,,,,,,,,,,,,,,,,,,,,,,,,,,
,,001,2022-04-29_13h13.33.388,classification_task,2021.2.3,Win32,60.25548325,5e3218f5de60e31ff2b2294c,626b377229c10585ec392f8a,626b3b801e07866f9acdc59d,,,,,,,,,,,,,,,,,,,,,,,a,1,"[""0.167"",""0.324"",""0.663"",""0.899""]","[1,0,1,1]",0,5,5,5,1,0,1,,,1,FALSE,0.8794,,,,,,,,,,,,,,,,,,,,,,,,,,,,,,
,,001,2022-04-29_13h13.33.388,classification_task,2021.2.3,Win32,60.25548325,5e3218f5de60e31ff2b2294c,626b377229c10585ec392f8a,626b3b801e07866f9acdc59d,,,,,,,,,,,,,,,,,,,,,,,l,1,"[""0.131"",""0.338"",""0.622"",""0.700""]","[1,0,1,1]",0,6,6,6,1,1,0,,,1,FALSE,1.3078,,,,,,,,,,,,,,,,,,,,,,,,,,,,,,
,,001,2022-04-29_13h13.33.388,classification_task,2021.2.3,Win32,60.25548325,5e3218f5de60e31ff2b2294c,626b377229c10585ec392f8a,626b3b801e07866f9acdc59d,,,,,,,,,,,,,,,,,,,,,,,a,1,"[""0.287"",""0.514"",""0.366"",""0.955""]","[1,1,0,1]",0,7,7,7,1,0,0,,,1,FALSE,0.75,,,,,,,,,,,,,,,,,,,,,,,,,,,,,,
,,001,2022-04-29_13h13.33.388,classification_task,2021.2.3,Win32,60.25548325,5e3218f5de60e31ff2b2294c,626b377229c10585ec392f8a,626b3b801e07866f9acdc59d,,,,,,,,,,,,,,,,,,,,,,,l,1,"[""0.131"",""0.217"",""0.332"",""0.700""]","[1,1,0,1]",0,8,8,8,1,1,0,,,1,FALSE,0.901,,,,,,,,,,,,,,,,,,,,,,,,,,,,,,
,,001,2022-04-29_13h13.33.388,classification_task,2021.2.3,Win32,60.25548325,5e3218f5de60e31ff2b2294c,626b377229c10585ec392f8a,626b3b801e07866f9acdc59d,,,,,,,,,,,,,,,,,,,,,,,l,0,"[""0.338"",""0.514"",""0.838"",""0.955""]","[0,1,1,1]",0,9,9,9,1,0,0,,,1,FALSE,0.7994,,,,,,,,,,,,,,,,,,,,,,,,,,,,,,
,,001,2022-04-29_13h13.33.388,classification_task,2021.2.3,Win32,60.25548325,5e3218f5de60e31ff2b2294c,626b377229c10585ec392f8a,626b3b801e07866f9acdc59d,,,,,,,,,,,,,,,,,,,,,,,l,1,"[""0.085"",""0.048"",""0.459"",""0.746""]","[1,0,1,1]",0,10,10,10,1,1,1,,,1,FALSE,1.0238,,,,,,,,,,,,,,,,,,,,,,,,,,,,,,
,,001,2022-04-29_13h13.33.388,classification_task,2021.2.3,Win32,60.25548325,5e3218f5de60e31ff2b2294c,626b377229c10585ec392f8a,626b3b801e07866f9acdc59d,,,,,,,,,,,,,,,,,,,,,,,a,0,"[""0.358"",""0.401"",""0.459"",""0.746""]","[0,1,1,1]",0,11,11,11,1,1,1,,,1,FALSE,0.9168,,,,,,,,,,,,,,,,,,,,,,,,,,,,,,
,,001,2022-04-29_13h13.33.388,classification_task,2021.2.3,Win32,60.25548325,5e3218f5de60e31ff2b2294c,626b377229c10585ec392f8a,626b3b801e07866f9acdc59d,,,,,,,,,,,,,,,,,,,,,,,l,1,"[""0.085"",""0.401"",""0.041"",""0.746""]","[1,1,0,1]",0,12,12,12,1,1,1,,,1,FALSE,1.9602,,,,,,,,,,,,,,,,,,,,,,,,,,,,,,
,,001,2022-04-29_13h13.33.388,classification_task,2021.2.3,Win32,60.25548325,5e3218f5de60e31ff2b2294c,626b377229c10585ec392f8a,626b3b801e07866f9acdc59d,,,,,,,,,,,,,,,,,,,,,,,a,1,"[""0.167"",""0.562"",""0.663"",""0.789""]","[1,1,1,0]",0,13,13,13,1,0,1,,,1,FALSE,0.8333,,,,,,,,,,,,,,,,,,,,,,,,,,,,,,
,,001,2022-04-29_13h13.33.388,classification_task,2021.2.3,Win32,60.25548325,5e3218f5de60e31ff2b2294c,626b377229c10585ec392f8a,626b3b801e07866f9acdc59d,,,,,,,,,,,,,,,,,,,,,,,l,1,"[""0.333"",""0.217"",""0.622"",""0.700""]","[0,1,1,1]",0,14,14,14,1,1,0,,,1,FALSE,0.8542,,,,,,,,,,,,,,,,,,,,,,,,,,,,,,
,,001,2022-04-29_13h13.33.388,classification_task,2021.2.3,Win32,60.25548325,5e3218f5de60e31ff2b2294c,626b377229c10585ec392f8a,626b3b801e07866f9acdc59d,,,,,,,,,,,,,,,,,,,,,,,l,1,"[""0.131"",""0.217"",""0.622"",""0.332""]","[1,1,1,0]",0,15,15,15,1,1,0,,,1,FALSE,1.1683,,,,,,,,,,,,,,,,,,,,,,,,,,,,,,
,,001,2022-04-29_13h13.33.388,classification_task,2021.2.3,Win32,60.25548325,5e3218f5de60e31ff2b2294c,626b377229c10585ec392f8a,626b3b801e07866f9acdc59d,,,,,,,,,,,,,,,,,,,,,,,l,1,"[""0.085"",""0.401"",""0.324"",""0.746""]","[1,1,0,1]",0,16,16,16,1,1,1,,,1,FALSE,1.1424,,,,,,,,,,,,,,,,,,,,,,,,,,,,,,
,,001,2022-04-29_13h13.33.388,classification_task,2021.2.3,Win32,60.25548325,5e3218f5de60e31ff2b2294c,626b377229c10585ec392f8a,626b3b801e07866f9acdc59d,,,,,,,,,,,,,,,,,,,,,,,l,1,"[""0.085"",""0.401"",""0.459"",""0.325""]","[1,1,1,0]",0,17,17,17,1,1,1,,,1,FALSE,0.8496,,,,,,,,,,,,,,,,,,,,,,,,,,,,,,
,,001,2022-04-29_13h13.33.388,classification_task,2021.2.3,Win32,60.25548325,5e3218f5de60e31ff2b2294c,626b377229c10585ec392f8a,626b3b801e07866f9acdc59d,,,,,,,,,,,,,,,,,,,,,,,l,0,"[""0.366"",""0.562"",""0.663"",""0.899""]","[0,1,1,1]",0,18,18,18,1,0,1,,,1,FALSE,1.4842,,,,,,,,,,,,,,,,,,,,,,,,,,,,,,
,,001,2022-04-29_13h13.33.388,classification_task,2021.2.3,Win32,60.25548325,5e3218f5de60e31ff2b2294c,626b377229c10585ec392f8a,626b3b801e07866f9acdc59d,,,,,,,,,,,,,,,,,,,,,,,a,1,"[""0.800"",""0.514"",""0.838"",""0.955""]","[0,1,1,1]",0,19,19,19,1,0,0,,,1,FALSE,0.9652,,,,,,,,,,,,,,,,,,,,,,,,,,,,,,
,,001,2022-04-29_13h13.33.388,classification_task,2021.2.3,Win32,60.25548325,5e3218f5de60e31ff2b2294c,626b377229c10585ec392f8a,626b3b801e07866f9acdc59d,,,,,,,,,,,,,,,,,,,,,,,a,1,"[""0.167"",""0.796"",""0.663"",""0.899""]","[1,0,1,1]",0,20,20,20,1,0,1,,,1,FALSE,0.7999,,,,,,,,,,,,,,,,,,,,,,,,,,,,,,
,,001,2022-04-29_13h13.33.388,classification_task,2021.2.3,Win32,60.25548325,5e3218f5de60e31ff2b2294c,626b377229c10585ec392f8a,626b3b801e07866f9acdc59d,,,,,,,,,,,,,,,,,,,,,,,a,1,"[""0.167"",""0.562"",""0.789"",""0.899""]","[1,1,0,1]",0,21,21,21,1,0,1,,,1,FALSE,0.7074,,,,,,,,,,,,,,,,,,,,,,,,,,,,,,
,,001,2022-04-29_13h13.33.388,classification_task,2021.2.3,Win32,60.25548325,5e3218f5de60e31ff2b2294c,626b377229c10585ec392f8a,626b3b801e07866f9acdc59d,,,,,,,,,,,,,,,,,,,,,,,a,1,"[""0.167"",""0.562"",""0.663"",""0.332""]","[1,1,1,0]",0,22,22,22,1,0,1,,,1,FALSE,0.6204,,,,,,,,,,,,,,,,,,,,,,,,,,,,,,
,,001,2022-04-29_13h13.33.388,classification_task,2021.2.3,Win32,60.25548325,5e3218f5de60e31ff2b2294c,626b377229c10585ec392f8a,626b3b801e07866f9acdc59d,,,,,,,,,,,,,,,,,,,,,,,l,1,"[""0.131"",""0.358"",""0.622"",""0.700""]","[1,0,1,1]",0,23,23,23,1,1,0,,,1,FALSE,1.0657,,,,,,,,,,,,,,,,,,,,,,,,,,,,,,
,,001,2022-04-29_13h13.33.388,classification_task,2021.2.3,Win32,60.25548325,5e3218f5de60e31ff2b2294c,626b377229c10585ec392f8a,626b3b801e07866f9acdc59d,,,,,,,,,,,,,,,,,,,,,,,a,1,"[""0.287"",""0.347"",""0.838"",""0.955""]","[1,0,1,1]",0,24,24,24,1,0,0,,,1,FALSE,0.8528,,,,,,,,,,,,,,,,,,,,,,,,,,,,,,
,,001,2022-04-29_13h13.33.388,classification_task,2021.2.3,Win32,60.25548325,5e3218f5de60e31ff2b2294c,626b377229c10585ec392f8a,626b3b801e07866f9acdc59d,,,,,,,,,,,,,,,,,,,,,,,a,1,"[""0.287"",""0.514"",""0.338"",""0.955""]","[1,1,0,1]",0,25,25,25,1,0,0,,,1,FALSE,0.9049,,,,,,,,,,,,,,,,,,,,,,,,,,,,,,
,,001,2022-04-29_13h13.33.388,classification_task,2021.2.3,Win32,60.25548325,5e3218f5de60e31ff2b2294c,626b377229c10585ec392f8a,626b3b801e07866f9acdc59d,,,,,,,,,,,,,,,,,,,,,,,a,0,"[""0.362"",""0.401"",""0.459"",""0.746""]","[0,1,1,1]",0,26,26,26,1,1,1,,,1,FALSE,2.0673,,,,,,,,,,,,,,,,,,,,,,,,,,,,,,
,,001,2022-04-29_13h13.33.388,classification_task,2021.2.3,Win32,60.25548325,5e3218f5de60e31ff2b2294c,626b377229c10585ec392f8a,626b3b801e07866f9acdc59d,,,,,,,,,,,,,,,,,,,,,,,l,1,"[""0.131"",""0.217"",""0.622"",""0.793""]","[1,1,1,0]",0,27,27,27,1,1,0,,,1,FALSE,0.9756,,,,,,,,,,,,,,,,,,,,,,,,,,,,,,
,,001,2022-04-29_13h13.33.388,classification_task,2021.2.3,Win32,60.25548325,5e3218f5de60e31ff2b2294c,626b377229c10585ec392f8a,626b3b801e07866f9acdc59d,,,,,,,,,,,,,,,,,,,,,,,l,1,"[""0.362"",""0.217"",""0.622"",""0.700""]","[0,1,1,1]",0,28,28,28,1,1,0,,,1,FALSE,0.8992,,,,,,,,,,,,,,,,,,,,,,,,,,,,,,
,,001,2022-04-29_13h13.33.388,classification_task,2021.2.3,Win32,60.25548325,5e3218f5de60e31ff2b2294c,626b377229c10585ec392f8a,626b3b801e07866f9acdc59d,,,,,,,,,,,,,,,,,,,,,,,l,1,"[""0.085"",""0.366"",""0.459"",""0.746""]","[1,0,1,1]",0,29,29,29,1,1,1,,,1,FALSE,0.9351,,,,,,,,,,,,,,,,,,,,,,,,,,,,,,
,,001,2022-04-29_13h13.33.388,classification_task,2021.2.3,Win32,60.25548325,5e3218f5de60e31ff2b2294c,626b377229c10585ec392f8a,626b3b801e07866f9acdc59d,,,,,,,,,,,,,,,,,,,,,,,a,1,"[""0.287"",""0.514"",""0.838"",""0.800""]","[1,1,1,0]",0,30,30,30,1,0,0,,,1,FALSE,0.6226,,,,,,,,,,,,,,,,,,,,,,,,,,,,,,
,,001,2022-04-29_13h13.33.388,classification_task,2021.2.3,Win32,60.25548325,5e3218f5de60e31ff2b2294c,626b377229c10585ec392f8a,626b3b801e07866f9acdc59d,,,,,,,,,,,,,,,,,,,,,,,l,1,"[""0.131"",""0.217"",""0.333"",""0.700""]","[1,1,0,1]",0,31,31,31,1,1,0,,,1,FALSE,1.149,,,,,,,,,,,,,,,,,,,,,,,,,,,,,,
,,001,2022-04-29_13h13.33.388,classification_task,2021.2.3,Win32,60.25548325,5e3218f5de60e31ff2b2294c,626b377229c10585ec392f8a,626b3b801e07866f9acdc59d,,,,,,,,,,,,,,,,,,,,,,,a,0,"[""0.789"",""0.401"",""0.459"",""0.746""]","[0,1,1,1]",0,32,32,32,1,1,1,,,1,FALSE,0.9249,,,,,,,,,,,,,,,,,,,,,,,,,,,,,,
,,001,2022-04-29_13h13.33.388,classification_task,2021.2.3,Win32,60.25548325,5e3218f5de60e31ff2b2294c,626b377229c10585ec392f8a,626b3b801e07866f9acdc59d,,,,,,,,,,,,,,,,,,,,,,,a,1,"[""0.287"",""0.514"",""0.789"",""0.955""]","[1,1,0,1]",0,33,33,33,1,0,0,,,1,FALSE,0.8356,,,,,,,,,,,,,,,,,,,,,,,,,,,,,,
,,001,2022-04-29_13h13.33.388,classification_task,2021.2.3,Win32,60.25548325,5e3218f5de60e31ff2b2294c,626b377229c10585ec392f8a,626b3b801e07866f9acdc59d,,,,,,,,,,,,,,,,,,,,,,,l,1,"[""0.085"",""0.325"",""0.459"",""0.746""]","[1,0,1,1]",0,34,34,34,1,1,1,,,1,FALSE,0.8833,,,,,,,,,,,,,,,,,,,,,,,,,,,,,,
,,001,2022-04-29_13h13.33.388,classification_task,2021.2.3,Win32,60.25548325,5e3218f5de60e31ff2b2294c,626b377229c10585ec392f8a,626b3b801e07866f9acdc59d,,,,,,,,,,,,,,,,,,,,,,,l,1,"[""0.800"",""0.217"",""0.622"",""0.700""]","[0,1,1,1]",0,35,35,35,1,1,0,,,1,FALSE,0.86,,,,,,,,,,,,,,,,,,,,,,,,,,,,,,
,,001,2022-04-29_13h13.33.388,classification_task,2021.2.3,Win32,60.25548325,5e3218f5de60e31ff2b2294c,626b377229c10585ec392f8a,626b3b801e07866f9acdc59d,,,,,,,,,,,,,,,,,,,,,,,a,1,"[""0.167"",""0.562"",""0.663"",""0.796""]","[1,1,1,0]",0,36,36,36,1,0,1,,,1,FALSE,0.8828,,,,,,,,,,,,,,,,,,,,,,,,,,,,,,
,,001,2022-04-29_13h13.33.388,classification_task,2021.2.3,Win32,60.25548325,5e3218f5de60e31ff2b2294c,626b377229c10585ec392f8a,626b3b801e07866f9acdc59d,,,,,,,,,,,,,,,,,,,,,,,a,1,"[""0.167"",""0.562"",""0.799"",""0.899""]","[1,1,0,1]",0,37,37,37,1,0,1,,,1,FALSE,0.8656,,,,,,,,,,,,,,,,,,,,,,,,,,,,,,
,,001,2022-04-29_13h13.33.388,classification_task,2021.2.3,Win32,60.25548325,5e3218f5de60e31ff2b2294c,626b377229c10585ec392f8a,626b3b801e07866f9acdc59d,,,,,,,,,,,,,,,,,,,,,,,l,1,"[""0.131"",""0.217"",""0.789"",""0.700""]","[1,1,0,1]",0,38,38,38,1,1,0,,,1,FALSE,0.9717,,,,,,,,,,,,,,,,,,,,,,,,,,,,,,
,,001,2022-04-29_13h13.33.388,classification_task,2021.2.3,Win32,60.25548325,5e3218f5de60e31ff2b2294c,626b377229c10585ec392f8a,626b3b801e07866f9acdc59d,,,,,,,,,,,,,,,,,,,,,,,a,0,"[""0.085"",""0.401"",""0.459"",""0.041""]","[1,1,1,0]",0,39,39,39,1,1,1,,,1,FALSE,0.8379,,,,,,,,,,,,,,,,,,,,,,,,,,,,,,
,,001,2022-04-29_13h13.33.388,classification_task,2021.2.3,Win32,60.25548325,5e3218f5de60e31ff2b2294c,626b377229c10585ec392f8a,626b3b801e07866f9acdc59d,,,,,,,,,,,,,,,,,,,,,,,l,1,"[""0.131"",""0.217"",""0.622"",""0.800""]","[1,1,1,0]",0,40,40,40,1,1,0,,,1,FALSE,1.0004,,,,,,,,,,,,,,,,,,,,,,,,,,,,,,
,,001,2022-04-29_13h13.33.388,classification_task,2021.2.3,Win32,60.25548325,5e3218f5de60e31ff2b2294c,626b377229c10585ec392f8a,626b3b801e07866f9acdc59d,,,,,,,,,,,,,,,,,,,,,,,a,1,"[""0.287"",""0.800"",""0.838"",""0.955""]","[1,0,1,1]",0,41,41,41,1,0,0,,,1,FALSE,0.7415,,,,,,,,,,,,,,,,,,,,,,,,,,,,,,
,,001,2022-04-29_13h13.33.388,classification_task,2021.2.3,Win32,60.25548325,5e3218f5de60e31ff2b2294c,626b377229c10585ec392f8a,626b3b801e07866f9acdc59d,,,,,,,,,,,,,,,,,,,,,,,l,1,"[""0.085"",""0.401"",""0.366"",""0.746""]","[1,1,0,1]",0,42,42,42,1,1,1,,,1,FALSE,0.9156,,,,,,,,,,,,,,,,,,,,,,,,,,,,,,
,,001,2022-04-29_13h13.33.388,classification_task,2021.2.3,Win32,60.25548325,5e3218f5de60e31ff2b2294c,626b377229c10585ec392f8a,626b3b801e07866f9acdc59d,,,,,,,,,,,,,,,,,,,,,,,l,1,"[""0.131"",""0.048"",""0.622"",""0.700""]","[1,0,1,1]",0,43,43,43,1,1,0,,,1,FALSE,0.6591,,,,,,,,,,,,,,,,,,,,,,,,,,,,,,
,,001,2022-04-29_13h13.33.388,classification_task,2021.2.3,Win32,60.25548325,5e3218f5de60e31ff2b2294c,626b377229c10585ec392f8a,626b3b801e07866f9acdc59d,,,,,,,,,,,,,,,,,,,,,,,a,1,"[""0.287"",""0.514"",""0.838"",""0.799""]","[1,1,1,0]",0,44,44,44,1,0,0,,,1,FALSE,0.7273,,,,,,,,,,,,,,,,,,,,,,,,,,,,,,
,,001,2022-04-29_13h13.33.388,classification_task,2021.2.3,Win32,60.25548325,5e3218f5de60e31ff2b2294c,626b377229c10585ec392f8a,626b3b801e07866f9acdc59d,,,,,,,,,,,,,,,,,,,,,,,l,0,"[""0.333"",""0.514"",""0.838"",""0.955""]","[0,1,1,1]",0,45,45,45,1,0,0,,,1,FALSE,0.7762,,,,,,,,,,,,,,,,,,,,,,,,,,,,,,
,,001,2022-04-29_13h13.33.388,classification_task,2021.2.3,Win32,60.25548325,5e3218f5de60e31ff2b2294c,626b377229c10585ec392f8a,626b3b801e07866f9acdc59d,,,,,,,,,,,,,,,,,,,,,,,a,1,"[""0.041"",""0.562"",""0.663"",""0.899""]","[0,1,1,1]",0,46,46,46,1,0,1,,,1,FALSE,2.1415,,,,,,,,,,,,,,,,,,,,,,,,,,,,,,
,,001,2022-04-29_13h13.33.388,classification_task,2021.2.3,Win32,60.25548325,5e3218f5de60e31ff2b2294c,626b377229c10585ec392f8a,626b3b801e07866f9acdc59d,,,,,,,,,,,,,,,,,,,,,,,a,1,"[""0.167"",""0.800"",""0.663"",""0.899""]","[1,0,1,1]",0,47,47,47,1,0,1,,,1,FALSE,1.1446,,,,,,,,,,,,,,,,,,,,,,,,,,,,,,
,,001,2022-04-29_13h13.33.388,classification_task,2021.2.3,Win32,60.25548325,5e3218f5de60e31ff2b2294c,626b377229c10585ec392f8a,626b3b801e07866f9acdc59d,,,,,,,,,,,,,,,,,,,,,,,l,1,"[""0.085"",""0.401"",""0.459"",""0.325""]","[1,1,1,0]",0,48,48,48,1,1,1,,,1,FALSE,0.7709,,,,,,,,,,,,,,,,,,,,,,,,,,,,,,
,,001,2022-04-29_13h13.33.388,classification_task,2021.2.3,Win32,60.25548325,5e3218f5de60e31ff2b2294c,626b377229c10585ec392f8a,626b3b801e07866f9acdc59d,,,,,,,,,,,,,,,,,,,,,,,l,1,"[""0.131"",""0.217"",""0.622"",""0.366""]","[1,1,1,0]",0,49,49,49,1,1,0,,,1,FALSE,1.19,,,,,,,,,,,,,,,,,,,,,,,,,,,,,,
,,001,2022-04-29_13h13.33.388,classification_task,2021.2.3,Win32,60.25548325,5e3218f5de60e31ff2b2294c,626b377229c10585ec392f8a,626b3b801e07866f9acdc59d,,,,,,,,,,,,,,,,,,,,,,,a,0,"[""0.347"",""0.401"",""0.459"",""0.746""]","[0,1,1,1]",0,50,50,50,1,1,1,,,1,FALSE,1.5186,,,,,,,,,,,,,,,,,,,,,,,,,,,,,,
,,001,2022-04-29_13h13.33.388,classification_task,2021.2.3,Win32,60.25548325,5e3218f5de60e31ff2b2294c,626b377229c10585ec392f8a,626b3b801e07866f9acdc59d,,,,,,,,,,,,,,,,,,,,,,,l,1,"[""0.085"",""0.401"",""0.800"",""0.746""]","[1,1,0,1]",0,51,51,51,1,1,1,,,1,FALSE,0.9208,,,,,,,,,,,,,,,,,,,,,,,,,,,,,,
,,001,2022-04-29_13h13.33.388,classification_task,2021.2.3,Win32,60.25548325,5e3218f5de60e31ff2b2294c,626b377229c10585ec392f8a,626b3b801e07866f9acdc59d,,,,,,,,,,,,,,,,,,,,,,,a,1,"[""0.167"",""0.562"",""0.333"",""0.899""]","[1,1,0,1]",0,52,52,52,1,0,1,,,1,FALSE,0.8415,,,,,,,,,,,,,,,,,,,,,,,,,,,,,,
,,001,2022-04-29_13h13.33.388,classification_task,2021.2.3,Win32,60.25548325,5e3218f5de60e31ff2b2294c,626b377229c10585ec392f8a,626b3b801e07866f9acdc59d,,,,,,,,,,,,,,,,,,,,,,,a,1,"[""0.167"",""0.362"",""0.663"",""0.899""]","[1,0,1,1]",0,53,53,53,1,0,1,,,1,FALSE,0.5997,,,,,,,,,,,,,,,,,,,,,,,,,,,,,,
,,001,2022-04-29_13h13.33.388,classification_task,2021.2.3,Win32,60.25548325,5e3218f5de60e31ff2b2294c,626b377229c10585ec392f8a,626b3b801e07866f9acdc59d,,,,,,,,,,,,,,,,,,,,,,,a,1,"[""0.287"",""0.514"",""0.041"",""0.955""]","[1,1,0,1]",0,54,54,54,1,0,0,,,1,FALSE,1.9497,,,,,,,,,,,,,,,,,,,,,,,,,,,,,,
,,001,2022-04-29_13h13.33.388,classification_task,2021.2.3,Win32,60.25548325,5e3218f5de60e31ff2b2294c,626b377229c10585ec392f8a,626b3b801e07866f9acdc59d,,,,,,,,,,,,,,,,,,,,,,,l,1,"[""0.131"",""0.217"",""0.800"",""0.700""]","[1,1,0,1]",0,55,55,55,1,1,0,,,1,FALSE,0.9671,,,,,,,,,,,,,,,,,,,,,,,,,,,,,,
,,001,2022-04-29_13h13.33.388,classification_task,2021.2.3,Win32,60.25548325,5e3218f5de60e31ff2b2294c,626b377229c10585ec392f8a,626b3b801e07866f9acdc59d,,,,,,,,,,,,,,,,,,,,,,,l,0,"[""0.333"",""0.514"",""0.838"",""0.955""]","[0,1,1,1]",0,56,56,56,1,0,0,,,1,FALSE,1.6515,,,,,,,,,,,,,,,,,,,,,,,,,,,,,,
,,001,2022-04-29_13h13.33.388,classification_task,2021.2.3,Win32,60.25548325,5e3218f5de60e31ff2b2294c,626b377229c10585ec392f8a,626b3b801e07866f9acdc59d,,,,,,,,,,,,,,,,,,,,,,,l,1,"[""0.338"",""0.217"",""0.622"",""0.700""]","[0,1,1,1]",0,57,57,57,1,1,0,,,1,FALSE,1.7731,,,,,,,,,,,,,,,,,,,,,,,,,,,,,,
,,001,2022-04-29_13h13.33.388,classification_task,2021.2.3,Win32,60.25548325,5e3218f5de60e31ff2b2294c,626b377229c10585ec392f8a,626b3b801e07866f9acdc59d,,,,,,,,,,,,,,,,,,,,,,,a,1,"[""0.287"",""0.789"",""0.838"",""0.955""]","[1,0,1,1]",0,58,58,58,1,0,0,,,1,FALSE,0.6166,,,,,,,,,,,,,,,,,,,,,,,,,,,,,,
,,001,2022-04-29_13h13.33.388,classification_task,2021.2.3,Win32,60.25548325,5e3218f5de60e31ff2b2294c,626b377229c10585ec392f8a,626b3b801e07866f9acdc59d,,,,,,,,,,,,,,,,,,,,,,,a,1,"[""0.287"",""0.514"",""0.838"",""0.800""]","[1,1,1,0]",0,59,59,59,1,0,0,,,1,FALSE,0.6003,,,,,,,,,,,,,,,,,,,,,,,,,,,,,,
,,001,2022-04-29_13h13.33.388,classification_task,2021.2.3,Win32,60.25548325,5e3218f5de60e31ff2b2294c,626b377229c10585ec392f8a,626b3b801e07866f9acdc59d,,,,,,,,,,,,,,,,,,,,,,,a,1,"[""0.793"",""0.562"",""0.663"",""0.899""]","[0,1,1,1]",0,60,60,60,1,0,1,,,1,FALSE,1.6182,,,,,,,,,,,,,,,,,,,,,,,,,,,,,,
,,001,2022-04-29_13h13.33.388,classification_task,2021.2.3,Win32,60.25548325,5e3218f5de60e31ff2b2294c,626b377229c10585ec392f8a,626b3b801e07866f9acdc59d,,,,,,,,,,,,,,,,,,,,,,,l,1,"[""0.085"",""0.362"",""0.459"",""0.746""]","[1,0,1,1]",0,61,61,61,1,1,1,,,1,FALSE,0.917,,,,,,,,,,,,,,,,,,,,,,,,,,,,,,
,,001,2022-04-29_13h13.33.388,classification_task,2021.2.3,Win32,60.25548325,5e3218f5de60e31ff2b2294c,626b377229c10585ec392f8a,626b3b801e07866f9acdc59d,,,,,,,,,,,,,,,,,,,,,,,l,1,"[""0.131"",""0.332"",""0.622"",""0.700""]","[1,0,1,1]",0,62,62,62,1,1,0,,,1,FALSE,1.4534,,,,,,,,,,,,,,,,,,,,,,,,,,,,,,
,,001,2022-04-29_13h13.33.388,classification_task,2021.2.3,Win32,60.25548325,5e3218f5de60e31ff2b2294c,626b377229c10585ec392f8a,626b3b801e07866f9acdc59d,,,,,,,,,,,,,,,,,,,,,,,a,1,"[""0.167"",""0.562"",""0.663"",""0.789""]","[1,1,1,0]",0,63,63,63,1,0,1,,,1,FALSE,1.0168,,,,,,,,,,,,,,,,,,,,,,,,,,,,,,
,,001,2022-04-29_13h13.33.388,classification_task,2021.2.3,Win32,60.25548325,5e3218f5de60e31ff2b2294c,626b377229c10585ec392f8a,626b3b801e07866f9acdc59d,,,,,,,,,,,,,,,,,,,,,,,,,,,,,,,,,,,,,,,0, ,,0,6.818783816,159.7939,0,1,1,1,1,2,2,,,,,,,,,,,,,,,,,
,,001,2022-04-29_13h13.33.388,classification_task,2021.2.3,Win32,60.25548325,5e3218f5de60e31ff2b2294c,626b377229c10585ec392f8a,626b3b801e07866f9acdc59d,,,,,,,,,,,,,,,,,,,,,,,,,,,,,,,,,,,,,,,1,  ,,0,4.712180232,164.8677,0,1,1,1,1,2,2,,,,,,,,,,,,,,,,,
,,001,2022-04-29_13h13.33.388,classification_task,2021.2.3,Win32,60.25548325,5e3218f5de60e31ff2b2294c,626b377229c10585ec392f8a,626b3b801e07866f9acdc59d,,,,,,,,,,,,,,,,,,,,,,,,,,,,,,,,,,,,,,,2,  ,,0,3.438418577,169.5293,0,1,1,1,1,2,2,,,,,,,,,,,,,,,,,
,,001,2022-04-29_13h13.33.388,classification_task,2021.2.3,Win32,60.25548325,5e3218f5de60e31ff2b2294c,626b377229c10585ec392f8a,626b3b801e07866f9acdc59d,,,,,,,,,,,,,,,,,,,,,,,,,,,,,,,,,,,,,,,,,,,,,0,1,1,1,1,,2,,,,,,,,,,,,,,,,,
,,001,2022-04-29_13h13.33.388,classification_task,2021.2.3,Win32,60.25548325,5e3218f5de60e31ff2b2294c,626b377229c10585ec392f8a,626b3b801e07866f9acdc59d,,,,,,,,,,,,,,,,,,,,,space,7.5103,l,1,"[""0.085"",""0.401"",""0.362"",""0.746""]","[1,1,0,1]",0,0,0,0,1,1,1,,,1,FALSE,1.6259,,,,,,,,,,,,,,,,,,,,,,,,,,,,,,
,,001,2022-04-29_13h13.33.388,classification_task,2021.2.3,Win32,60.25548325,5e3218f5de60e31ff2b2294c,626b377229c10585ec392f8a,626b3b801e07866f9acdc59d,,,,,,,,,,,,,,,,,,,,,,,a,1,"[""0.167"",""0.562"",""0.663"",""0.347""]","[1,1,1,0]",0,1,1,1,1,0,1,,,1,FALSE,0.9441,,,,,,,,,,,,,,,,,,,,,,,,,,,,,,
,,001,2022-04-29_13h13.33.388,classification_task,2021.2.3,Win32,60.25548325,5e3218f5de60e31ff2b2294c,626b377229c10585ec392f8a,626b3b801e07866f9acdc59d,,,,,,,,,,,,,,,,,,,,,,,l,1,"[""0.131"",""0.217"",""0.333"",""0.700""]","[1,1,0,1]",0,2,2,2,1,1,0,,,1,FALSE,1.0408,,,,,,,,,,,,,,,,,,,,,,,,,,,,,,
,,001,2022-04-29_13h13.33.388,classification_task,2021.2.3,Win32,60.25548325,5e3218f5de60e31ff2b2294c,626b377229c10585ec392f8a,626b3b801e07866f9acdc59d,,,,,,,,,,,,,,,,,,,,,,,a,0,"[""0.347"",""0.401"",""0.459"",""0.746""]","[0,1,1,1]",0,3,3,3,1,1,1,,,1,FALSE,1.433,,,,,,,,,,,,,,,,,,,,,,,,,,,,,,
,,001,2022-04-29_13h13.33.388,classification_task,2021.2.3,Win32,60.25548325,5e3218f5de60e31ff2b2294c,626b377229c10585ec392f8a,626b3b801e07866f9acdc59d,,,,,,,,,,,,,,,,,,,,,,,l,0,"[""0.048"",""0.562"",""0.663"",""0.899""]","[0,1,1,1]",0,4,4,4,1,0,1,,,1,FALSE,0.7029,,,,,,,,,,,,,,,,,,,,,,,,,,,,,,
,,001,2022-04-29_13h13.33.388,classification_task,2021.2.3,Win32,60.25548325,5e3218f5de60e31ff2b2294c,626b377229c10585ec392f8a,626b3b801e07866f9acdc59d,,,,,,,,,,,,,,,,,,,,,,,l,1,"[""0.362"",""0.217"",""0.622"",""0.700""]","[0,1,1,1]",0,5,5,5,1,1,0,,,1,FALSE,0.9491,,,,,,,,,,,,,,,,,,,,,,,,,,,,,,
,,001,2022-04-29_13h13.33.388,classification_task,2021.2.3,Win32,60.25548325,5e3218f5de60e31ff2b2294c,626b377229c10585ec392f8a,626b3b801e07866f9acdc59d,,,,,,,,,,,,,,,,,,,,,,,l,1,"[""0.085"",""0.401"",""0.459"",""0.333""]","[1,1,1,0]",0,6,6,6,1,1,1,,,1,FALSE,1.0576,,,,,,,,,,,,,,,,,,,,,,,,,,,,,,
,,001,2022-04-29_13h13.33.388,classification_task,2021.2.3,Win32,60.25548325,5e3218f5de60e31ff2b2294c,626b377229c10585ec392f8a,626b3b801e07866f9acdc59d,,,,,,,,,,,,,,,,,,,,,,,a,1,"[""0.167"",""0.332"",""0.663"",""0.899""]","[1,0,1,1]",0,7,7,7,1,0,1,,,1,FALSE,0.8513,,,,,,,,,,,,,,,,,,,,,,,,,,,,,,
,,001,2022-04-29_13h13.33.388,classification_task,2021.2.3,Win32,60.25548325,5e3218f5de60e31ff2b2294c,626b377229c10585ec392f8a,626b3b801e07866f9acdc59d,,,,,,,,,,,,,,,,,,,,,,,a,1,"[""0.167"",""0.562"",""0.800"",""0.899""]","[1,1,0,1]",0,8,8,8,1,0,1,,,1,FALSE,0.5826,,,,,,,,,,,,,,,,,,,,,,,,,,,,,,
,,001,2022-04-29_13h13.33.388,classification_task,2021.2.3,Win32,60.25548325,5e3218f5de60e31ff2b2294c,626b377229c10585ec392f8a,626b3b801e07866f9acdc59d,,,,,,,,,,,,,,,,,,,,,,,l,1,"[""0.131"",""0.217"",""0.622"",""0.048""]","[1,1,1,0]",0,9,9,9,1,1,0,,,1,FALSE,2.5763,,,,,,,,,,,,,,,,,,,,,,,,,,,,,,
,,001,2022-04-29_13h13.33.388,classification_task,2021.2.3,Win32,60.25548325,5e3218f5de60e31ff2b2294c,626b377229c10585ec392f8a,626b3b801e07866f9acdc59d,,,,,,,,,,,,,,,,,,,,,,,l,1,"[""0.085"",""0.048"",""0.459"",""0.746""]","[1,0,1,1]",0,10,10,10,1,1,1,,,1,FALSE,0.948,,,,,,,,,,,,,,,,,,,,,,,,,,,,,,
,,001,2022-04-29_13h13.33.388,classification_task,2021.2.3,Win32,60.25548325,5e3218f5de60e31ff2b2294c,626b377229c10585ec392f8a,626b3b801e07866f9acdc59d,,,,,,,,,,,,,,,,,,,,,,,a,1,"[""0.287"",""0.514"",""0.838"",""0.799""]","[1,1,1,0]",0,11,11,11,1,0,0,,,1,FALSE,0.8018,,,,,,,,,,,,,,,,,,,,,,,,,,,,,,
,,001,2022-04-29_13h13.33.388,classification_task,2021.2.3,Win32,60.25548325,5e3218f5de60e31ff2b2294c,626b377229c10585ec392f8a,626b3b801e07866f9acdc59d,,,,,,,,,,,,,,,,,,,,,,,l,1,"[""0.131"",""0.333"",""0.622"",""0.700""]","[1,0,1,1]",0,12,12,12,1,1,0,,,1,FALSE,0.816,,,,,,,,,,,,,,,,,,,,,,,,,,,,,,
,,001,2022-04-29_13h13.33.388,classification_task,2021.2.3,Win32,60.25548325,5e3218f5de60e31ff2b2294c,626b377229c10585ec392f8a,626b3b801e07866f9acdc59d,,,,,,,,,,,,,,,,,,,,,,,l,0,"[""0.333"",""0.514"",""0.838"",""0.955""]","[0,1,1,1]",0,13,13,13,1,0,0,,,1,FALSE,1.6664,,,,,,,,,,,,,,,,,,,,,,,,,,,,,,
,,001,2022-04-29_13h13.33.388,classification_task,2021.2.3,Win32,60.25548325,5e3218f5de60e31ff2b2294c,626b377229c10585ec392f8a,626b3b801e07866f9acdc59d,,,,,,,,,,,,,,,,,,,,,,,a,1,"[""0.287"",""0.333"",""0.838"",""0.955""]","[1,0,1,1]",0,14,14,14,1,0,0,,,1,FALSE,1.0829,,,,,,,,,,,,,,,,,,,,,,,,,,,,,,
,,001,2022-04-29_13h13.33.388,classification_task,2021.2.3,Win32,60.25548325,5e3218f5de60e31ff2b2294c,626b377229c10585ec392f8a,626b3b801e07866f9acdc59d,,,,,,,,,,,,,,,,,,,,,,,a,1,"[""0.287"",""0.514"",""0.325"",""0.955""]","[1,1,0,1]",0,15,15,15,1,0,0,,,1,FALSE,0.649,,,,,,,,,,,,,,,,,,,,,,,,,,,,,,
,,001,2022-04-29_13h13.33.388,classification_task,2021.2.3,Win32,60.25548325,5e3218f5de60e31ff2b2294c,626b377229c10585ec392f8a,626b3b801e07866f9acdc59d,,,,,,,,,,,,,,,,,,,,,,,l,0,"[""0.167"",""0.562"",""0.048"",""0.899""]","[1,1,0,1]",0,16,16,16,1,0,1,,,1,FALSE,0.867,,,,,,,,,,,,,,,,,,,,,,,,,,,,,,
,,001,2022-04-29_13h13.33.388,classification_task,2021.2.3,Win32,60.25548325,5e3218f5de60e31ff2b2294c,626b377229c10585ec392f8a,626b3b801e07866f9acdc59d,,,,,,,,,,,,,,,,,,,,,,,l,1,"[""0.325"",""0.217"",""0.622"",""0.700""]","[0,1,1,1]",0,17,17,17,1,1,0,,,1,FALSE,0.8996,,,,,,,,,,,,,,,,,,,,,,,,,,,,,,
,,001,2022-04-29_13h13.33.388,classification_task,2021.2.3,Win32,60.25548325,5e3218f5de60e31ff2b2294c,626b377229c10585ec392f8a,626b3b801e07866f9acdc59d,,,,,,,,,,,,,,,,,,,,,,,a,1,"[""0.167"",""0.562"",""0.663"",""0.799""]","[1,1,1,0]",0,18,18,18,1,0,1,,,1,FALSE,0.7339,,,,,,,,,,,,,,,,,,,,,,,,,,,,,,
,,001,2022-04-29_13h13.33.388,classification_task,2021.2.3,Win32,60.25548325,5e3218f5de60e31ff2b2294c,626b377229c10585ec392f8a,626b3b801e07866f9acdc59d,,,,,,,,,,,,,,,,,,,,,,,l,1,"[""0.085"",""0.366"",""0.459"",""0.746""]","[1,0,1,1]",0,19,19,19,1,1,1,,,1,FALSE,0.9883,,,,,,,,,,,,,,,,,,,,,,,,,,,,,,
,,001,2022-04-29_13h13.33.388,classification_task,2021.2.3,Win32,60.25548325,5e3218f5de60e31ff2b2294c,626b377229c10585ec392f8a,626b3b801e07866f9acdc59d,,,,,,,,,,,,,,,,,,,,,,,l,1,"[""0.131"",""0.333"",""0.622"",""0.700""]","[1,0,1,1]",0,20,20,20,1,1,0,,,1,FALSE,0.8599,,,,,,,,,,,,,,,,,,,,,,,,,,,,,,
,,001,2022-04-29_13h13.33.388,classification_task,2021.2.3,Win32,60.25548325,5e3218f5de60e31ff2b2294c,626b377229c10585ec392f8a,626b3b801e07866f9acdc59d,,,,,,,,,,,,,,,,,,,,,,,a,1,"[""0.287"",""0.514"",""0.366"",""0.955""]","[1,1,0,1]",0,21,21,21,1,0,0,,,1,FALSE,0.6838,,,,,,,,,,,,,,,,,,,,,,,,,,,,,,
,,001,2022-04-29_13h13.33.388,classification_task,2021.2.3,Win32,60.25548325,5e3218f5de60e31ff2b2294c,626b377229c10585ec392f8a,626b3b801e07866f9acdc59d,,,,,,,,,,,,,,,,,,,,,,,a,1,"[""0.167"",""0.796"",""0.663"",""0.899""]","[1,0,1,1]",0,22,22,22,1,0,1,,,1,FALSE,0.8948,,,,,,,,,,,,,,,,,,,,,,,,,,,,,,
,,001,2022-04-29_13h13.33.388,classification_task,2021.2.3,Win32,60.25548325,5e3218f5de60e31ff2b2294c,626b377229c10585ec392f8a,626b3b801e07866f9acdc59d,,,,,,,,,,,,,,,,,,,,,,,l,0,"[""0.332"",""0.514"",""0.838"",""0.955""]","[0,1,1,1]",0,23,23,23,1,0,0,,,1,FALSE,0.8026,,,,,,,,,,,,,,,,,,,,,,,,,,,,,,
,,001,2022-04-29_13h13.33.388,classification_task,2021.2.3,Win32,60.25548325,5e3218f5de60e31ff2b2294c,626b377229c10585ec392f8a,626b3b801e07866f9acdc59d,,,,,,,,,,,,,,,,,,,,,,,l,1,"[""0.131"",""0.217"",""0.358"",""0.700""]","[1,1,0,1]",0,24,24,24,1,1,0,,,1,FALSE,1.1004,,,,,,,,,,,,,,,,,,,,,,,,,,,,,,
,,001,2022-04-29_13h13.33.388,classification_task,2021.2.3,Win32,60.25548325,5e3218f5de60e31ff2b2294c,626b377229c10585ec392f8a,626b3b801e07866f9acdc59d,,,,,,,,,,,,,,,,,,,,,,,a,1,"[""0.796"",""0.562"",""0.663"",""0.899""]","[0,1,1,1]",0,25,25,25,1,0,1,,,1,FALSE,1.6015,,,,,,,,,,,,,,,,,,,,,,,,,,,,,,
,,001,2022-04-29_13h13.33.388,classification_task,2021.2.3,Win32,60.25548325,5e3218f5de60e31ff2b2294c,626b377229c10585ec392f8a,626b3b801e07866f9acdc59d,,,,,,,,,,,,,,,,,,,,,,,l,1,"[""0.085"",""0.401"",""0.332"",""0.746""]","[1,1,0,1]",0,26,26,26,1,1,1,,,1,FALSE,0.7824,,,,,,,,,,,,,,,,,,,,,,,,,,,,,,
,,001,2022-04-29_13h13.33.388,classification_task,2021.2.3,Win32,60.25548325,5e3218f5de60e31ff2b2294c,626b377229c10585ec392f8a,626b3b801e07866f9acdc59d,,,,,,,,,,,,,,,,,,,,,,,l,1,"[""0.347"",""0.401"",""0.459"",""0.746""]","[0,1,1,1]",0,27,27,27,1,1,1,,,1,FALSE,1.3202,,,,,,,,,,,,,,,,,,,,,,,,,,,,,,
,,001,2022-04-29_13h13.33.388,classification_task,2021.2.3,Win32,60.25548325,5e3218f5de60e31ff2b2294c,626b377229c10585ec392f8a,626b3b801e07866f9acdc59d,,,,,,,,,,,,,,,,,,,,,,,l,1,"[""0.131"",""0.217"",""0.622"",""0.048""]","[1,1,1,0]",0,28,28,28,1,1,0,,,1,FALSE,0.8751,,,,,,,,,,,,,,,,,,,,,,,,,,,,,,
,,001,2022-04-29_13h13.33.388,classification_task,2021.2.3,Win32,60.25548325,5e3218f5de60e31ff2b2294c,626b377229c10585ec392f8a,626b3b801e07866f9acdc59d,,,,,,,,,,,,,,,,,,,,,,,a,1,"[""0.287"",""0.789"",""0.838"",""0.955""]","[1,0,1,1]",0,29,29,29,1,0,0,,,1,FALSE,0.7488,,,,,,,,,,,,,,,,,,,,,,,,,,,,,,
,,001,2022-04-29_13h13.33.388,classification_task,2021.2.3,Win32,60.25548325,5e3218f5de60e31ff2b2294c,626b377229c10585ec392f8a,626b3b801e07866f9acdc59d,,,,,,,,,,,,,,,,,,,,,,,l,1,"[""0.085"",""0.401"",""0.459"",""0.358""]","[1,1,1,0]",0,30,30,30,1,1,1,,,1,FALSE,0.7351,,,,,,,,,,,,,,,,,,,,,,,,,,,,,,
,,001,2022-04-29_13h13.33.388,classification_task,2021.2.3,Win32,60.25548325,5e3218f5de60e31ff2b2294c,626b377229c10585ec392f8a,626b3b801e07866f9acdc59d,,,,,,,,,,,,,,,,,,,,,,,a,1,"[""0.287"",""0.514"",""0.838"",""0.793""]","[1,1,1,0]",0,31,31,31,1,0,0,,,1,FALSE,0.6579,,,,,,,,,,,,,,,,,,,,,,,,,,,,,,
,,001,2022-04-29_13h13.33.388,classification_task,2021.2.3,Win32,60.25548325,5e3218f5de60e31ff2b2294c,626b377229c10585ec392f8a,626b3b801e07866f9acdc59d,,,,,,,,,,,,,,,,,,,,,,,l,1,"[""0.085"",""0.401"",""0.325"",""0.746""]","[1,1,0,1]",0,32,32,32,1,1,1,,,1,FALSE,0.8369,,,,,,,,,,,,,,,,,,,,,,,,,,,,,,
,,001,2022-04-29_13h13.33.388,classification_task,2021.2.3,Win32,60.25548325,5e3218f5de60e31ff2b2294c,626b377229c10585ec392f8a,626b3b801e07866f9acdc59d,,,,,,,,,,,,,,,,,,,,,,,l,1,"[""0.085"",""0.401"",""0.459"",""0.048""]","[1,1,1,0]",0,33,33,33,1,1,1,,,1,FALSE,0.7897,,,,,,,,,,,,,,,,,,,,,,,,,,,,,,
,,001,2022-04-29_13h13.33.388,classification_task,2021.2.3,Win32,60.25548325,5e3218f5de60e31ff2b2294c,626b377229c10585ec392f8a,626b3b801e07866f9acdc59d,,,,,,,,,,,,,,,,,,,,,,,l,1,"[""0.789"",""0.401"",""0.459"",""0.746""]","[0,1,1,1]",0,34,34,34,1,1,1,,,1,FALSE,1.5731,,,,,,,,,,,,,,,,,,,,,,,,,,,,,,
,,001,2022-04-29_13h13.33.388,classification_task,2021.2.3,Win32,60.25548325,5e3218f5de60e31ff2b2294c,626b377229c10585ec392f8a,626b3b801e07866f9acdc59d,,,,,,,,,,,,,,,,,,,,,,,l,1,"[""0.325"",""0.217"",""0.622"",""0.700""]","[0,1,1,1]",0,35,35,35,1,1,0,,,1,FALSE,0.8106,,,,,,,,,,,,,,,,,,,,,,,,,,,,,,
,,001,2022-04-29_13h13.33.388,classification_task,2021.2.3,Win32,60.25548325,5e3218f5de60e31ff2b2294c,626b377229c10585ec392f8a,626b3b801e07866f9acdc59d,,,,,,,,,,,,,,,,,,,,,,,a,1,"[""0.167"",""0.800"",""0.663"",""0.899""]","[1,0,1,1]",0,36,36,36,1,0,1,,,1,FALSE,0.8172,,,,,,,,,,,,,,,,,,,,,,,,,,,,,,
,,001,2022-04-29_13h13.33.388,classification_task,2021.2.3,Win32,60.25548325,5e3218f5de60e31ff2b2294c,626b377229c10585ec392f8a,626b3b801e07866f9acdc59d,,,,,,,,,,,,,,,,,,,,,,,l,1,"[""0.085"",""0.048"",""0.459"",""0.746""]","[1,0,1,1]",0,37,37,37,1,1,1,,,1,FALSE,0.6431,,,,,,,,,,,,,,,,,,,,,,,,,,,,,,
,,001,2022-04-29_13h13.33.388,classification_task,2021.2.3,Win32,60.25548325,5e3218f5de60e31ff2b2294c,626b377229c10585ec392f8a,626b3b801e07866f9acdc59d,,,,,,,,,,,,,,,,,,,,,,,l,0,"[""0.333"",""0.562"",""0.663"",""0.899""]","[0,1,1,1]",0,38,38,38,1,0,1,,,1,FALSE,0.9682,,,,,,,,,,,,,,,,,,,,,,,,,,,,,,
,,001,2022-04-29_13h13.33.388,classification_task,2021.2.3,Win32,60.25548325,5e3218f5de60e31ff2b2294c,626b377229c10585ec392f8a,626b3b801e07866f9acdc59d,,,,,,,,,,,,,,,,,,,,,,,l,1,"[""0.131"",""0.217"",""0.366"",""0.700""]","[1,1,0,1]",0,39,39,39,1,1,0,,,1,FALSE,1.1439,,,,,,,,,,,,,,,,,,,,,,,,,,,,,,
,,001,2022-04-29_13h13.33.388,classification_task,2021.2.3,Win32,60.25548325,5e3218f5de60e31ff2b2294c,626b377229c10585ec392f8a,626b3b801e07866f9acdc59d,,,,,,,,,,,,,,,,,,,,,,,a,1,"[""0.287"",""0.514"",""0.333"",""0.955""]","[1,1,0,1]",0,40,40,40,1,0,0,,,1,FALSE,0.7511,,,,,,,,,,,,,,,,,,,,,,,,,,,,,,
,,001,2022-04-29_13h13.33.388,classification_task,2021.2.3,Win32,60.25548325,5e3218f5de60e31ff2b2294c,626b377229c10585ec392f8a,626b3b801e07866f9acdc59d,,,,,,,,,,,,,,,,,,,,,,,a,1,"[""0.793"",""0.514"",""0.838"",""0.955""]","[0,1,1,1]",0,41,41,41,1,0,0,,,1,FALSE,1.6656,,,,,,,,,,,,,,,,,,,,,,,,,,,,,,
,,001,2022-04-29_13h13.33.388,classification_task,2021.2.3,Win32,60.25548325,5e3218f5de60e31ff2b2294c,626b377229c10585ec392f8a,626b3b801e07866f9acdc59d,,,,,,,,,,,,,,,,,,,,,,,l,1,"[""0.131"",""0.217"",""0.622"",""0.800""]","[1,1,1,0]",0,42,42,42,1,1,0,,,1,FALSE,0.7814,,,,,,,,,,,,,,,,,,,,,,,,,,,,,,
,,001,2022-04-29_13h13.33.388,classification_task,2021.2.3,Win32,60.25548325,5e3218f5de60e31ff2b2294c,626b377229c10585ec392f8a,626b3b801e07866f9acdc59d,,,,,,,,,,,,,,,,,,,,,,,a,1,"[""0.287"",""0.325"",""0.838"",""0.955""]","[1,0,1,1]",0,43,43,43,1,0,0,,,1,FALSE,0.7504,,,,,,,,,,,,,,,,,,,,,,,,,,,,,,
,,001,2022-04-29_13h13.33.388,classification_task,2021.2.3,Win32,60.25548325,5e3218f5de60e31ff2b2294c,626b377229c10585ec392f8a,626b3b801e07866f9acdc59d,,,,,,,,,,,,,,,,,,,,,,,l,0,"[""0.167"",""0.562"",""0.041"",""0.899""]","[1,1,0,1]",0,44,44,44,1,0,1,,,1,FALSE,0.709,,,,,,,,,,,,,,,,,,,,,,,,,,,,,,
,,001,2022-04-29_13h13.33.388,classification_task,2021.2.3,Win32,60.25548325,5e3218f5de60e31ff2b2294c,626b377229c10585ec392f8a,626b3b801e07866f9acdc59d,,,,,,,,,,,,,,,,,,,,,,,l,1,"[""0.131"",""0.041"",""0.622"",""0.700""]","[1,0,1,1]",0,45,45,45,1,1,0,,,1,FALSE,0.8658,,,,,,,,,,,,,,,,,,,,,,,,,,,,,,
,,001,2022-04-29_13h13.33.388,classification_task,2021.2.3,Win32,60.25548325,5e3218f5de60e31ff2b2294c,626b377229c10585ec392f8a,626b3b801e07866f9acdc59d,,,,,,,,,,,,,,,,,,,,,,,a,1,"[""0.167"",""0.562"",""0.663"",""0.362""]","[1,1,1,0]",0,46,46,46,1,0,1,,,1,FALSE,0.8734,,,,,,,,,,,,,,,,,,,,,,,,,,,,,,
,,001,2022-04-29_13h13.33.388,classification_task,2021.2.3,Win32,60.25548325,5e3218f5de60e31ff2b2294c,626b377229c10585ec392f8a,626b3b801e07866f9acdc59d,,,,,,,,,,,,,,,,,,,,,,,a,1,"[""0.287"",""0.514"",""0.838"",""0.796""]","[1,1,1,0]",0,47,47,47,1,0,0,,,1,FALSE,0.6368,,,,,,,,,,,,,,,,,,,,,,,,,,,,,,
,,001,2022-04-29_13h13.33.388,classification_task,2021.2.3,Win32,60.25548325,5e3218f5de60e31ff2b2294c,626b377229c10585ec392f8a,626b3b801e07866f9acdc59d,,,,,,,,,,,,,,,,,,,,,,,a,1,"[""0.167"",""0.562"",""0.663"",""0.799""]","[1,1,1,0]",0,48,48,48,1,0,1,,,1,FALSE,0.7653,,,,,,,,,,,,,,,,,,,,,,,,,,,,,,
,,001,2022-04-29_13h13.33.388,classification_task,2021.2.3,Win32,60.25548325,5e3218f5de60e31ff2b2294c,626b377229c10585ec392f8a,626b3b801e07866f9acdc59d,,,,,,,,,,,,,,,,,,,,,,,l,1,"[""0.131"",""0.041"",""0.622"",""0.700""]","[1,0,1,1]",0,49,49,49,1,1,0,,,1,FALSE,0.6156,,,,,,,,,,,,,,,,,,,,,,,,,,,,,,
,,001,2022-04-29_13h13.33.388,classification_task,2021.2.3,Win32,60.25548325,5e3218f5de60e31ff2b2294c,626b377229c10585ec392f8a,626b3b801e07866f9acdc59d,,,,,,,,,,,,,,,,,,,,,,,a,1,"[""0.287"",""0.338"",""0.838"",""0.955""]","[1,0,1,1]",0,50,50,50,1,0,0,,,1,FALSE,0.9062,,,,,,,,,,,,,,,,,,,,,,,,,,,,,,
,,001,2022-04-29_13h13.33.388,classification_task,2021.2.3,Win32,60.25548325,5e3218f5de60e31ff2b2294c,626b377229c10585ec392f8a,626b3b801e07866f9acdc59d,,,,,,,,,,,,,,,,,,,,,,,l,0,"[""0.338"",""0.514"",""0.838"",""0.955""]","[0,1,1,1]",0,51,51,51,1,0,0,,,1,FALSE,0.7006,,,,,,,,,,,,,,,,,,,,,,,,,,,,,,
,,001,2022-04-29_13h13.33.388,classification_task,2021.2.3,Win32,60.25548325,5e3218f5de60e31ff2b2294c,626b377229c10585ec392f8a,626b3b801e07866f9acdc59d,,,,,,,,,,,,,,,,,,,,,,,a,1,"[""0.287"",""0.514"",""0.338"",""0.955""]","[1,1,0,1]",0,52,52,52,1,0,0,,,1,FALSE,0.7336,,,,,,,,,,,,,,,,,,,,,,,,,,,,,,
,,001,2022-04-29_13h13.33.388,classification_task,2021.2.3,Win32,60.25548325,5e3218f5de60e31ff2b2294c,626b377229c10585ec392f8a,626b3b801e07866f9acdc59d,,,,,,,,,,,,,,,,,,,,,,,a,1,"[""0.167"",""0.332"",""0.663"",""0.899""]","[1,0,1,1]",0,53,53,53,1,0,1,,,1,FALSE,0.8324,,,,,,,,,,,,,,,,,,,,,,,,,,,,,,
,,001,2022-04-29_13h13.33.388,classification_task,2021.2.3,Win32,60.25548325,5e3218f5de60e31ff2b2294c,626b377229c10585ec392f8a,626b3b801e07866f9acdc59d,,,,,,,,,,,,,,,,,,,,,,,l,1,"[""0.131"",""0.217"",""0.622"",""0.333""]","[1,1,1,0]",0,54,54,54,1,1,0,,,1,FALSE,0.6326,,,,,,,,,,,,,,,,,,,,,,,,,,,,,,
,,001,2022-04-29_13h13.33.388,classification_task,2021.2.3,Win32,60.25548325,5e3218f5de60e31ff2b2294c,626b377229c10585ec392f8a,626b3b801e07866f9acdc59d,,,,,,,,,,,,,,,,,,,,,,,l,1,"[""0.366"",""0.217"",""0.622"",""0.700""]","[0,1,1,1]",0,55,55,55,1,1,0,,,1,FALSE,0.9076,,,,,,,,,,,,,,,,,,,,,,,,,,,,,,
,,001,2022-04-29_13h13.33.388,classification_task,2021.2.3,Win32,60.25548325,5e3218f5de60e31ff2b2294c,626b377229c10585ec392f8a,626b3b801e07866f9acdc59d,,,,,,,,,,,,,,,,,,,,,,,a,1,"[""0.167"",""0.562"",""0.366"",""0.899""]","[1,1,0,1]",0,56,56,56,1,0,1,,,1,FALSE,0.789,,,,,,,,,,,,,,,,,,,,,,,,,,,,,,
,,001,2022-04-29_13h13.33.388,classification_task,2021.2.3,Win32,60.25548325,5e3218f5de60e31ff2b2294c,626b377229c10585ec392f8a,626b3b801e07866f9acdc59d,,,,,,,,,,,,,,,,,,,,,,,l,1,"[""0.085"",""0.366"",""0.459"",""0.746""]","[1,0,1,1]",0,57,57,57,1,1,1,,,1,FALSE,0.6756,,,,,,,,,,,,,,,,,,,,,,,,,,,,,,
,,001,2022-04-29_13h13.33.388,classification_task,2021.2.3,Win32,60.25548325,5e3218f5de60e31ff2b2294c,626b377229c10585ec392f8a,626b3b801e07866f9acdc59d,,,,,,,,,,,,,,,,,,,,,,,l,1,"[""0.131"",""0.217"",""0.325"",""0.700""]","[1,1,0,1]",0,58,58,58,1,1,0,,,1,FALSE,0.6937,,,,,,,,,,,,,,,,,,,,,,,,,,,,,,
,,001,2022-04-29_13h13.33.388,classification_task,2021.2.3,Win32,60.25548325,5e3218f5de60e31ff2b2294c,626b377229c10585ec392f8a,626b3b801e07866f9acdc59d,,,,,,,,,,,,,,,,,,,,,,,l,0,"[""0.347"",""0.562"",""0.663"",""0.899""]","[0,1,1,1]",0,59,59,59,1,0,1,,,1,FALSE,1.3497,,,,,,,,,,,,,,,,,,,,,,,,,,,,,,
,,001,2022-04-29_13h13.33.388,classification_task,2021.2.3,Win32,60.25548325,5e3218f5de60e31ff2b2294c,626b377229c10585ec392f8a,626b3b801e07866f9acdc59d,,,,,,,,,,,,,,,,,,,,,,,l,1,"[""0.085"",""0.401"",""0.459"",""0.048""]","[1,1,1,0]",0,60,60,60,1,1,1,,,1,FALSE,0.8566,,,,,,,,,,,,,,,,,,,,,,,,,,,,,,
,,001,2022-04-29_13h13.33.388,classification_task,2021.2.3,Win32,60.25548325,5e3218f5de60e31ff2b2294c,626b377229c10585ec392f8a,626b3b801e07866f9acdc59d,,,,,,,,,,,,,,,,,,,,,,,a,1,"[""0.287"",""0.514"",""0.838"",""0.358""]","[1,1,1,0]",0,61,61,61,1,0,0,,,1,FALSE,0.59,,,,,,,,,,,,,,,,,,,,,,,,,,,,,,
,,001,2022-04-29_13h13.33.388,classification_task,2021.2.3,Win32,60.25548325,5e3218f5de60e31ff2b2294c,626b377229c10585ec392f8a,626b3b801e07866f9acdc59d,,,,,,,,,,,,,,,,,,,,,,,l,1,"[""0.324"",""0.401"",""0.459"",""0.746""]","[0,1,1,1]",0,62,62,62,1,1,1,,,1,FALSE,0.9184,,,,,,,,,,,,,,,,,,,,,,,,,,,,,,
,,001,2022-04-29_13h13.33.388,classification_task,2021.2.3,Win32,60.25548325,5e3218f5de60e31ff2b2294c,626b377229c10585ec392f8a,626b3b801e07866f9acdc59d,,,,,,,,,,,,,,,,,,,,,,,l,1,"[""0.085"",""0.401"",""0.041"",""0.746""]","[1,1,0,1]",0,63,63,63,1,1,1,,,1,FALSE,0.7889,,,,,,,,,,,,,,,,,,,,,,,,,,,,,,
,,001,2022-04-29_13h13.33.388,classification_task,2021.2.3,Win32,60.25548325,5e3218f5de60e31ff2b2294c,626b377229c10585ec392f8a,626b3b801e07866f9acdc59d,,,,,,,,,,,,,,,,,,,,,,,,,,,,,,,,,,,,,,,0, ,,0,5.153096218,139.414,0,2,2,2,1,2,3,,,,,,,,,,,,,,,,,
,,001,2022-04-29_13h13.33.388,classification_task,2021.2.3,Win32,60.25548325,5e3218f5de60e31ff2b2294c,626b377229c10585ec392f8a,626b3b801e07866f9acdc59d,,,,,,,,,,,,,,,,,,,,,,,,,,,,,,,,,,,,,,,1,  ,,0,3.168969608,142.7078,0,2,2,2,1,2,3,,,,,,,,,,,,,,,,,
,,001,2022-04-29_13h13.33.388,classification_task,2021.2.3,Win32,60.25548325,5e3218f5de60e31ff2b2294c,626b377229c10585ec392f8a,626b3b801e07866f9acdc59d,,,,,,,,,,,,,,,,,,,,,,,,,,,,,,,,,,,,,,,2,  ,,0,2.973005701,144.6366,0,2,2,2,1,2,3,,,,,,,,,,,,,,,,,
,,001,2022-04-29_13h13.33.388,classification_task,2021.2.3,Win32,60.25548325,5e3218f5de60e31ff2b2294c,626b377229c10585ec392f8a,626b3b801e07866f9acdc59d,,,,,,,,,,,,,,,,,,,,,,,,,,,,,,,,,,,,,,,,,,,,,0,2,2,2,1,,3,,,,,,,,,,,,,,,,,
,,001,2022-04-29_13h13.33.388,classification_task,2021.2.3,Win32,60.25548325,5e3218f5de60e31ff2b2294c,626b377229c10585ec392f8a,626b3b801e07866f9acdc59d,,,,,,,,,,,,,,,,,,,,,,,,,,,,,,,,,,,,,,,,,,,,,,,,,,,,,I believe the aid is a competent performer,,0.7,0,3,833.1253,0,0,0,0,1,0,,,,
,,001,2022-04-29_13h13.33.388,classification_task,2021.2.3,Win32,60.25548325,5e3218f5de60e31ff2b2294c,626b377229c10585ec392f8a,626b3b801e07866f9acdc59d,,,,,,,,,,,,,,,,,,,,,,,,,,,,,,,,,,,,,,,,,,,,,,,,,,,,,I trust the aid,,0.7,0,4,834.5569,0,0,0,0,1,0,,,,
,,001,2022-04-29_13h13.33.388,classification_task,2021.2.3,Win32,60.25548325,5e3218f5de60e31ff2b2294c,626b377229c10585ec392f8a,626b3b801e07866f9acdc59d,,,,,,,,,,,,,,,,,,,,,,,,,,,,,,,,,,,,,,,,,,,,,,,,,,,,,I have confidence in the advice given by the aid,,0.7,0,4,836.6049,0,0,0,0,1,0,,,,
,,001,2022-04-29_13h13.33.388,classification_task,2021.2.3,Win32,60.25548325,5e3218f5de60e31ff2b2294c,626b377229c10585ec392f8a,626b3b801e07866f9acdc59d,,,,,,,,,,,,,,,,,,,,,,,,,,,,,,,,,,,,,,,,,,,,,,,,,,,,,I can depend on the aid,,0.7,0,4,837.9367,0,0,0,0,1,0,,,,
,,001,2022-04-29_13h13.33.388,classification_task,2021.2.3,Win32,60.25548325,5e3218f5de60e31ff2b2294c,626b377229c10585ec392f8a,626b3b801e07866f9acdc59d,,,,,,,,,,,,,,,,,,,,,,,,,,,,,,,,,,,,,,,,,,,,,,,,,,,,,I can rely on the aid to behave in consistent ways,,0.7,0,4,840.4413,0,0,0,0,1,0,,,,
,,001,2022-04-29_13h13.33.388,classification_task,2021.2.3,Win32,60.25548325,5e3218f5de60e31ff2b2294c,626b377229c10585ec392f8a,626b3b801e07866f9acdc59d,,,,,,,,,,,,,,,,,,,,,,,,,,,,,,,,,,,,,,,,,,,,,,,,,,,,,I can rely on the aid to do its best every time I take its advice,,0.7,0,4,843.9678,0,0,0,0,1,0,,,,
,,001,2022-04-29_13h13.33.388,classification_task,2021.2.3,Win32,60.25548325,5e3218f5de60e31ff2b2294c,626b377229c10585ec392f8a,626b3b801e07866f9acdc59d,,,,,,,,,,,,,,,,,,,,,,,,,,,,,,,,,,,,,,,,,,,,,,,,,,,,,"On trials you completed with assistance from the aid, how frequently did you think the aid was correct?",,0.7,0,90%,,0,0,0,0,1,0,,,,
,,001,2022-04-29_13h13.33.388,classification_task,2021.2.3,Win32,60.25548325,5e3218f5de60e31ff2b2294c,626b377229c10585ec392f8a,626b3b801e07866f9acdc59d,,,,,,,,,,,,,,,,,,,,,,,,,,,,,,,,,,,,,,,,,,,,,,,,,,,,,"On trials you completed without the aid, how frequently did you think you were correct?",,0.7,0,75%,,0,0,0,0,1,0,,,,
,,001,2022-04-29_13h13.33.388,classification_task,2021.2.3,Win32,60.25548325,5e3218f5de60e31ff2b2294c,626b377229c10585ec392f8a,626b3b801e07866f9acdc59d,,,,,,,,,,,,,,,,,,,,,,,,,,,,,,,,,,,,,,,,,,,,,,,,,,,,,,,,,,,0,0,0,0,1,,,,,
,,001,2022-04-29_13h13.33.388,classification_task,2021.2.3,Win32,60.25548325,5e3218f5de60e31ff2b2294c,626b377229c10585ec392f8a,626b3b801e07866f9acdc59d,,,,,,,,,,,,,,,,,,,,,,,,,,,,,,,,,,,,,,,,,,,,,,,,,,,,,,,,,,,,,,,,,space,11.5988,883.4056,
,,001,2022-04-29_13h13.33.388,classification_task,2021.2.3,Win32,60.25548325,5e3218f5de60e31ff2b2294c,626b377229c10585ec392f8a,626b3b801e07866f9acdc59d,,,,,,,,,,,,,,,,,,,,,,,,,,,,,,,,,,,,,,,,,,,,,,,,,,,,,,,,,,,,,,,,,,,,"Mozilla/5.0 (Windows NT 10.0; Win64; x64) AppleWebKit/537.36 (KHTML, like Gecko) Chrome/100.0.4896.127 Safari/537.36"
