usingWebGL,participant,session,date,expName,psychopyVersion,OS,frameRate,PROLIFIC_PID,STUDY_ID,SESSION_ID,signatures_friend,signatures_foe,band_ranges_top,band_ranges_bottom,formitemText,formtype,formundefined,formitemWidth,formindex,formresponse,formrt,key_resp_2.keys,key_resp_2.rt,tute_resp.keys,tute_resp.rt,tutorial.thisRepN,tutorial.thisTrialN,tutorial.thisN,tutorial.thisIndex,tutorial.ran,key_resp_4.keys,key_resp_4.rt,key_resp.keys,key_resp.corr,lines_presented,is_signal_presented,trials.thisRepN,trials.thisTrialN,trials.thisN,trials.thisIndex,trials.ran,vessel,active_band,lines,is_signal,supported_pos,catch_trial,key_resp.rt,debrief_formindex,debrief_formitemText,debrief_formtype,debrief_formitemWidth,debrief_formresponse,debrief_formrt,phases.thisRepN,phases.thisTrialN,phases.thisN,phases.thisIndex,phases.ran,phases.order,phase,key_resp_3.keys,trustitemText,trusttype,trustitemWidth,trustindex,trustresponse,trustrt,support_status.thisRepN,support_status.thisTrialN,support_status.thisN,support_status.thisIndex,support_status.ran,support_status.order,key_resp_5.keys,key_resp_5.rt,globalClockTime,userAgent
TRUE,,001,2022-04-28_20h07.39.558,classification_task,2021.2.3,Win32,60.0240096,60d22bc88de159abc53b09ed,626b377229c10585ec392f8a,626b3a3bd2ec00a3a3c1f205,,,,,,,,,,,,,,,,,,,,,,,,,,,,,,,,,,,,,,,,,,,,,,,,,,,,,,,,,,,,,,,,,,,,
,,001,2022-04-28_20h07.39.558,classification_task,2021.2.3,Win32,60.0240096,60d22bc88de159abc53b09ed,626b377229c10585ec392f8a,626b3a3bd2ec00a3a3c1f205,"[[""0.211"",""0.517"",""0.733"",""0.947""],[""0.325"",""0.362"",""0.878"",""0.913""]]","[[""0.119"",""0.398"",""0.651"",""0.686""],[""0.053"",""0.433"",""0.572"",""0.823""]]","[1,10]","[100,1000]",Video game experience,,,0.7,0,,,,,,,,,,,,,,,,,,,,,,,,,,,,,,,,,,,,,,,,,,,,,,,,,,,,,,,,,,,
,,001,2022-04-28_20h07.39.558,classification_task,2021.2.3,Win32,60.0240096,60d22bc88de159abc53b09ed,626b377229c10585ec392f8a,626b3a3bd2ec00a3a3c1f205,,,,,Approximately how many hours did you spend playing video games in the last week?,,,0.7,0,6,,,,,,,,,,,,,,,,,,,,,,,,,,,,,,,,,,,,,,,,,,,,,,,,,,,,,,,,,,
,,001,2022-04-28_20h07.39.558,classification_task,2021.2.3,Win32,60.0240096,60d22bc88de159abc53b09ed,626b377229c10585ec392f8a,626b3a3bd2ec00a3a3c1f205,,,,,"Which game did you play the most this year? (Enter ""None"" if you didn't play any)",,,0.7,0,Halo,,,,,,,,,,,,,,,,,,,,,,,,,,,,,,,,,,,,,,,,,,,,,,,,,,,,,,,,,,
,,001,2022-04-28_20h07.39.558,classification_task,2021.2.3,Win32,60.0240096,60d22bc88de159abc53b09ed,626b377229c10585ec392f8a,626b3a3bd2ec00a3a3c1f205,,,,,Visual perception,,,0.7,0,,,,,,,,,,,,,,,,,,,,,,,,,,,,,,,,,,,,,,,,,,,,,,,,,,,,,,,,,,,
,,001,2022-04-28_20h07.39.558,classification_task,2021.2.3,Win32,60.0240096,60d22bc88de159abc53b09ed,626b377229c10585ec392f8a,626b3a3bd2ec00a3a3c1f205,,,,,Do you have any form of color blindness?,,,0.7,0,No,41.4184,,,,,,,,,,,,,,,,,,,,,,,,,,,,,,,,,,,,,,,,,,,,,,,,,,,,,,,,,
,,001,2022-04-28_20h07.39.558,classification_task,2021.2.3,Win32,60.0240096,60d22bc88de159abc53b09ed,626b377229c10585ec392f8a,626b3a3bd2ec00a3a3c1f205,,,,,Do you use software to change the colour temperature of your screen (e.g. f.lux)?,,,0.7,0,No,47.8424,,,,,,,,,,,,,,,,,,,,,,,,,,,,,,,,,,,,,,,,,,,,,,,,,,,,,,,,,
,,001,2022-04-28_20h07.39.558,classification_task,2021.2.3,Win32,60.0240096,60d22bc88de159abc53b09ed,626b377229c10585ec392f8a,626b3a3bd2ec00a3a3c1f205,,,,,,,,,,,,space,52.8179,space,13.3562,0,0,0,0,1,,,,,,,,,,,,,,,,,,,,,,,,,,,,,,,,,,,,,,,,,,,,,,,,
,,001,2022-04-28_20h07.39.558,classification_task,2021.2.3,Win32,60.0240096,60d22bc88de159abc53b09ed,626b377229c10585ec392f8a,626b3a3bd2ec00a3a3c1f205,,,,,,,,,,,,,,space,17.6154,1,0,1,0,1,,,,,,,,,,,,,,,,,,,,,,,,,,,,,,,,,,,,,,,,,,,,,,,,
,,001,2022-04-28_20h07.39.558,classification_task,2021.2.3,Win32,60.0240096,60d22bc88de159abc53b09ed,626b377229c10585ec392f8a,626b3a3bd2ec00a3a3c1f205,,,,,,,,,,,,,,space,59.0175,2,0,2,0,1,,,,,,,,,,,,,,,,,,,,,,,,,,,,,,,,,,,,,,,,,,,,,,,,
,,001,2022-04-28_20h07.39.558,classification_task,2021.2.3,Win32,60.0240096,60d22bc88de159abc53b09ed,626b377229c10585ec392f8a,626b3a3bd2ec00a3a3c1f205,,,,,,,,,,,,,,space,31.6615,3,0,3,0,1,,,,,,,,,,,,,,,,,,,,,,,,,,,,,,,,,,,,,,,,,,,,,,,,
,,001,2022-04-28_20h07.39.558,classification_task,2021.2.3,Win32,60.0240096,60d22bc88de159abc53b09ed,626b377229c10585ec392f8a,626b3a3bd2ec00a3a3c1f205,,,,,,,,,,,,,,space,25.6771,4,0,4,0,1,,,,,,,,,,,,,,,,,,,,,,,,,,,,,,,,,,,,,,,,,,,,,,,,
,,001,2022-04-28_20h07.39.558,classification_task,2021.2.3,Win32,60.0240096,60d22bc88de159abc53b09ed,626b377229c10585ec392f8a,626b3a3bd2ec00a3a3c1f205,,,,,,,,,,,,,,,,,,,,,space,25.8073,,0,"[""0.771"",""0.398"",""0.651"",""0.686""]","[0,1,1,1]",0,0,0,0,1,1,0,,,1,FALSE,,,,,,,,,,,,,,,,,,,,,,,,,,,,,,,
,,001,2022-04-28_20h07.39.558,classification_task,2021.2.3,Win32,60.0240096,60d22bc88de159abc53b09ed,626b377229c10585ec392f8a,626b3a3bd2ec00a3a3c1f205,,,,,,,,,,,,,,,,,,,,,,,l,1,"[""0.053"",""0.433"",""0.572"",""0.790""]","[1,1,1,0]",0,1,1,1,1,1,1,,,1,FALSE,4.1624,,,,,,,,,,,,,,,,,,,,,,,,,,,,,,
,,001,2022-04-28_20h07.39.558,classification_task,2021.2.3,Win32,60.0240096,60d22bc88de159abc53b09ed,626b377229c10585ec392f8a,626b3a3bd2ec00a3a3c1f205,,,,,,,,,,,,,,,,,,,,,,,l,0,"[""0.211"",""0.172"",""0.733"",""0.947""]","[1,0,1,1]",0,2,2,2,1,0,0,,,1,FALSE,5.5587,,,,,,,,,,,,,,,,,,,,,,,,,,,,,,
,,001,2022-04-28_20h07.39.558,classification_task,2021.2.3,Win32,60.0240096,60d22bc88de159abc53b09ed,626b377229c10585ec392f8a,626b3a3bd2ec00a3a3c1f205,,,,,,,,,,,,,,,,,,,,,,,l,1,"[""0.119"",""0.261"",""0.651"",""0.686""]","[1,0,1,1]",0,3,3,3,1,1,0,,,1,FALSE,6.9145,,,,,,,,,,,,,,,,,,,,,,,,,,,,,,
,,001,2022-04-28_20h07.39.558,classification_task,2021.2.3,Win32,60.0240096,60d22bc88de159abc53b09ed,626b377229c10585ec392f8a,626b3a3bd2ec00a3a3c1f205,,,,,,,,,,,,,,,,,,,,,,,l,1,"[""0.053"",""0.433"",""0.788"",""0.823""]","[1,1,0,1]",0,4,4,4,1,1,1,,,1,FALSE,5.7409,,,,,,,,,,,,,,,,,,,,,,,,,,,,,,
,,001,2022-04-28_20h07.39.558,classification_task,2021.2.3,Win32,60.0240096,60d22bc88de159abc53b09ed,626b377229c10585ec392f8a,626b3a3bd2ec00a3a3c1f205,,,,,,,,,,,,,,,,,,,,,,,a,1,"[""0.211"",""0.517"",""0.478"",""0.947""]","[1,1,0,1]",0,5,5,5,1,0,0,,,1,FALSE,5.0786,,,,,,,,,,,,,,,,,,,,,,,,,,,,,,
,,001,2022-04-28_20h07.39.558,classification_task,2021.2.3,Win32,60.0240096,60d22bc88de159abc53b09ed,626b377229c10585ec392f8a,626b3a3bd2ec00a3a3c1f205,,,,,,,,,,,,,,,,,,,,,,,a,1,"[""0.285"",""0.362"",""0.878"",""0.913""]","[0,1,1,1]",0,6,6,6,1,0,1,,,1,FALSE,4.1787,,,,,,,,,,,,,,,,,,,,,,,,,,,,,,
,,001,2022-04-28_20h07.39.558,classification_task,2021.2.3,Win32,60.0240096,60d22bc88de159abc53b09ed,626b377229c10585ec392f8a,626b3a3bd2ec00a3a3c1f205,,,,,,,,,,,,,,,,,,,,,,,l,1,"[""0.053"",""0.278"",""0.572"",""0.823""]","[1,0,1,1]",0,7,7,7,1,1,1,,,1,FALSE,5.4028,,,,,,,,,,,,,,,,,,,,,,,,,,,,,,
,,001,2022-04-28_20h07.39.558,classification_task,2021.2.3,Win32,60.0240096,60d22bc88de159abc53b09ed,626b377229c10585ec392f8a,626b3a3bd2ec00a3a3c1f205,,,,,,,,,,,,,,,,,,,,,,,l,0,"[""0.325"",""0.362"",""0.766"",""0.913""]","[1,1,0,1]",0,8,8,8,1,0,1,,,1,FALSE,5.2661,,,,,,,,,,,,,,,,,,,,,,,,,,,,,,
,,001,2022-04-28_20h07.39.558,classification_task,2021.2.3,Win32,60.0240096,60d22bc88de159abc53b09ed,626b377229c10585ec392f8a,626b3a3bd2ec00a3a3c1f205,,,,,,,,,,,,,,,,,,,,,,,l,1,"[""0.119"",""0.398"",""0.766"",""0.686""]","[1,1,0,1]",0,9,9,9,1,1,0,,,1,FALSE,4.1524,,,,,,,,,,,,,,,,,,,,,,,,,,,,,,
,,001,2022-04-28_20h07.39.558,classification_task,2021.2.3,Win32,60.0240096,60d22bc88de159abc53b09ed,626b377229c10585ec392f8a,626b3a3bd2ec00a3a3c1f205,,,,,,,,,,,,,,,,,,,,,,,l,0,"[""0.325"",""0.261"",""0.878"",""0.913""]","[1,0,1,1]",0,10,10,10,1,0,1,,,1,FALSE,5.9776,,,,,,,,,,,,,,,,,,,,,,,,,,,,,,
,,001,2022-04-28_20h07.39.558,classification_task,2021.2.3,Win32,60.0240096,60d22bc88de159abc53b09ed,626b377229c10585ec392f8a,626b3a3bd2ec00a3a3c1f205,,,,,,,,,,,,,,,,,,,,,,,l,1,"[""0.781"",""0.433"",""0.572"",""0.823""]","[0,1,1,1]",0,11,11,11,1,1,1,,,1,FALSE,4.9397,,,,,,,,,,,,,,,,,,,,,,,,,,,,,,
,,001,2022-04-28_20h07.39.558,classification_task,2021.2.3,Win32,60.0240096,60d22bc88de159abc53b09ed,626b377229c10585ec392f8a,626b3a3bd2ec00a3a3c1f205,,,,,,,,,,,,,,,,,,,,,,,l,1,"[""0.119"",""0.398"",""0.651"",""0.766""]","[1,1,1,0]",0,12,12,12,1,1,0,,,1,FALSE,5.325,,,,,,,,,,,,,,,,,,,,,,,,,,,,,,
,,001,2022-04-28_20h07.39.558,classification_task,2021.2.3,Win32,60.0240096,60d22bc88de159abc53b09ed,626b377229c10585ec392f8a,626b3a3bd2ec00a3a3c1f205,,,,,,,,,,,,,,,,,,,,,,,a,1,"[""0.211"",""0.517"",""0.733"",""0.172""]","[1,1,1,0]",0,13,13,13,1,0,0,,,1,FALSE,4.5331,,,,,,,,,,,,,,,,,,,,,,,,,,,,,,
,,001,2022-04-28_20h07.39.558,classification_task,2021.2.3,Win32,60.0240096,60d22bc88de159abc53b09ed,626b377229c10585ec392f8a,626b3a3bd2ec00a3a3c1f205,,,,,,,,,,,,,,,,,,,,,,,a,1,"[""0.790"",""0.517"",""0.733"",""0.947""]","[0,1,1,1]",0,14,14,14,1,0,0,,,1,FALSE,4.5116,,,,,,,,,,,,,,,,,,,,,,,,,,,,,,
,,001,2022-04-28_20h07.39.558,classification_task,2021.2.3,Win32,60.0240096,60d22bc88de159abc53b09ed,626b377229c10585ec392f8a,626b3a3bd2ec00a3a3c1f205,,,,,,,,,,,,,,,,,,,,,,,l,0,"[""0.325"",""0.362"",""0.878"",""0.291""]","[1,1,1,0]",0,15,15,15,1,0,1,,,1,FALSE,6.111,,,,,,,,,,,,,,,,,,,,,,,,,,,,,,
,,001,2022-04-28_20h07.39.558,classification_task,2021.2.3,Win32,60.0240096,60d22bc88de159abc53b09ed,626b377229c10585ec392f8a,626b3a3bd2ec00a3a3c1f205,,,,,,,,,,,,,,,,,,,,,,,l,1,"[""0.167"",""0.433"",""0.572"",""0.823""]","[0,1,1,1]",0,16,16,16,1,1,1,,,1,FALSE,3.5098,,,,,,,,,,,,,,,,,,,,,,,,,,,,,,
,,001,2022-04-28_20h07.39.558,classification_task,2021.2.3,Win32,60.0240096,60d22bc88de159abc53b09ed,626b377229c10585ec392f8a,626b3a3bd2ec00a3a3c1f205,,,,,,,,,,,,,,,,,,,,,,,a,0,"[""0.053"",""0.433"",""0.255"",""0.823""]","[1,1,0,1]",0,17,17,17,1,1,1,,,1,FALSE,4.399,,,,,,,,,,,,,,,,,,,,,,,,,,,,,,
,,001,2022-04-28_20h07.39.558,classification_task,2021.2.3,Win32,60.0240096,60d22bc88de159abc53b09ed,626b377229c10585ec392f8a,626b3a3bd2ec00a3a3c1f205,,,,,,,,,,,,,,,,,,,,,,,l,1,"[""0.053"",""0.433"",""0.572"",""0.291""]","[1,1,1,0]",0,18,18,18,1,1,1,,,1,FALSE,3.1109,,,,,,,,,,,,,,,,,,,,,,,,,,,,,,
,,001,2022-04-28_20h07.39.558,classification_task,2021.2.3,Win32,60.0240096,60d22bc88de159abc53b09ed,626b377229c10585ec392f8a,626b3a3bd2ec00a3a3c1f205,,,,,,,,,,,,,,,,,,,,,,,l,1,"[""0.119"",""0.771"",""0.651"",""0.686""]","[1,0,1,1]",0,19,19,19,1,1,0,,,1,FALSE,7.0612,,,,,,,,,,,,,,,,,,,,,,,,,,,,,,
,,001,2022-04-28_20h07.39.558,classification_task,2021.2.3,Win32,60.0240096,60d22bc88de159abc53b09ed,626b377229c10585ec392f8a,626b3a3bd2ec00a3a3c1f205,,,,,,,,,,,,,,,,,,,,,,,a,1,"[""0.325"",""0.261"",""0.878"",""0.913""]","[1,0,1,1]",0,20,20,20,1,0,1,,,1,FALSE,4.9293,,,,,,,,,,,,,,,,,,,,,,,,,,,,,,
,,001,2022-04-28_20h07.39.558,classification_task,2021.2.3,Win32,60.0240096,60d22bc88de159abc53b09ed,626b377229c10585ec392f8a,626b3a3bd2ec00a3a3c1f205,,,,,,,,,,,,,,,,,,,,,,,a,1,"[""0.790"",""0.362"",""0.878"",""0.913""]","[0,1,1,1]",0,21,21,21,1,0,1,,,1,FALSE,3.8639,,,,,,,,,,,,,,,,,,,,,,,,,,,,,,
,,001,2022-04-28_20h07.39.558,classification_task,2021.2.3,Win32,60.0240096,60d22bc88de159abc53b09ed,626b377229c10585ec392f8a,626b3a3bd2ec00a3a3c1f205,,,,,,,,,,,,,,,,,,,,,,,a,1,"[""0.325"",""0.362"",""0.270"",""0.913""]","[1,1,0,1]",0,22,22,22,1,0,1,,,1,FALSE,4.8959,,,,,,,,,,,,,,,,,,,,,,,,,,,,,,
,,001,2022-04-28_20h07.39.558,classification_task,2021.2.3,Win32,60.0240096,60d22bc88de159abc53b09ed,626b377229c10585ec392f8a,626b3a3bd2ec00a3a3c1f205,,,,,,,,,,,,,,,,,,,,,,,a,1,"[""0.211"",""0.790"",""0.733"",""0.947""]","[1,0,1,1]",0,23,23,23,1,0,0,,,1,FALSE,4.3426,,,,,,,,,,,,,,,,,,,,,,,,,,,,,,
,,001,2022-04-28_20h07.39.558,classification_task,2021.2.3,Win32,60.0240096,60d22bc88de159abc53b09ed,626b377229c10585ec392f8a,626b3a3bd2ec00a3a3c1f205,,,,,,,,,,,,,,,,,,,,,,,l,0,"[""0.211"",""0.517"",""0.172"",""0.947""]","[1,1,0,1]",0,24,24,24,1,0,0,,,1,FALSE,4.3684,,,,,,,,,,,,,,,,,,,,,,,,,,,,,,
,,001,2022-04-28_20h07.39.558,classification_task,2021.2.3,Win32,60.0240096,60d22bc88de159abc53b09ed,626b377229c10585ec392f8a,626b3a3bd2ec00a3a3c1f205,,,,,,,,,,,,,,,,,,,,,,,a,1,"[""0.766"",""0.517"",""0.733"",""0.947""]","[0,1,1,1]",0,25,25,25,1,0,0,,,1,FALSE,5.2533,,,,,,,,,,,,,,,,,,,,,,,,,,,,,,
,,001,2022-04-28_20h07.39.558,classification_task,2021.2.3,Win32,60.0240096,60d22bc88de159abc53b09ed,626b377229c10585ec392f8a,626b3a3bd2ec00a3a3c1f205,,,,,,,,,,,,,,,,,,,,,,,a,1,"[""0.325"",""0.362"",""0.878"",""0.255""]","[1,1,1,0]",0,26,26,26,1,0,1,,,1,FALSE,3.7072,,,,,,,,,,,,,,,,,,,,,,,,,,,,,,
,,001,2022-04-28_20h07.39.558,classification_task,2021.2.3,Win32,60.0240096,60d22bc88de159abc53b09ed,626b377229c10585ec392f8a,626b3a3bd2ec00a3a3c1f205,,,,,,,,,,,,,,,,,,,,,,,l,1,"[""0.119"",""0.398"",""0.651"",""0.167""]","[1,1,1,0]",0,27,27,27,1,1,0,,,1,FALSE,5.4851,,,,,,,,,,,,,,,,,,,,,,,,,,,,,,
,,001,2022-04-28_20h07.39.558,classification_task,2021.2.3,Win32,60.0240096,60d22bc88de159abc53b09ed,626b377229c10585ec392f8a,626b3a3bd2ec00a3a3c1f205,,,,,,,,,,,,,,,,,,,,,,,a,1,"[""0.211"",""0.517"",""0.733"",""0.781""]","[1,1,1,0]",0,28,28,28,1,0,0,,,1,FALSE,3.9907,,,,,,,,,,,,,,,,,,,,,,,,,,,,,,
,,001,2022-04-28_20h07.39.558,classification_task,2021.2.3,Win32,60.0240096,60d22bc88de159abc53b09ed,626b377229c10585ec392f8a,626b3a3bd2ec00a3a3c1f205,,,,,,,,,,,,,,,,,,,,,,,l,1,"[""0.766"",""0.398"",""0.651"",""0.686""]","[0,1,1,1]",0,29,29,29,1,1,0,,,1,FALSE,5.4981,,,,,,,,,,,,,,,,,,,,,,,,,,,,,,
,,001,2022-04-28_20h07.39.558,classification_task,2021.2.3,Win32,60.0240096,60d22bc88de159abc53b09ed,626b377229c10585ec392f8a,626b3a3bd2ec00a3a3c1f205,,,,,,,,,,,,,,,,,,,,,,,l,1,"[""0.119"",""0.398"",""0.790"",""0.686""]","[1,1,0,1]",0,30,30,30,1,1,0,,,1,FALSE,4.9108,,,,,,,,,,,,,,,,,,,,,,,,,,,,,,
,,001,2022-04-28_20h07.39.558,classification_task,2021.2.3,Win32,60.0240096,60d22bc88de159abc53b09ed,626b377229c10585ec392f8a,626b3a3bd2ec00a3a3c1f205,,,,,,,,,,,,,,,,,,,,,,,l,1,"[""0.053"",""0.270"",""0.572"",""0.823""]","[1,0,1,1]",0,31,31,31,1,1,1,,,1,FALSE,3.1098,,,,,,,,,,,,,,,,,,,,,,,,,,,,,,
,,001,2022-04-28_20h07.39.558,classification_task,2021.2.3,Win32,60.0240096,60d22bc88de159abc53b09ed,626b377229c10585ec392f8a,626b3a3bd2ec00a3a3c1f205,,,,,,,,,,,,,,,,,,,,,,,l,0,"[""0.325"",""0.362"",""0.878"",""0.790""]","[1,1,1,0]",0,32,32,32,1,0,1,,,1,FALSE,5.1133,,,,,,,,,,,,,,,,,,,,,,,,,,,,,,
,,001,2022-04-28_20h07.39.558,classification_task,2021.2.3,Win32,60.0240096,60d22bc88de159abc53b09ed,626b377229c10585ec392f8a,626b3a3bd2ec00a3a3c1f205,,,,,,,,,,,,,,,,,,,,,,,a,1,"[""0.211"",""0.517"",""0.733"",""0.285""]","[1,1,1,0]",0,33,33,33,1,0,0,,,1,FALSE,3.9131,,,,,,,,,,,,,,,,,,,,,,,,,,,,,,
,,001,2022-04-28_20h07.39.558,classification_task,2021.2.3,Win32,60.0240096,60d22bc88de159abc53b09ed,626b377229c10585ec392f8a,626b3a3bd2ec00a3a3c1f205,,,,,,,,,,,,,,,,,,,,,,,a,1,"[""0.325"",""0.766"",""0.878"",""0.913""]","[1,0,1,1]",0,34,34,34,1,0,1,,,1,FALSE,3.8339,,,,,,,,,,,,,,,,,,,,,,,,,,,,,,
,,001,2022-04-28_20h07.39.558,classification_task,2021.2.3,Win32,60.0240096,60d22bc88de159abc53b09ed,626b377229c10585ec392f8a,626b3a3bd2ec00a3a3c1f205,,,,,,,,,,,,,,,,,,,,,,,l,0,"[""0.255"",""0.517"",""0.733"",""0.947""]","[0,1,1,1]",0,35,35,35,1,0,0,,,1,FALSE,4.068,,,,,,,,,,,,,,,,,,,,,,,,,,,,,,
,,001,2022-04-28_20h07.39.558,classification_task,2021.2.3,Win32,60.0240096,60d22bc88de159abc53b09ed,626b377229c10585ec392f8a,626b3a3bd2ec00a3a3c1f205,,,,,,,,,,,,,,,,,,,,,,,a,1,"[""0.211"",""0.517"",""0.172"",""0.947""]","[1,1,0,1]",0,36,36,36,1,0,0,,,1,FALSE,2.8542,,,,,,,,,,,,,,,,,,,,,,,,,,,,,,
,,001,2022-04-28_20h07.39.558,classification_task,2021.2.3,Win32,60.0240096,60d22bc88de159abc53b09ed,626b377229c10585ec392f8a,626b3a3bd2ec00a3a3c1f205,,,,,,,,,,,,,,,,,,,,,,,l,1,"[""0.053"",""0.270"",""0.572"",""0.823""]","[1,0,1,1]",0,37,37,37,1,1,1,,,1,FALSE,3.2822,,,,,,,,,,,,,,,,,,,,,,,,,,,,,,
,,001,2022-04-28_20h07.39.558,classification_task,2021.2.3,Win32,60.0240096,60d22bc88de159abc53b09ed,626b377229c10585ec392f8a,626b3a3bd2ec00a3a3c1f205,,,,,,,,,,,,,,,,,,,,,,,l,1,"[""0.119"",""0.398"",""0.270"",""0.686""]","[1,1,0,1]",0,38,38,38,1,1,0,,,1,FALSE,2.863,,,,,,,,,,,,,,,,,,,,,,,,,,,,,,
,,001,2022-04-28_20h07.39.558,classification_task,2021.2.3,Win32,60.0240096,60d22bc88de159abc53b09ed,626b377229c10585ec392f8a,626b3a3bd2ec00a3a3c1f205,,,,,,,,,,,,,,,,,,,,,,,l,1,"[""0.053"",""0.433"",""0.572"",""0.172""]","[1,1,1,0]",0,39,39,39,1,1,1,,,1,FALSE,3.5174,,,,,,,,,,,,,,,,,,,,,,,,,,,,,,
,,001,2022-04-28_20h07.39.558,classification_task,2021.2.3,Win32,60.0240096,60d22bc88de159abc53b09ed,626b377229c10585ec392f8a,626b3a3bd2ec00a3a3c1f205,,,,,,,,,,,,,,,,,,,,,,,l,1,"[""0.119"",""0.788"",""0.651"",""0.686""]","[1,0,1,1]",0,40,40,40,1,1,0,,,1,FALSE,2.3543,,,,,,,,,,,,,,,,,,,,,,,,,,,,,,
,,001,2022-04-28_20h07.39.558,classification_task,2021.2.3,Win32,60.0240096,60d22bc88de159abc53b09ed,626b377229c10585ec392f8a,626b3a3bd2ec00a3a3c1f205,,,,,,,,,,,,,,,,,,,,,,,l,0,"[""0.211"",""0.255"",""0.733"",""0.947""]","[1,0,1,1]",0,41,41,41,1,0,0,,,1,FALSE,3.0141,,,,,,,,,,,,,,,,,,,,,,,,,,,,,,
,,001,2022-04-28_20h07.39.558,classification_task,2021.2.3,Win32,60.0240096,60d22bc88de159abc53b09ed,626b377229c10585ec392f8a,626b3a3bd2ec00a3a3c1f205,,,,,,,,,,,,,,,,,,,,,,,a,0,"[""0.781"",""0.398"",""0.651"",""0.686""]","[0,1,1,1]",0,42,42,42,1,1,0,,,1,FALSE,2.4549,,,,,,,,,,,,,,,,,,,,,,,,,,,,,,
,,001,2022-04-28_20h07.39.558,classification_task,2021.2.3,Win32,60.0240096,60d22bc88de159abc53b09ed,626b377229c10585ec392f8a,626b3a3bd2ec00a3a3c1f205,,,,,,,,,,,,,,,,,,,,,,,a,1,"[""0.788"",""0.362"",""0.878"",""0.913""]","[0,1,1,1]",0,43,43,43,1,0,1,,,1,FALSE,1.8128,,,,,,,,,,,,,,,,,,,,,,,,,,,,,,
,,001,2022-04-28_20h07.39.558,classification_task,2021.2.3,Win32,60.0240096,60d22bc88de159abc53b09ed,626b377229c10585ec392f8a,626b3a3bd2ec00a3a3c1f205,,,,,,,,,,,,,,,,,,,,,,,a,0,"[""0.119"",""0.398"",""0.651"",""0.291""]","[1,1,1,0]",0,44,44,44,1,1,0,,,1,FALSE,2.6471,,,,,,,,,,,,,,,,,,,,,,,,,,,,,,
,,001,2022-04-28_20h07.39.558,classification_task,2021.2.3,Win32,60.0240096,60d22bc88de159abc53b09ed,626b377229c10585ec392f8a,626b3a3bd2ec00a3a3c1f205,,,,,,,,,,,,,,,,,,,,,,,l,1,"[""0.261"",""0.433"",""0.572"",""0.823""]","[0,1,1,1]",0,45,45,45,1,1,1,,,1,FALSE,2.3323,,,,,,,,,,,,,,,,,,,,,,,,,,,,,,
,,001,2022-04-28_20h07.39.558,classification_task,2021.2.3,Win32,60.0240096,60d22bc88de159abc53b09ed,626b377229c10585ec392f8a,626b3a3bd2ec00a3a3c1f205,,,,,,,,,,,,,,,,,,,,,,,l,1,"[""0.053"",""0.433"",""0.270"",""0.823""]","[1,1,0,1]",0,46,46,46,1,1,1,,,1,FALSE,1.0211,,,,,,,,,,,,,,,,,,,,,,,,,,,,,,
,,001,2022-04-28_20h07.39.558,classification_task,2021.2.3,Win32,60.0240096,60d22bc88de159abc53b09ed,626b377229c10585ec392f8a,626b3a3bd2ec00a3a3c1f205,,,,,,,,,,,,,,,,,,,,,,,l,0,"[""0.325"",""0.362"",""0.285"",""0.913""]","[1,1,0,1]",0,47,47,47,1,0,1,,,1,FALSE,2.4977,,,,,,,,,,,,,,,,,,,,,,,,,,,,,,
,,001,2022-04-28_20h07.39.558,classification_task,2021.2.3,Win32,60.0240096,60d22bc88de159abc53b09ed,626b377229c10585ec392f8a,626b3a3bd2ec00a3a3c1f205,,,,,,,,,,,,,,,,,,,,,,,a,0,"[""0.053"",""0.270"",""0.572"",""0.823""]","[1,0,1,1]",0,48,48,48,1,1,1,,,1,FALSE,2.0342,,,,,,,,,,,,,,,,,,,,,,,,,,,,,,
,,001,2022-04-28_20h07.39.558,classification_task,2021.2.3,Win32,60.0240096,60d22bc88de159abc53b09ed,626b377229c10585ec392f8a,626b3a3bd2ec00a3a3c1f205,,,,,,,,,,,,,,,,,,,,,,,a,1,"[""0.325"",""0.362"",""0.878"",""0.771""]","[1,1,1,0]",0,49,49,49,1,0,1,,,1,FALSE,2.1663,,,,,,,,,,,,,,,,,,,,,,,,,,,,,,
,,001,2022-04-28_20h07.39.558,classification_task,2021.2.3,Win32,60.0240096,60d22bc88de159abc53b09ed,626b377229c10585ec392f8a,626b3a3bd2ec00a3a3c1f205,,,,,,,,,,,,,,,,,,,,,,,a,0,"[""0.119"",""0.398"",""0.651"",""0.167""]","[1,1,1,0]",0,50,50,50,1,1,0,,,1,FALSE,2.5809,,,,,,,,,,,,,,,,,,,,,,,,,,,,,,
,,001,2022-04-28_20h07.39.558,classification_task,2021.2.3,Win32,60.0240096,60d22bc88de159abc53b09ed,626b377229c10585ec392f8a,626b3a3bd2ec00a3a3c1f205,,,,,,,,,,,,,,,,,,,,,,,a,0,"[""0.053"",""0.433"",""0.572"",""0.790""]","[1,1,1,0]",0,51,51,51,1,1,1,,,1,FALSE,2.6852,,,,,,,,,,,,,,,,,,,,,,,,,,,,,,
,,001,2022-04-28_20h07.39.558,classification_task,2021.2.3,Win32,60.0240096,60d22bc88de159abc53b09ed,626b377229c10585ec392f8a,626b3a3bd2ec00a3a3c1f205,,,,,,,,,,,,,,,,,,,,,,,l,1,"[""0.119"",""0.790"",""0.651"",""0.686""]","[1,0,1,1]",0,52,52,52,1,1,0,,,1,FALSE,1.8837,,,,,,,,,,,,,,,,,,,,,,,,,,,,,,
,,001,2022-04-28_20h07.39.558,classification_task,2021.2.3,Win32,60.0240096,60d22bc88de159abc53b09ed,626b377229c10585ec392f8a,626b3a3bd2ec00a3a3c1f205,,,,,,,,,,,,,,,,,,,,,,,l,0,"[""0.167"",""0.517"",""0.733"",""0.947""]","[0,1,1,1]",0,53,53,53,1,0,0,,,1,FALSE,2.2648,,,,,,,,,,,,,,,,,,,,,,,,,,,,,,
,,001,2022-04-28_20h07.39.558,classification_task,2021.2.3,Win32,60.0240096,60d22bc88de159abc53b09ed,626b377229c10585ec392f8a,626b3a3bd2ec00a3a3c1f205,,,,,,,,,,,,,,,,,,,,,,,l,0,"[""0.325"",""0.478"",""0.878"",""0.913""]","[1,0,1,1]",0,54,54,54,1,0,1,,,1,FALSE,3.4313,,,,,,,,,,,,,,,,,,,,,,,,,,,,,,
,,001,2022-04-28_20h07.39.558,classification_task,2021.2.3,Win32,60.0240096,60d22bc88de159abc53b09ed,626b377229c10585ec392f8a,626b3a3bd2ec00a3a3c1f205,,,,,,,,,,,,,,,,,,,,,,,l,1,"[""0.291"",""0.433"",""0.572"",""0.823""]","[0,1,1,1]",0,55,55,55,1,1,1,,,1,FALSE,1.0986,,,,,,,,,,,,,,,,,,,,,,,,,,,,,,
,,001,2022-04-28_20h07.39.558,classification_task,2021.2.3,Win32,60.0240096,60d22bc88de159abc53b09ed,626b377229c10585ec392f8a,626b3a3bd2ec00a3a3c1f205,,,,,,,,,,,,,,,,,,,,,,,a,1,"[""0.211"",""0.291"",""0.733"",""0.947""]","[1,0,1,1]",0,56,56,56,1,0,0,,,1,FALSE,0.8332,,,,,,,,,,,,,,,,,,,,,,,,,,,,,,
,,001,2022-04-28_20h07.39.558,classification_task,2021.2.3,Win32,60.0240096,60d22bc88de159abc53b09ed,626b377229c10585ec392f8a,626b3a3bd2ec00a3a3c1f205,,,,,,,,,,,,,,,,,,,,,,,a,1,"[""0.291"",""0.362"",""0.878"",""0.913""]","[0,1,1,1]",0,57,57,57,1,0,1,,,1,FALSE,1.5466,,,,,,,,,,,,,,,,,,,,,,,,,,,,,,
,,001,2022-04-28_20h07.39.558,classification_task,2021.2.3,Win32,60.0240096,60d22bc88de159abc53b09ed,626b377229c10585ec392f8a,626b3a3bd2ec00a3a3c1f205,,,,,,,,,,,,,,,,,,,,,,,a,1,"[""0.211"",""0.517"",""0.733"",""0.781""]","[1,1,1,0]",0,58,58,58,1,0,0,,,1,FALSE,1.3328,,,,,,,,,,,,,,,,,,,,,,,,,,,,,,
,,001,2022-04-28_20h07.39.558,classification_task,2021.2.3,Win32,60.0240096,60d22bc88de159abc53b09ed,626b377229c10585ec392f8a,626b3a3bd2ec00a3a3c1f205,,,,,,,,,,,,,,,,,,,,,,,a,0,"[""0.167"",""0.398"",""0.651"",""0.686""]","[0,1,1,1]",0,59,59,59,1,1,0,,,1,FALSE,1.1014,,,,,,,,,,,,,,,,,,,,,,,,,,,,,,
,,001,2022-04-28_20h07.39.558,classification_task,2021.2.3,Win32,60.0240096,60d22bc88de159abc53b09ed,626b377229c10585ec392f8a,626b3a3bd2ec00a3a3c1f205,,,,,,,,,,,,,,,,,,,,,,,a,0,"[""0.053"",""0.433"",""0.291"",""0.823""]","[1,1,0,1]",0,60,60,60,1,1,1,,,1,FALSE,0.9662,,,,,,,,,,,,,,,,,,,,,,,,,,,,,,
,,001,2022-04-28_20h07.39.558,classification_task,2021.2.3,Win32,60.0240096,60d22bc88de159abc53b09ed,626b377229c10585ec392f8a,626b3a3bd2ec00a3a3c1f205,,,,,,,,,,,,,,,,,,,,,,,a,1,"[""0.211"",""0.517"",""0.278"",""0.947""]","[1,1,0,1]",0,61,61,61,1,0,0,,,1,FALSE,1.5989,,,,,,,,,,,,,,,,,,,,,,,,,,,,,,
,,001,2022-04-28_20h07.39.558,classification_task,2021.2.3,Win32,60.0240096,60d22bc88de159abc53b09ed,626b377229c10585ec392f8a,626b3a3bd2ec00a3a3c1f205,,,,,,,,,,,,,,,,,,,,,,,l,1,"[""0.119"",""0.398"",""0.270"",""0.686""]","[1,1,0,1]",0,62,62,62,1,1,0,,,1,FALSE,1.5879,,,,,,,,,,,,,,,,,,,,,,,,,,,,,,
,,001,2022-04-28_20h07.39.558,classification_task,2021.2.3,Win32,60.0240096,60d22bc88de159abc53b09ed,626b377229c10585ec392f8a,626b3a3bd2ec00a3a3c1f205,,,,,,,,,,,,,,,,,,,,,,,l,0,"[""0.325"",""0.362"",""0.285"",""0.913""]","[1,1,0,1]",0,63,63,63,1,0,1,,,1,FALSE,1.8669,,,,,,,,,,,,,,,,,,,,,,,,,,,,,,
,,001,2022-04-28_20h07.39.558,classification_task,2021.2.3,Win32,60.0240096,60d22bc88de159abc53b09ed,626b377229c10585ec392f8a,626b3a3bd2ec00a3a3c1f205,,,,,,,,,,,,,,,,,,,,,,,,,,,,,,,,,,,,,,,0, ,,0,7.806976778,648.1042,0,0,0,0,1,2,1,,,,,,,,,,,,,,,,,
,,001,2022-04-28_20h07.39.558,classification_task,2021.2.3,Win32,60.0240096,60d22bc88de159abc53b09ed,626b377229c10585ec392f8a,626b3a3bd2ec00a3a3c1f205,,,,,,,,,,,,,,,,,,,,,,,,,,,,,,,,,,,,,,,1,  ,,0,9.594792168,630.9065,0,0,0,0,1,2,1,,,,,,,,,,,,,,,,,
,,001,2022-04-28_20h07.39.558,classification_task,2021.2.3,Win32,60.0240096,60d22bc88de159abc53b09ed,626b377229c10585ec392f8a,626b3a3bd2ec00a3a3c1f205,,,,,,,,,,,,,,,,,,,,,,,,,,,,,,,,,,,,,,,2,  ,,0,6.606937186,651.8022,0,0,0,0,1,2,1,,,,,,,,,,,,,,,,,
,,001,2022-04-28_20h07.39.558,classification_task,2021.2.3,Win32,60.0240096,60d22bc88de159abc53b09ed,626b377229c10585ec392f8a,626b3a3bd2ec00a3a3c1f205,,,,,,,,,,,,,,,,,,,,,,,,,,,,,,,,,,,,,,,,,,,,,0,0,0,0,1,,1,,,,,,,,,,,,,,,,,
,,001,2022-04-28_20h07.39.558,classification_task,2021.2.3,Win32,60.0240096,60d22bc88de159abc53b09ed,626b377229c10585ec392f8a,626b3a3bd2ec00a3a3c1f205,,,,,,,,,,,,,,,,,,,,,space,29.8451,a,1,"[""0.325"",""0.285"",""0.878"",""0.913""]","[1,0,1,1]",0,0,0,0,1,0,1,,,1,FALSE,7.8551,,,,,,,,,,,,,,,,,,,,,,,,,,,,,,
,,001,2022-04-28_20h07.39.558,classification_task,2021.2.3,Win32,60.0240096,60d22bc88de159abc53b09ed,626b377229c10585ec392f8a,626b3a3bd2ec00a3a3c1f205,,,,,,,,,,,,,,,,,,,,,,,a,1,"[""0.211"",""0.517"",""0.285"",""0.947""]","[1,1,0,1]",0,1,1,1,1,0,0,,,1,FALSE,2.4069,,,,,,,,,,,,,,,,,,,,,,,,,,,,,,
,,001,2022-04-28_20h07.39.558,classification_task,2021.2.3,Win32,60.0240096,60d22bc88de159abc53b09ed,626b377229c10585ec392f8a,626b3a3bd2ec00a3a3c1f205,,,,,,,,,,,,,,,,,,,,,,,l,1,"[""0.119"",""0.398"",""0.651"",""0.278""]","[1,1,1,0]",0,2,2,2,1,1,0,,,1,FALSE,3.2817,,,,,,,,,,,,,,,,,,,,,,,,,,,,,,
,,001,2022-04-28_20h07.39.558,classification_task,2021.2.3,Win32,60.0240096,60d22bc88de159abc53b09ed,626b377229c10585ec392f8a,626b3a3bd2ec00a3a3c1f205,,,,,,,,,,,,,,,,,,,,,,,a,0,"[""0.119"",""0.781"",""0.651"",""0.686""]","[1,0,1,1]",0,3,3,3,1,1,0,,,1,FALSE,2.6305,,,,,,,,,,,,,,,,,,,,,,,,,,,,,,
,,001,2022-04-28_20h07.39.558,classification_task,2021.2.3,Win32,60.0240096,60d22bc88de159abc53b09ed,626b377229c10585ec392f8a,626b3a3bd2ec00a3a3c1f205,,,,,,,,,,,,,,,,,,,,,,,l,1,"[""0.255"",""0.398"",""0.651"",""0.686""]","[0,1,1,1]",0,4,4,4,1,1,0,,,1,FALSE,2.235,,,,,,,,,,,,,,,,,,,,,,,,,,,,,,
,,001,2022-04-28_20h07.39.558,classification_task,2021.2.3,Win32,60.0240096,60d22bc88de159abc53b09ed,626b377229c10585ec392f8a,626b3a3bd2ec00a3a3c1f205,,,,,,,,,,,,,,,,,,,,,,,l,1,"[""0.053"",""0.433"",""0.278"",""0.823""]","[1,1,0,1]",0,5,5,5,1,1,1,,,1,FALSE,5.8506,,,,,,,,,,,,,,,,,,,,,,,,,,,,,,
,,001,2022-04-28_20h07.39.558,classification_task,2021.2.3,Win32,60.0240096,60d22bc88de159abc53b09ed,626b377229c10585ec392f8a,626b3a3bd2ec00a3a3c1f205,,,,,,,,,,,,,,,,,,,,,,,l,1,"[""0.478"",""0.433"",""0.572"",""0.823""]","[0,1,1,1]",0,6,6,6,1,1,1,,,1,FALSE,2.8352,,,,,,,,,,,,,,,,,,,,,,,,,,,,,,
,,001,2022-04-28_20h07.39.558,classification_task,2021.2.3,Win32,60.0240096,60d22bc88de159abc53b09ed,626b377229c10585ec392f8a,626b3a3bd2ec00a3a3c1f205,,,,,,,,,,,,,,,,,,,,,,,a,1,"[""0.325"",""0.362"",""0.878"",""0.790""]","[1,1,1,0]",0,7,7,7,1,0,1,,,1,FALSE,2.9862,,,,,,,,,,,,,,,,,,,,,,,,,,,,,,
,,001,2022-04-28_20h07.39.558,classification_task,2021.2.3,Win32,60.0240096,60d22bc88de159abc53b09ed,626b377229c10585ec392f8a,626b3a3bd2ec00a3a3c1f205,,,,,,,,,,,,,,,,,,,,,,,a,1,"[""0.255"",""0.362"",""0.878"",""0.913""]","[0,1,1,1]",0,8,8,8,1,0,1,,,1,FALSE,3.6333,,,,,,,,,,,,,,,,,,,,,,,,,,,,,,
,,001,2022-04-28_20h07.39.558,classification_task,2021.2.3,Win32,60.0240096,60d22bc88de159abc53b09ed,626b377229c10585ec392f8a,626b3a3bd2ec00a3a3c1f205,,,,,,,,,,,,,,,,,,,,,,,a,1,"[""0.211"",""0.278"",""0.733"",""0.947""]","[1,0,1,1]",0,9,9,9,1,0,0,,,1,FALSE,3.2639,,,,,,,,,,,,,,,,,,,,,,,,,,,,,,
,,001,2022-04-28_20h07.39.558,classification_task,2021.2.3,Win32,60.0240096,60d22bc88de159abc53b09ed,626b377229c10585ec392f8a,626b3a3bd2ec00a3a3c1f205,,,,,,,,,,,,,,,,,,,,,,,a,1,"[""0.325"",""0.362"",""0.788"",""0.913""]","[1,1,0,1]",0,10,10,10,1,0,1,,,1,FALSE,2.3299,,,,,,,,,,,,,,,,,,,,,,,,,,,,,,
,,001,2022-04-28_20h07.39.558,classification_task,2021.2.3,Win32,60.0240096,60d22bc88de159abc53b09ed,626b377229c10585ec392f8a,626b3a3bd2ec00a3a3c1f205,,,,,,,,,,,,,,,,,,,,,,,l,0,"[""0.771"",""0.517"",""0.733"",""0.947""]","[0,1,1,1]",0,11,11,11,1,0,0,,,1,FALSE,1.4363,,,,,,,,,,,,,,,,,,,,,,,,,,,,,,
,,001,2022-04-28_20h07.39.558,classification_task,2021.2.3,Win32,60.0240096,60d22bc88de159abc53b09ed,626b377229c10585ec392f8a,626b3a3bd2ec00a3a3c1f205,,,,,,,,,,,,,,,,,,,,,,,l,1,"[""0.053"",""0.433"",""0.572"",""0.278""]","[1,1,1,0]",0,12,12,12,1,1,1,,,1,FALSE,4.3298,,,,,,,,,,,,,,,,,,,,,,,,,,,,,,
,,001,2022-04-28_20h07.39.558,classification_task,2021.2.3,Win32,60.0240096,60d22bc88de159abc53b09ed,626b377229c10585ec392f8a,626b3a3bd2ec00a3a3c1f205,,,,,,,,,,,,,,,,,,,,,,,l,1,"[""0.119"",""0.398"",""0.291"",""0.686""]","[1,1,0,1]",0,13,13,13,1,1,0,,,1,FALSE,2.6041,,,,,,,,,,,,,,,,,,,,,,,,,,,,,,
,,001,2022-04-28_20h07.39.558,classification_task,2021.2.3,Win32,60.0240096,60d22bc88de159abc53b09ed,626b377229c10585ec392f8a,626b3a3bd2ec00a3a3c1f205,,,,,,,,,,,,,,,,,,,,,,,a,1,"[""0.211"",""0.517"",""0.733"",""0.790""]","[1,1,1,0]",0,14,14,14,1,0,0,,,1,FALSE,2.0319,,,,,,,,,,,,,,,,,,,,,,,,,,,,,,
,,001,2022-04-28_20h07.39.558,classification_task,2021.2.3,Win32,60.0240096,60d22bc88de159abc53b09ed,626b377229c10585ec392f8a,626b3a3bd2ec00a3a3c1f205,,,,,,,,,,,,,,,,,,,,,,,a,0,"[""0.053"",""0.255"",""0.572"",""0.823""]","[1,0,1,1]",0,15,15,15,1,1,1,,,1,FALSE,1.7732,,,,,,,,,,,,,,,,,,,,,,,,,,,,,,
,,001,2022-04-28_20h07.39.558,classification_task,2021.2.3,Win32,60.0240096,60d22bc88de159abc53b09ed,626b377229c10585ec392f8a,626b3a3bd2ec00a3a3c1f205,,,,,,,,,,,,,,,,,,,,,,,l,1,"[""0.053"",""0.433"",""0.572"",""0.291""]","[1,1,1,0]",0,16,16,16,1,1,1,,,1,FALSE,1.551,,,,,,,,,,,,,,,,,,,,,,,,,,,,,,
,,001,2022-04-28_20h07.39.558,classification_task,2021.2.3,Win32,60.0240096,60d22bc88de159abc53b09ed,626b377229c10585ec392f8a,626b3a3bd2ec00a3a3c1f205,,,,,,,,,,,,,,,,,,,,,,,l,1,"[""0.119"",""0.398"",""0.651"",""0.270""]","[1,1,1,0]",0,17,17,17,1,1,0,,,1,FALSE,1.2736,,,,,,,,,,,,,,,,,,,,,,,,,,,,,,
,,001,2022-04-28_20h07.39.558,classification_task,2021.2.3,Win32,60.0240096,60d22bc88de159abc53b09ed,626b377229c10585ec392f8a,626b3a3bd2ec00a3a3c1f205,,,,,,,,,,,,,,,,,,,,,,,l,1,"[""0.119"",""0.291"",""0.651"",""0.686""]","[1,0,1,1]",0,18,18,18,1,1,0,,,1,FALSE,1.7483,,,,,,,,,,,,,,,,,,,,,,,,,,,,,,
,,001,2022-04-28_20h07.39.558,classification_task,2021.2.3,Win32,60.0240096,60d22bc88de159abc53b09ed,626b377229c10585ec392f8a,626b3a3bd2ec00a3a3c1f205,,,,,,,,,,,,,,,,,,,,,,,a,1,"[""0.325"",""0.255"",""0.878"",""0.913""]","[1,0,1,1]",0,19,19,19,1,0,1,,,1,FALSE,1.9906,,,,,,,,,,,,,,,,,,,,,,,,,,,,,,
,,001,2022-04-28_20h07.39.558,classification_task,2021.2.3,Win32,60.0240096,60d22bc88de159abc53b09ed,626b377229c10585ec392f8a,626b3a3bd2ec00a3a3c1f205,,,,,,,,,,,,,,,,,,,,,,,l,1,"[""0.119"",""0.398"",""0.766"",""0.686""]","[1,1,0,1]",0,20,20,20,1,1,0,,,1,FALSE,3.174,,,,,,,,,,,,,,,,,,,,,,,,,,,,,,
,,001,2022-04-28_20h07.39.558,classification_task,2021.2.3,Win32,60.0240096,60d22bc88de159abc53b09ed,626b377229c10585ec392f8a,626b3a3bd2ec00a3a3c1f205,,,,,,,,,,,,,,,,,,,,,,,l,1,"[""0.053"",""0.478"",""0.572"",""0.823""]","[1,0,1,1]",0,21,21,21,1,1,1,,,1,FALSE,3.0462,,,,,,,,,,,,,,,,,,,,,,,,,,,,,,
,,001,2022-04-28_20h07.39.558,classification_task,2021.2.3,Win32,60.0240096,60d22bc88de159abc53b09ed,626b377229c10585ec392f8a,626b3a3bd2ec00a3a3c1f205,,,,,,,,,,,,,,,,,,,,,,,a,1,"[""0.766"",""0.362"",""0.878"",""0.913""]","[0,1,1,1]",0,22,22,22,1,0,1,,,1,FALSE,1.9856,,,,,,,,,,,,,,,,,,,,,,,,,,,,,,
,,001,2022-04-28_20h07.39.558,classification_task,2021.2.3,Win32,60.0240096,60d22bc88de159abc53b09ed,626b377229c10585ec392f8a,626b3a3bd2ec00a3a3c1f205,,,,,,,,,,,,,,,,,,,,,,,a,1,"[""0.325"",""0.362"",""0.878"",""0.766""]","[1,1,1,0]",0,23,23,23,1,0,1,,,1,FALSE,2.2319,,,,,,,,,,,,,,,,,,,,,,,,,,,,,,
,,001,2022-04-28_20h07.39.558,classification_task,2021.2.3,Win32,60.0240096,60d22bc88de159abc53b09ed,626b377229c10585ec392f8a,626b3a3bd2ec00a3a3c1f205,,,,,,,,,,,,,,,,,,,,,,,l,1,"[""0.766"",""0.433"",""0.572"",""0.823""]","[0,1,1,1]",0,24,24,24,1,1,1,,,1,FALSE,3.2457,,,,,,,,,,,,,,,,,,,,,,,,,,,,,,
,,001,2022-04-28_20h07.39.558,classification_task,2021.2.3,Win32,60.0240096,60d22bc88de159abc53b09ed,626b377229c10585ec392f8a,626b3a3bd2ec00a3a3c1f205,,,,,,,,,,,,,,,,,,,,,,,l,0,"[""0.211"",""0.517"",""0.733"",""0.172""]","[1,1,1,0]",0,25,25,25,1,0,0,,,1,FALSE,2.2437,,,,,,,,,,,,,,,,,,,,,,,,,,,,,,
,,001,2022-04-28_20h07.39.558,classification_task,2021.2.3,Win32,60.0240096,60d22bc88de159abc53b09ed,626b377229c10585ec392f8a,626b3a3bd2ec00a3a3c1f205,,,,,,,,,,,,,,,,,,,,,,,l,1,"[""0.053"",""0.433"",""0.771"",""0.823""]","[1,1,0,1]",0,26,26,26,1,1,1,,,1,FALSE,3.4765,,,,,,,,,,,,,,,,,,,,,,,,,,,,,,
,,001,2022-04-28_20h07.39.558,classification_task,2021.2.3,Win32,60.0240096,60d22bc88de159abc53b09ed,626b377229c10585ec392f8a,626b3a3bd2ec00a3a3c1f205,,,,,,,,,,,,,,,,,,,,,,,l,0,"[""0.211"",""0.517"",""0.766"",""0.947""]","[1,1,0,1]",0,27,27,27,1,0,0,,,1,FALSE,3.8604,,,,,,,,,,,,,,,,,,,,,,,,,,,,,,
,,001,2022-04-28_20h07.39.558,classification_task,2021.2.3,Win32,60.0240096,60d22bc88de159abc53b09ed,626b377229c10585ec392f8a,626b3a3bd2ec00a3a3c1f205,,,,,,,,,,,,,,,,,,,,,,,a,1,"[""0.261"",""0.517"",""0.733"",""0.947""]","[0,1,1,1]",0,28,28,28,1,0,0,,,1,FALSE,3.3364,,,,,,,,,,,,,,,,,,,,,,,,,,,,,,
,,001,2022-04-28_20h07.39.558,classification_task,2021.2.3,Win32,60.0240096,60d22bc88de159abc53b09ed,626b377229c10585ec392f8a,626b3a3bd2ec00a3a3c1f205,,,,,,,,,,,,,,,,,,,,,,,l,1,"[""0.788"",""0.398"",""0.651"",""0.686""]","[0,1,1,1]",0,29,29,29,1,1,0,,,1,FALSE,4.9391,,,,,,,,,,,,,,,,,,,,,,,,,,,,,,
,,001,2022-04-28_20h07.39.558,classification_task,2021.2.3,Win32,60.0240096,60d22bc88de159abc53b09ed,626b377229c10585ec392f8a,626b3a3bd2ec00a3a3c1f205,,,,,,,,,,,,,,,,,,,,,,,a,1,"[""0.211"",""0.270"",""0.733"",""0.947""]","[1,0,1,1]",0,30,30,30,1,0,0,,,1,FALSE,1.9386,,,,,,,,,,,,,,,,,,,,,,,,,,,,,,
,,001,2022-04-28_20h07.39.558,classification_task,2021.2.3,Win32,60.0240096,60d22bc88de159abc53b09ed,626b377229c10585ec392f8a,626b3a3bd2ec00a3a3c1f205,,,,,,,,,,,,,,,,,,,,,,,a,1,"[""0.325"",""0.362"",""0.270"",""0.913""]","[1,1,0,1]",0,31,31,31,1,0,1,,,1,FALSE,2.5566,,,,,,,,,,,,,,,,,,,,,,,,,,,,,,
,,001,2022-04-28_20h07.39.558,classification_task,2021.2.3,Win32,60.0240096,60d22bc88de159abc53b09ed,626b377229c10585ec392f8a,626b3a3bd2ec00a3a3c1f205,,,,,,,,,,,,,,,,,,,,,,,a,1,"[""0.211"",""0.517"",""0.733"",""0.291""]","[1,1,1,0]",0,32,32,32,1,0,0,,,1,FALSE,3.1625,,,,,,,,,,,,,,,,,,,,,,,,,,,,,,
,,001,2022-04-28_20h07.39.558,classification_task,2021.2.3,Win32,60.0240096,60d22bc88de159abc53b09ed,626b377229c10585ec392f8a,626b3a3bd2ec00a3a3c1f205,,,,,,,,,,,,,,,,,,,,,,,a,1,"[""0.285"",""0.362"",""0.878"",""0.913""]","[0,1,1,1]",0,33,33,33,1,0,1,,,1,FALSE,2.426,,,,,,,,,,,,,,,,,,,,,,,,,,,,,,
,,001,2022-04-28_20h07.39.558,classification_task,2021.2.3,Win32,60.0240096,60d22bc88de159abc53b09ed,626b377229c10585ec392f8a,626b3a3bd2ec00a3a3c1f205,,,,,,,,,,,,,,,,,,,,,,,l,1,"[""0.053"",""0.255"",""0.572"",""0.823""]","[1,0,1,1]",0,34,34,34,1,1,1,,,1,FALSE,4.4535,,,,,,,,,,,,,,,,,,,,,,,,,,,,,,
,,001,2022-04-28_20h07.39.558,classification_task,2021.2.3,Win32,60.0240096,60d22bc88de159abc53b09ed,626b377229c10585ec392f8a,626b3a3bd2ec00a3a3c1f205,,,,,,,,,,,,,,,,,,,,,,,a,1,"[""0.325"",""0.362"",""0.878"",""0.270""]","[1,1,1,0]",0,35,35,35,1,0,1,,,1,FALSE,1.7976,,,,,,,,,,,,,,,,,,,,,,,,,,,,,,
,,001,2022-04-28_20h07.39.558,classification_task,2021.2.3,Win32,60.0240096,60d22bc88de159abc53b09ed,626b377229c10585ec392f8a,626b3a3bd2ec00a3a3c1f205,,,,,,,,,,,,,,,,,,,,,,,a,1,"[""0.325"",""0.261"",""0.878"",""0.913""]","[1,0,1,1]",0,36,36,36,1,0,1,,,1,FALSE,2.6819,,,,,,,,,,,,,,,,,,,,,,,,,,,,,,
,,001,2022-04-28_20h07.39.558,classification_task,2021.2.3,Win32,60.0240096,60d22bc88de159abc53b09ed,626b377229c10585ec392f8a,626b3a3bd2ec00a3a3c1f205,,,,,,,,,,,,,,,,,,,,,,,l,1,"[""0.781"",""0.433"",""0.572"",""0.823""]","[0,1,1,1]",0,37,37,37,1,1,1,,,1,FALSE,4.6644,,,,,,,,,,,,,,,,,,,,,,,,,,,,,,
,,001,2022-04-28_20h07.39.558,classification_task,2021.2.3,Win32,60.0240096,60d22bc88de159abc53b09ed,626b377229c10585ec392f8a,626b3a3bd2ec00a3a3c1f205,,,,,,,,,,,,,,,,,,,,,,,a,1,"[""0.325"",""0.362"",""0.788"",""0.913""]","[1,1,0,1]",0,38,38,38,1,0,1,,,1,FALSE,2.8291,,,,,,,,,,,,,,,,,,,,,,,,,,,,,,
,,001,2022-04-28_20h07.39.558,classification_task,2021.2.3,Win32,60.0240096,60d22bc88de159abc53b09ed,626b377229c10585ec392f8a,626b3a3bd2ec00a3a3c1f205,,,,,,,,,,,,,,,,,,,,,,,l,0,"[""0.211"",""0.478"",""0.733"",""0.947""]","[1,0,1,1]",0,39,39,39,1,0,0,,,1,FALSE,2.7271,,,,,,,,,,,,,,,,,,,,,,,,,,,,,,
,,001,2022-04-28_20h07.39.558,classification_task,2021.2.3,Win32,60.0240096,60d22bc88de159abc53b09ed,626b377229c10585ec392f8a,626b3a3bd2ec00a3a3c1f205,,,,,,,,,,,,,,,,,,,,,,,l,0,"[""0.790"",""0.517"",""0.733"",""0.947""]","[0,1,1,1]",0,40,40,40,1,0,0,,,1,FALSE,2.3484,,,,,,,,,,,,,,,,,,,,,,,,,,,,,,
,,001,2022-04-28_20h07.39.558,classification_task,2021.2.3,Win32,60.0240096,60d22bc88de159abc53b09ed,626b377229c10585ec392f8a,626b3a3bd2ec00a3a3c1f205,,,,,,,,,,,,,,,,,,,,,,,a,0,"[""0.119"",""0.398"",""0.651"",""0.255""]","[1,1,1,0]",0,41,41,41,1,1,0,,,1,FALSE,2.9462,,,,,,,,,,,,,,,,,,,,,,,,,,,,,,
,,001,2022-04-28_20h07.39.558,classification_task,2021.2.3,Win32,60.0240096,60d22bc88de159abc53b09ed,626b377229c10585ec392f8a,626b3a3bd2ec00a3a3c1f205,,,,,,,,,,,,,,,,,,,,,,,l,1,"[""0.053"",""0.433"",""0.572"",""0.478""]","[1,1,1,0]",0,42,42,42,1,1,1,,,1,FALSE,2.4571,,,,,,,,,,,,,,,,,,,,,,,,,,,,,,
,,001,2022-04-28_20h07.39.558,classification_task,2021.2.3,Win32,60.0240096,60d22bc88de159abc53b09ed,626b377229c10585ec392f8a,626b3a3bd2ec00a3a3c1f205,,,,,,,,,,,,,,,,,,,,,,,a,1,"[""0.211"",""0.517"",""0.291"",""0.947""]","[1,1,0,1]",0,43,43,43,1,0,0,,,1,FALSE,2.8784,,,,,,,,,,,,,,,,,,,,,,,,,,,,,,
,,001,2022-04-28_20h07.39.558,classification_task,2021.2.3,Win32,60.0240096,60d22bc88de159abc53b09ed,626b377229c10585ec392f8a,626b3a3bd2ec00a3a3c1f205,,,,,,,,,,,,,,,,,,,,,,,a,0,"[""0.781"",""0.398"",""0.651"",""0.686""]","[0,1,1,1]",0,44,44,44,1,1,0,,,1,FALSE,1.7634,,,,,,,,,,,,,,,,,,,,,,,,,,,,,,
,,001,2022-04-28_20h07.39.558,classification_task,2021.2.3,Win32,60.0240096,60d22bc88de159abc53b09ed,626b377229c10585ec392f8a,626b3a3bd2ec00a3a3c1f205,,,,,,,,,,,,,,,,,,,,,,,l,1,"[""0.053"",""0.433"",""0.261"",""0.823""]","[1,1,0,1]",0,45,45,45,1,1,1,,,1,FALSE,2.0308,,,,,,,,,,,,,,,,,,,,,,,,,,,,,,
,,001,2022-04-28_20h07.39.558,classification_task,2021.2.3,Win32,60.0240096,60d22bc88de159abc53b09ed,626b377229c10585ec392f8a,626b3a3bd2ec00a3a3c1f205,,,,,,,,,,,,,,,,,,,,,,,l,1,"[""0.119"",""0.398"",""0.478"",""0.686""]","[1,1,0,1]",0,46,46,46,1,1,0,,,1,FALSE,2.3598,,,,,,,,,,,,,,,,,,,,,,,,,,,,,,
,,001,2022-04-28_20h07.39.558,classification_task,2021.2.3,Win32,60.0240096,60d22bc88de159abc53b09ed,626b377229c10585ec392f8a,626b3a3bd2ec00a3a3c1f205,,,,,,,,,,,,,,,,,,,,,,,l,1,"[""0.119"",""0.261"",""0.651"",""0.686""]","[1,0,1,1]",0,47,47,47,1,1,0,,,1,FALSE,1.9822,,,,,,,,,,,,,,,,,,,,,,,,,,,,,,
,,001,2022-04-28_20h07.39.558,classification_task,2021.2.3,Win32,60.0240096,60d22bc88de159abc53b09ed,626b377229c10585ec392f8a,626b3a3bd2ec00a3a3c1f205,,,,,,,,,,,,,,,,,,,,,,,l,1,"[""0.119"",""0.398"",""0.478"",""0.686""]","[1,1,0,1]",0,48,48,48,1,1,0,,,1,FALSE,2.6796,,,,,,,,,,,,,,,,,,,,,,,,,,,,,,
,,001,2022-04-28_20h07.39.558,classification_task,2021.2.3,Win32,60.0240096,60d22bc88de159abc53b09ed,626b377229c10585ec392f8a,626b3a3bd2ec00a3a3c1f205,,,,,,,,,,,,,,,,,,,,,,,a,1,"[""0.211"",""0.517"",""0.261"",""0.947""]","[1,1,0,1]",0,49,49,49,1,0,0,,,1,FALSE,1.6993,,,,,,,,,,,,,,,,,,,,,,,,,,,,,,
,,001,2022-04-28_20h07.39.558,classification_task,2021.2.3,Win32,60.0240096,60d22bc88de159abc53b09ed,626b377229c10585ec392f8a,626b3a3bd2ec00a3a3c1f205,,,,,,,,,,,,,,,,,,,,,,,l,1,"[""0.053"",""0.433"",""0.572"",""0.790""]","[1,1,1,0]",0,50,50,50,1,1,1,,,1,FALSE,3.2122,,,,,,,,,,,,,,,,,,,,,,,,,,,,,,
,,001,2022-04-28_20h07.39.558,classification_task,2021.2.3,Win32,60.0240096,60d22bc88de159abc53b09ed,626b377229c10585ec392f8a,626b3a3bd2ec00a3a3c1f205,,,,,,,,,,,,,,,,,,,,,,,l,1,"[""0.270"",""0.433"",""0.572"",""0.823""]","[0,1,1,1]",0,51,51,51,1,1,1,,,1,FALSE,3.0958,,,,,,,,,,,,,,,,,,,,,,,,,,,,,,
,,001,2022-04-28_20h07.39.558,classification_task,2021.2.3,Win32,60.0240096,60d22bc88de159abc53b09ed,626b377229c10585ec392f8a,626b3a3bd2ec00a3a3c1f205,,,,,,,,,,,,,,,,,,,,,,,a,1,"[""0.325"",""0.362"",""0.878"",""0.788""]","[1,1,1,0]",0,52,52,52,1,0,1,,,1,FALSE,1.7863,,,,,,,,,,,,,,,,,,,,,,,,,,,,,,
,,001,2022-04-28_20h07.39.558,classification_task,2021.2.3,Win32,60.0240096,60d22bc88de159abc53b09ed,626b377229c10585ec392f8a,626b3a3bd2ec00a3a3c1f205,,,,,,,,,,,,,,,,,,,,,,,l,0,"[""0.766"",""0.517"",""0.733"",""0.947""]","[0,1,1,1]",0,53,53,53,1,0,0,,,1,FALSE,1.6255,,,,,,,,,,,,,,,,,,,,,,,,,,,,,,
,,001,2022-04-28_20h07.39.558,classification_task,2021.2.3,Win32,60.0240096,60d22bc88de159abc53b09ed,626b377229c10585ec392f8a,626b3a3bd2ec00a3a3c1f205,,,,,,,,,,,,,,,,,,,,,,,a,0,"[""0.119"",""0.278"",""0.651"",""0.686""]","[1,0,1,1]",0,54,54,54,1,1,0,,,1,FALSE,2.7146,,,,,,,,,,,,,,,,,,,,,,,,,,,,,,
,,001,2022-04-28_20h07.39.558,classification_task,2021.2.3,Win32,60.0240096,60d22bc88de159abc53b09ed,626b377229c10585ec392f8a,626b3a3bd2ec00a3a3c1f205,,,,,,,,,,,,,,,,,,,,,,,l,0,"[""0.211"",""0.517"",""0.733"",""0.167""]","[1,1,1,0]",0,55,55,55,1,0,0,,,1,FALSE,1.0477,,,,,,,,,,,,,,,,,,,,,,,,,,,,,,
,,001,2022-04-28_20h07.39.558,classification_task,2021.2.3,Win32,60.0240096,60d22bc88de159abc53b09ed,626b377229c10585ec392f8a,626b3a3bd2ec00a3a3c1f205,,,,,,,,,,,,,,,,,,,,,,,l,1,"[""0.053"",""0.433"",""0.781"",""0.823""]","[1,1,0,1]",0,56,56,56,1,1,1,,,1,FALSE,2.7645,,,,,,,,,,,,,,,,,,,,,,,,,,,,,,
,,001,2022-04-28_20h07.39.558,classification_task,2021.2.3,Win32,60.0240096,60d22bc88de159abc53b09ed,626b377229c10585ec392f8a,626b3a3bd2ec00a3a3c1f205,,,,,,,,,,,,,,,,,,,,,,,l,1,"[""0.053"",""0.167"",""0.572"",""0.823""]","[1,0,1,1]",0,57,57,57,1,1,1,,,1,FALSE,1.878,,,,,,,,,,,,,,,,,,,,,,,,,,,,,,
,,001,2022-04-28_20h07.39.558,classification_task,2021.2.3,Win32,60.0240096,60d22bc88de159abc53b09ed,626b377229c10585ec392f8a,626b3a3bd2ec00a3a3c1f205,,,,,,,,,,,,,,,,,,,,,,,a,1,"[""0.325"",""0.362"",""0.172"",""0.913""]","[1,1,0,1]",0,58,58,58,1,0,1,,,1,FALSE,1.3674,,,,,,,,,,,,,,,,,,,,,,,,,,,,,,
,,001,2022-04-28_20h07.39.558,classification_task,2021.2.3,Win32,60.0240096,60d22bc88de159abc53b09ed,626b377229c10585ec392f8a,626b3a3bd2ec00a3a3c1f205,,,,,,,,,,,,,,,,,,,,,,,a,0,"[""0.119"",""0.398"",""0.651"",""0.781""]","[1,1,1,0]",0,59,59,59,1,1,0,,,1,FALSE,0.9814,,,,,,,,,,,,,,,,,,,,,,,,,,,,,,
,,001,2022-04-28_20h07.39.558,classification_task,2021.2.3,Win32,60.0240096,60d22bc88de159abc53b09ed,626b377229c10585ec392f8a,626b3a3bd2ec00a3a3c1f205,,,,,,,,,,,,,,,,,,,,,,,l,1,"[""0.255"",""0.398"",""0.651"",""0.686""]","[0,1,1,1]",0,60,60,60,1,1,0,,,1,FALSE,3.1823,,,,,,,,,,,,,,,,,,,,,,,,,,,,,,
,,001,2022-04-28_20h07.39.558,classification_task,2021.2.3,Win32,60.0240096,60d22bc88de159abc53b09ed,626b377229c10585ec392f8a,626b3a3bd2ec00a3a3c1f205,,,,,,,,,,,,,,,,,,,,,,,a,1,"[""0.766"",""0.362"",""0.878"",""0.913""]","[0,1,1,1]",0,61,61,61,1,0,1,,,1,FALSE,1.7728,,,,,,,,,,,,,,,,,,,,,,,,,,,,,,
,,001,2022-04-28_20h07.39.558,classification_task,2021.2.3,Win32,60.0240096,60d22bc88de159abc53b09ed,626b377229c10585ec392f8a,626b3a3bd2ec00a3a3c1f205,,,,,,,,,,,,,,,,,,,,,,,a,1,"[""0.325"",""0.255"",""0.878"",""0.913""]","[1,0,1,1]",0,62,62,62,1,0,1,,,1,FALSE,2.2204,,,,,,,,,,,,,,,,,,,,,,,,,,,,,,
,,001,2022-04-28_20h07.39.558,classification_task,2021.2.3,Win32,60.0240096,60d22bc88de159abc53b09ed,626b377229c10585ec392f8a,626b3a3bd2ec00a3a3c1f205,,,,,,,,,,,,,,,,,,,,,,,l,0,"[""0.211"",""0.261"",""0.733"",""0.947""]","[1,0,1,1]",0,63,63,63,1,0,0,,,1,FALSE,3.0565,,,,,,,,,,,,,,,,,,,,,,,,,,,,,,
,,001,2022-04-28_20h07.39.558,classification_task,2021.2.3,Win32,60.0240096,60d22bc88de159abc53b09ed,626b377229c10585ec392f8a,626b3a3bd2ec00a3a3c1f205,,,,,,,,,,,,,,,,,,,,,,,,,,,,,,,,,,,,,,,0, ,,0,7.268183698,284.6105,0,1,1,1,1,2,2,,,,,,,,,,,,,,,,,
,,001,2022-04-28_20h07.39.558,classification_task,2021.2.3,Win32,60.0240096,60d22bc88de159abc53b09ed,626b377229c10585ec392f8a,626b3a3bd2ec00a3a3c1f205,,,,,,,,,,,,,,,,,,,,,,,,,,,,,,,,,,,,,,,1,  ,,0,3.447647737,292.0253,0,1,1,1,1,2,2,,,,,,,,,,,,,,,,,
,,001,2022-04-28_20h07.39.558,classification_task,2021.2.3,Win32,60.0240096,60d22bc88de159abc53b09ed,626b377229c10585ec392f8a,626b3a3bd2ec00a3a3c1f205,,,,,,,,,,,,,,,,,,,,,,,,,,,,,,,,,,,,,,,2,  ,,0,7.806976778,297.4108,0,1,1,1,1,2,2,,,,,,,,,,,,,,,,,
,,001,2022-04-28_20h07.39.558,classification_task,2021.2.3,Win32,60.0240096,60d22bc88de159abc53b09ed,626b377229c10585ec392f8a,626b3a3bd2ec00a3a3c1f205,,,,,,,,,,,,,,,,,,,,,,,,,,,,,,,,,,,,,,,,,,,,,0,1,1,1,1,,2,,,,,,,,,,,,,,,,,
,,001,2022-04-28_20h07.39.558,classification_task,2021.2.3,Win32,60.0240096,60d22bc88de159abc53b09ed,626b377229c10585ec392f8a,626b3a3bd2ec00a3a3c1f205,,,,,,,,,,,,,,,,,,,,,space,19.518,a,1,"[""0.325"",""0.291"",""0.878"",""0.913""]","[1,0,1,1]",0,0,0,0,1,0,1,,,1,FALSE,2.954,,,,,,,,,,,,,,,,,,,,,,,,,,,,,,
,,001,2022-04-28_20h07.39.558,classification_task,2021.2.3,Win32,60.0240096,60d22bc88de159abc53b09ed,626b377229c10585ec392f8a,626b3a3bd2ec00a3a3c1f205,,,,,,,,,,,,,,,,,,,,,,,a,1,"[""0.255"",""0.362"",""0.878"",""0.913""]","[0,1,1,1]",0,1,1,1,1,0,1,,,1,FALSE,3.2864,,,,,,,,,,,,,,,,,,,,,,,,,,,,,,
,,001,2022-04-28_20h07.39.558,classification_task,2021.2.3,Win32,60.0240096,60d22bc88de159abc53b09ed,626b377229c10585ec392f8a,626b3a3bd2ec00a3a3c1f205,,,,,,,,,,,,,,,,,,,,,,,l,1,"[""0.119"",""0.398"",""0.651"",""0.478""]","[1,1,1,0]",0,2,2,2,1,1,0,,,1,FALSE,2.9052,,,,,,,,,,,,,,,,,,,,,,,,,,,,,,
,,001,2022-04-28_20h07.39.558,classification_task,2021.2.3,Win32,60.0240096,60d22bc88de159abc53b09ed,626b377229c10585ec392f8a,626b3a3bd2ec00a3a3c1f205,,,,,,,,,,,,,,,,,,,,,,,l,1,"[""0.278"",""0.398"",""0.651"",""0.686""]","[0,1,1,1]",0,3,3,3,1,1,0,,,1,FALSE,2.2293,,,,,,,,,,,,,,,,,,,,,,,,,,,,,,
,,001,2022-04-28_20h07.39.558,classification_task,2021.2.3,Win32,60.0240096,60d22bc88de159abc53b09ed,626b377229c10585ec392f8a,626b3a3bd2ec00a3a3c1f205,,,,,,,,,,,,,,,,,,,,,,,l,0,"[""0.211"",""0.517"",""0.285"",""0.947""]","[1,1,0,1]",0,4,4,4,1,0,0,,,1,FALSE,2.7664,,,,,,,,,,,,,,,,,,,,,,,,,,,,,,
,,001,2022-04-28_20h07.39.558,classification_task,2021.2.3,Win32,60.0240096,60d22bc88de159abc53b09ed,626b377229c10585ec392f8a,626b3a3bd2ec00a3a3c1f205,,,,,,,,,,,,,,,,,,,,,,,a,0,"[""0.119"",""0.781"",""0.651"",""0.686""]","[1,0,1,1]",0,5,5,5,1,1,0,,,1,FALSE,2.2277,,,,,,,,,,,,,,,,,,,,,,,,,,,,,,
,,001,2022-04-28_20h07.39.558,classification_task,2021.2.3,Win32,60.0240096,60d22bc88de159abc53b09ed,626b377229c10585ec392f8a,626b3a3bd2ec00a3a3c1f205,,,,,,,,,,,,,,,,,,,,,,,l,0,"[""0.771"",""0.517"",""0.733"",""0.947""]","[0,1,1,1]",0,6,6,6,1,0,0,,,1,FALSE,2.464,,,,,,,,,,,,,,,,,,,,,,,,,,,,,,
,,001,2022-04-28_20h07.39.558,classification_task,2021.2.3,Win32,60.0240096,60d22bc88de159abc53b09ed,626b377229c10585ec392f8a,626b3a3bd2ec00a3a3c1f205,,,,,,,,,,,,,,,,,,,,,,,l,1,"[""0.053"",""0.433"",""0.781"",""0.823""]","[1,1,0,1]",0,7,7,7,1,1,1,,,1,FALSE,2.5621,,,,,,,,,,,,,,,,,,,,,,,,,,,,,,
,,001,2022-04-28_20h07.39.558,classification_task,2021.2.3,Win32,60.0240096,60d22bc88de159abc53b09ed,626b377229c10585ec392f8a,626b3a3bd2ec00a3a3c1f205,,,,,,,,,,,,,,,,,,,,,,,a,0,"[""0.053"",""0.433"",""0.572"",""0.766""]","[1,1,1,0]",0,8,8,8,1,1,1,,,1,FALSE,2.2792,,,,,,,,,,,,,,,,,,,,,,,,,,,,,,
,,001,2022-04-28_20h07.39.558,classification_task,2021.2.3,Win32,60.0240096,60d22bc88de159abc53b09ed,626b377229c10585ec392f8a,626b3a3bd2ec00a3a3c1f205,,,,,,,,,,,,,,,,,,,,,,,a,1,"[""0.325"",""0.362"",""0.878"",""0.285""]","[1,1,1,0]",0,9,9,9,1,0,1,,,1,FALSE,2.9206,,,,,,,,,,,,,,,,,,,,,,,,,,,,,,
,,001,2022-04-28_20h07.39.558,classification_task,2021.2.3,Win32,60.0240096,60d22bc88de159abc53b09ed,626b377229c10585ec392f8a,626b3a3bd2ec00a3a3c1f205,,,,,,,,,,,,,,,,,,,,,,,l,0,"[""0.211"",""0.255"",""0.733"",""0.947""]","[1,0,1,1]",0,10,10,10,1,0,0,,,1,FALSE,2.0329,,,,,,,,,,,,,,,,,,,,,,,,,,,,,,
,,001,2022-04-28_20h07.39.558,classification_task,2021.2.3,Win32,60.0240096,60d22bc88de159abc53b09ed,626b377229c10585ec392f8a,626b3a3bd2ec00a3a3c1f205,,,,,,,,,,,,,,,,,,,,,,,l,1,"[""0.053"",""0.255"",""0.572"",""0.823""]","[1,0,1,1]",0,11,11,11,1,1,1,,,1,FALSE,2.0486,,,,,,,,,,,,,,,,,,,,,,,,,,,,,,
,,001,2022-04-28_20h07.39.558,classification_task,2021.2.3,Win32,60.0240096,60d22bc88de159abc53b09ed,626b377229c10585ec392f8a,626b3a3bd2ec00a3a3c1f205,,,,,,,,,,,,,,,,,,,,,,,a,1,"[""0.325"",""0.362"",""0.172"",""0.913""]","[1,1,0,1]",0,12,12,12,1,0,1,,,1,FALSE,1.7637,,,,,,,,,,,,,,,,,,,,,,,,,,,,,,
,,001,2022-04-28_20h07.39.558,classification_task,2021.2.3,Win32,60.0240096,60d22bc88de159abc53b09ed,626b377229c10585ec392f8a,626b3a3bd2ec00a3a3c1f205,,,,,,,,,,,,,,,,,,,,,,,a,0,"[""0.781"",""0.433"",""0.572"",""0.823""]","[0,1,1,1]",0,13,13,13,1,1,1,,,1,FALSE,4.1803,,,,,,,,,,,,,,,,,,,,,,,,,,,,,,
,,001,2022-04-28_20h07.39.558,classification_task,2021.2.3,Win32,60.0240096,60d22bc88de159abc53b09ed,626b377229c10585ec392f8a,626b3a3bd2ec00a3a3c1f205,,,,,,,,,,,,,,,,,,,,,,,l,1,"[""0.119"",""0.398"",""0.781"",""0.686""]","[1,1,0,1]",0,14,14,14,1,1,0,,,1,FALSE,2.3991,,,,,,,,,,,,,,,,,,,,,,,,,,,,,,
,,001,2022-04-28_20h07.39.558,classification_task,2021.2.3,Win32,60.0240096,60d22bc88de159abc53b09ed,626b377229c10585ec392f8a,626b3a3bd2ec00a3a3c1f205,,,,,,,,,,,,,,,,,,,,,,,l,0,"[""0.211"",""0.517"",""0.733"",""0.291""]","[1,1,1,0]",0,15,15,15,1,0,0,,,1,FALSE,3.7707,,,,,,,,,,,,,,,,,,,,,,,,,,,,,,
,,001,2022-04-28_20h07.39.558,classification_task,2021.2.3,Win32,60.0240096,60d22bc88de159abc53b09ed,626b377229c10585ec392f8a,626b3a3bd2ec00a3a3c1f205,,,,,,,,,,,,,,,,,,,,,,,l,1,"[""0.053"",""0.255"",""0.572"",""0.823""]","[1,0,1,1]",0,16,16,16,1,1,1,,,1,FALSE,1.5158,,,,,,,,,,,,,,,,,,,,,,,,,,,,,,
,,001,2022-04-28_20h07.39.558,classification_task,2021.2.3,Win32,60.0240096,60d22bc88de159abc53b09ed,626b377229c10585ec392f8a,626b3a3bd2ec00a3a3c1f205,,,,,,,,,,,,,,,,,,,,,,,a,0,"[""0.119"",""0.398"",""0.651"",""0.261""]","[1,1,1,0]",0,17,17,17,1,1,0,,,1,FALSE,2.2666,,,,,,,,,,,,,,,,,,,,,,,,,,,,,,
,,001,2022-04-28_20h07.39.558,classification_task,2021.2.3,Win32,60.0240096,60d22bc88de159abc53b09ed,626b377229c10585ec392f8a,626b3a3bd2ec00a3a3c1f205,,,,,,,,,,,,,,,,,,,,,,,a,1,"[""0.211"",""0.270"",""0.733"",""0.947""]","[1,0,1,1]",0,18,18,18,1,0,0,,,1,FALSE,3.0326,,,,,,,,,,,,,,,,,,,,,,,,,,,,,,
,,001,2022-04-28_20h07.39.558,classification_task,2021.2.3,Win32,60.0240096,60d22bc88de159abc53b09ed,626b377229c10585ec392f8a,626b3a3bd2ec00a3a3c1f205,,,,,,,,,,,,,,,,,,,,,,,a,1,"[""0.325"",""0.362"",""0.878"",""0.788""]","[1,1,1,0]",0,19,19,19,1,0,1,,,1,FALSE,1.2034,,,,,,,,,,,,,,,,,,,,,,,,,,,,,,
,,001,2022-04-28_20h07.39.558,classification_task,2021.2.3,Win32,60.0240096,60d22bc88de159abc53b09ed,626b377229c10585ec392f8a,626b3a3bd2ec00a3a3c1f205,,,,,,,,,,,,,,,,,,,,,,,l,0,"[""0.771"",""0.517"",""0.733"",""0.947""]","[0,1,1,1]",0,20,20,20,1,0,0,,,1,FALSE,1.5651,,,,,,,,,,,,,,,,,,,,,,,,,,,,,,
,,001,2022-04-28_20h07.39.558,classification_task,2021.2.3,Win32,60.0240096,60d22bc88de159abc53b09ed,626b377229c10585ec392f8a,626b3a3bd2ec00a3a3c1f205,,,,,,,,,,,,,,,,,,,,,,,l,0,"[""0.211"",""0.517"",""0.255"",""0.947""]","[1,1,0,1]",0,21,21,21,1,0,0,,,1,FALSE,2.8679,,,,,,,,,,,,,,,,,,,,,,,,,,,,,,
,,001,2022-04-28_20h07.39.558,classification_task,2021.2.3,Win32,60.0240096,60d22bc88de159abc53b09ed,626b377229c10585ec392f8a,626b3a3bd2ec00a3a3c1f205,,,,,,,,,,,,,,,,,,,,,,,a,1,"[""0.270"",""0.362"",""0.878"",""0.913""]","[0,1,1,1]",0,22,22,22,1,0,1,,,1,FALSE,1.402,,,,,,,,,,,,,,,,,,,,,,,,,,,,,,
,,001,2022-04-28_20h07.39.558,classification_task,2021.2.3,Win32,60.0240096,60d22bc88de159abc53b09ed,626b377229c10585ec392f8a,626b3a3bd2ec00a3a3c1f205,,,,,,,,,,,,,,,,,,,,,,,l,0,"[""0.211"",""0.517"",""0.733"",""0.291""]","[1,1,1,0]",0,23,23,23,1,0,0,,,1,FALSE,2.869,,,,,,,,,,,,,,,,,,,,,,,,,,,,,,
,,001,2022-04-28_20h07.39.558,classification_task,2021.2.3,Win32,60.0240096,60d22bc88de159abc53b09ed,626b377229c10585ec392f8a,626b3a3bd2ec00a3a3c1f205,,,,,,,,,,,,,,,,,,,,,,,l,1,"[""0.053"",""0.433"",""0.172"",""0.823""]","[1,1,0,1]",0,24,24,24,1,1,1,,,1,FALSE,4.3992,,,,,,,,,,,,,,,,,,,,,,,,,,,,,,
,,001,2022-04-28_20h07.39.558,classification_task,2021.2.3,Win32,60.0240096,60d22bc88de159abc53b09ed,626b377229c10585ec392f8a,626b3a3bd2ec00a3a3c1f205,,,,,,,,,,,,,,,,,,,,,,,l,1,"[""0.478"",""0.433"",""0.572"",""0.823""]","[0,1,1,1]",0,25,25,25,1,1,1,,,1,FALSE,1.8651,,,,,,,,,,,,,,,,,,,,,,,,,,,,,,
,,001,2022-04-28_20h07.39.558,classification_task,2021.2.3,Win32,60.0240096,60d22bc88de159abc53b09ed,626b377229c10585ec392f8a,626b3a3bd2ec00a3a3c1f205,,,,,,,,,,,,,,,,,,,,,,,a,0,"[""0.053"",""0.433"",""0.572"",""0.285""]","[1,1,1,0]",0,26,26,26,1,1,1,,,1,FALSE,1.9308,,,,,,,,,,,,,,,,,,,,,,,,,,,,,,
,,001,2022-04-28_20h07.39.558,classification_task,2021.2.3,Win32,60.0240096,60d22bc88de159abc53b09ed,626b377229c10585ec392f8a,626b3a3bd2ec00a3a3c1f205,,,,,,,,,,,,,,,,,,,,,,,a,1,"[""0.325"",""0.362"",""0.255"",""0.913""]","[1,1,0,1]",0,27,27,27,1,0,1,,,1,FALSE,1.5507,,,,,,,,,,,,,,,,,,,,,,,,,,,,,,
,,001,2022-04-28_20h07.39.558,classification_task,2021.2.3,Win32,60.0240096,60d22bc88de159abc53b09ed,626b377229c10585ec392f8a,626b3a3bd2ec00a3a3c1f205,,,,,,,,,,,,,,,,,,,,,,,a,1,"[""0.325"",""0.788"",""0.878"",""0.913""]","[1,0,1,1]",0,28,28,28,1,0,1,,,1,FALSE,1.5527,,,,,,,,,,,,,,,,,,,,,,,,,,,,,,
,,001,2022-04-28_20h07.39.558,classification_task,2021.2.3,Win32,60.0240096,60d22bc88de159abc53b09ed,626b377229c10585ec392f8a,626b3a3bd2ec00a3a3c1f205,,,,,,,,,,,,,,,,,,,,,,,a,0,"[""0.119"",""0.398"",""0.781"",""0.686""]","[1,1,0,1]",0,29,29,29,1,1,0,,,1,FALSE,2.2815,,,,,,,,,,,,,,,,,,,,,,,,,,,,,,
,,001,2022-04-28_20h07.39.558,classification_task,2021.2.3,Win32,60.0240096,60d22bc88de159abc53b09ed,626b377229c10585ec392f8a,626b3a3bd2ec00a3a3c1f205,,,,,,,,,,,,,,,,,,,,,,,l,1,"[""0.119"",""0.771"",""0.651"",""0.686""]","[1,0,1,1]",0,30,30,30,1,1,0,,,1,FALSE,3.3551,,,,,,,,,,,,,,,,,,,,,,,,,,,,,,
,,001,2022-04-28_20h07.39.558,classification_task,2021.2.3,Win32,60.0240096,60d22bc88de159abc53b09ed,626b377229c10585ec392f8a,626b3a3bd2ec00a3a3c1f205,,,,,,,,,,,,,,,,,,,,,,,a,0,"[""0.167"",""0.398"",""0.651"",""0.686""]","[0,1,1,1]",0,31,31,31,1,1,0,,,1,FALSE,3.4507,,,,,,,,,,,,,,,,,,,,,,,,,,,,,,
,,001,2022-04-28_20h07.39.558,classification_task,2021.2.3,Win32,60.0240096,60d22bc88de159abc53b09ed,626b377229c10585ec392f8a,626b3a3bd2ec00a3a3c1f205,,,,,,,,,,,,,,,,,,,,,,,l,1,"[""0.053"",""0.433"",""0.255"",""0.823""]","[1,1,0,1]",0,32,32,32,1,1,1,,,1,FALSE,2.49,,,,,,,,,,,,,,,,,,,,,,,,,,,,,,
,,001,2022-04-28_20h07.39.558,classification_task,2021.2.3,Win32,60.0240096,60d22bc88de159abc53b09ed,626b377229c10585ec392f8a,626b3a3bd2ec00a3a3c1f205,,,,,,,,,,,,,,,,,,,,,,,l,0,"[""0.211"",""0.517"",""0.478"",""0.947""]","[1,1,0,1]",0,33,33,33,1,0,0,,,1,FALSE,1.5325,,,,,,,,,,,,,,,,,,,,,,,,,,,,,,
,,001,2022-04-28_20h07.39.558,classification_task,2021.2.3,Win32,60.0240096,60d22bc88de159abc53b09ed,626b377229c10585ec392f8a,626b3a3bd2ec00a3a3c1f205,,,,,,,,,,,,,,,,,,,,,,,l,0,"[""0.270"",""0.517"",""0.733"",""0.947""]","[0,1,1,1]",0,34,34,34,1,0,0,,,1,FALSE,3.0128,,,,,,,,,,,,,,,,,,,,,,,,,,,,,,
,,001,2022-04-28_20h07.39.558,classification_task,2021.2.3,Win32,60.0240096,60d22bc88de159abc53b09ed,626b377229c10585ec392f8a,626b3a3bd2ec00a3a3c1f205,,,,,,,,,,,,,,,,,,,,,,,a,1,"[""0.211"",""0.766"",""0.733"",""0.947""]","[1,0,1,1]",0,35,35,35,1,0,0,,,1,FALSE,1.9489,,,,,,,,,,,,,,,,,,,,,,,,,,,,,,
,,001,2022-04-28_20h07.39.558,classification_task,2021.2.3,Win32,60.0240096,60d22bc88de159abc53b09ed,626b377229c10585ec392f8a,626b3a3bd2ec00a3a3c1f205,,,,,,,,,,,,,,,,,,,,,,,a,0,"[""0.119"",""0.398"",""0.771"",""0.686""]","[1,1,0,1]",0,36,36,36,1,1,0,,,1,FALSE,2.751,,,,,,,,,,,,,,,,,,,,,,,,,,,,,,
,,001,2022-04-28_20h07.39.558,classification_task,2021.2.3,Win32,60.0240096,60d22bc88de159abc53b09ed,626b377229c10585ec392f8a,626b3a3bd2ec00a3a3c1f205,,,,,,,,,,,,,,,,,,,,,,,l,1,"[""0.053"",""0.172"",""0.572"",""0.823""]","[1,0,1,1]",0,37,37,37,1,1,1,,,1,FALSE,1.8306,,,,,,,,,,,,,,,,,,,,,,,,,,,,,,
,,001,2022-04-28_20h07.39.558,classification_task,2021.2.3,Win32,60.0240096,60d22bc88de159abc53b09ed,626b377229c10585ec392f8a,626b3a3bd2ec00a3a3c1f205,,,,,,,,,,,,,,,,,,,,,,,l,1,"[""0.766"",""0.433"",""0.572"",""0.823""]","[0,1,1,1]",0,38,38,38,1,1,1,,,1,FALSE,2.2601,,,,,,,,,,,,,,,,,,,,,,,,,,,,,,
,,001,2022-04-28_20h07.39.558,classification_task,2021.2.3,Win32,60.0240096,60d22bc88de159abc53b09ed,626b377229c10585ec392f8a,626b3a3bd2ec00a3a3c1f205,,,,,,,,,,,,,,,,,,,,,,,a,1,"[""0.255"",""0.362"",""0.878"",""0.913""]","[0,1,1,1]",0,39,39,39,1,0,1,,,1,FALSE,1.5504,,,,,,,,,,,,,,,,,,,,,,,,,,,,,,
,,001,2022-04-28_20h07.39.558,classification_task,2021.2.3,Win32,60.0240096,60d22bc88de159abc53b09ed,626b377229c10585ec392f8a,626b3a3bd2ec00a3a3c1f205,,,,,,,,,,,,,,,,,,,,,,,l,1,"[""0.119"",""0.398"",""0.651"",""0.167""]","[1,1,1,0]",0,40,40,40,1,1,0,,,1,FALSE,1.9186,,,,,,,,,,,,,,,,,,,,,,,,,,,,,,
,,001,2022-04-28_20h07.39.558,classification_task,2021.2.3,Win32,60.0240096,60d22bc88de159abc53b09ed,626b377229c10585ec392f8a,626b3a3bd2ec00a3a3c1f205,,,,,,,,,,,,,,,,,,,,,,,l,1,"[""0.255"",""0.398"",""0.651"",""0.686""]","[0,1,1,1]",0,41,41,41,1,1,0,,,1,FALSE,3.6779,,,,,,,,,,,,,,,,,,,,,,,,,,,,,,
,,001,2022-04-28_20h07.39.558,classification_task,2021.2.3,Win32,60.0240096,60d22bc88de159abc53b09ed,626b377229c10585ec392f8a,626b3a3bd2ec00a3a3c1f205,,,,,,,,,,,,,,,,,,,,,,,l,1,"[""0.053"",""0.433"",""0.572"",""0.255""]","[1,1,1,0]",0,42,42,42,1,1,1,,,1,FALSE,2.9651,,,,,,,,,,,,,,,,,,,,,,,,,,,,,,
,,001,2022-04-28_20h07.39.558,classification_task,2021.2.3,Win32,60.0240096,60d22bc88de159abc53b09ed,626b377229c10585ec392f8a,626b3a3bd2ec00a3a3c1f205,,,,,,,,,,,,,,,,,,,,,,,a,1,"[""0.325"",""0.362"",""0.790"",""0.913""]","[1,1,0,1]",0,43,43,43,1,0,1,,,1,FALSE,2.577,,,,,,,,,,,,,,,,,,,,,,,,,,,,,,
,,001,2022-04-28_20h07.39.558,classification_task,2021.2.3,Win32,60.0240096,60d22bc88de159abc53b09ed,626b377229c10585ec392f8a,626b3a3bd2ec00a3a3c1f205,,,,,,,,,,,,,,,,,,,,,,,l,1,"[""0.119"",""0.766"",""0.651"",""0.686""]","[1,0,1,1]",0,44,44,44,1,1,0,,,1,FALSE,2.5463,,,,,,,,,,,,,,,,,,,,,,,,,,,,,,
,,001,2022-04-28_20h07.39.558,classification_task,2021.2.3,Win32,60.0240096,60d22bc88de159abc53b09ed,626b377229c10585ec392f8a,626b3a3bd2ec00a3a3c1f205,,,,,,,,,,,,,,,,,,,,,,,a,1,"[""0.211"",""0.517"",""0.733"",""0.270""]","[1,1,1,0]",0,45,45,45,1,0,0,,,1,FALSE,3.8712,,,,,,,,,,,,,,,,,,,,,,,,,,,,,,
,,001,2022-04-28_20h07.39.558,classification_task,2021.2.3,Win32,60.0240096,60d22bc88de159abc53b09ed,626b377229c10585ec392f8a,626b3a3bd2ec00a3a3c1f205,,,,,,,,,,,,,,,,,,,,,,,a,1,"[""0.325"",""0.362"",""0.878"",""0.270""]","[1,1,1,0]",0,46,46,46,1,0,1,,,1,FALSE,0.9607,,,,,,,,,,,,,,,,,,,,,,,,,,,,,,
,,001,2022-04-28_20h07.39.558,classification_task,2021.2.3,Win32,60.0240096,60d22bc88de159abc53b09ed,626b377229c10585ec392f8a,626b3a3bd2ec00a3a3c1f205,,,,,,,,,,,,,,,,,,,,,,,a,1,"[""0.325"",""0.255"",""0.878"",""0.913""]","[1,0,1,1]",0,47,47,47,1,0,1,,,1,FALSE,1.1334,,,,,,,,,,,,,,,,,,,,,,,,,,,,,,
,,001,2022-04-28_20h07.39.558,classification_task,2021.2.3,Win32,60.0240096,60d22bc88de159abc53b09ed,626b377229c10585ec392f8a,626b3a3bd2ec00a3a3c1f205,,,,,,,,,,,,,,,,,,,,,,,a,1,"[""0.325"",""0.362"",""0.788"",""0.913""]","[1,1,0,1]",0,48,48,48,1,0,1,,,1,FALSE,1.6516,,,,,,,,,,,,,,,,,,,,,,,,,,,,,,
,,001,2022-04-28_20h07.39.558,classification_task,2021.2.3,Win32,60.0240096,60d22bc88de159abc53b09ed,626b377229c10585ec392f8a,626b3a3bd2ec00a3a3c1f205,,,,,,,,,,,,,,,,,,,,,,,a,0,"[""0.270"",""0.398"",""0.651"",""0.686""]","[0,1,1,1]",0,49,49,49,1,1,0,,,1,FALSE,2.2132,,,,,,,,,,,,,,,,,,,,,,,,,,,,,,
,,001,2022-04-28_20h07.39.558,classification_task,2021.2.3,Win32,60.0240096,60d22bc88de159abc53b09ed,626b377229c10585ec392f8a,626b3a3bd2ec00a3a3c1f205,,,,,,,,,,,,,,,,,,,,,,,l,1,"[""0.053"",""0.433"",""0.572"",""0.270""]","[1,1,1,0]",0,50,50,50,1,1,1,,,1,FALSE,2.0823,,,,,,,,,,,,,,,,,,,,,,,,,,,,,,
,,001,2022-04-28_20h07.39.558,classification_task,2021.2.3,Win32,60.0240096,60d22bc88de159abc53b09ed,626b377229c10585ec392f8a,626b3a3bd2ec00a3a3c1f205,,,,,,,,,,,,,,,,,,,,,,,l,0,"[""0.771"",""0.517"",""0.733"",""0.947""]","[0,1,1,1]",0,51,51,51,1,0,0,,,1,FALSE,1.3822,,,,,,,,,,,,,,,,,,,,,,,,,,,,,,
,,001,2022-04-28_20h07.39.558,classification_task,2021.2.3,Win32,60.0240096,60d22bc88de159abc53b09ed,626b377229c10585ec392f8a,626b3a3bd2ec00a3a3c1f205,,,,,,,,,,,,,,,,,,,,,,,l,1,"[""0.119"",""0.398"",""0.651"",""0.172""]","[1,1,1,0]",0,52,52,52,1,1,0,,,1,FALSE,1.5911,,,,,,,,,,,,,,,,,,,,,,,,,,,,,,
,,001,2022-04-28_20h07.39.558,classification_task,2021.2.3,Win32,60.0240096,60d22bc88de159abc53b09ed,626b377229c10585ec392f8a,626b3a3bd2ec00a3a3c1f205,,,,,,,,,,,,,,,,,,,,,,,l,1,"[""0.255"",""0.433"",""0.572"",""0.823""]","[0,1,1,1]",0,53,53,53,1,1,1,,,1,FALSE,2.7964,,,,,,,,,,,,,,,,,,,,,,,,,,,,,,
,,001,2022-04-28_20h07.39.558,classification_task,2021.2.3,Win32,60.0240096,60d22bc88de159abc53b09ed,626b377229c10585ec392f8a,626b3a3bd2ec00a3a3c1f205,,,,,,,,,,,,,,,,,,,,,,,a,1,"[""0.211"",""0.781"",""0.733"",""0.947""]","[1,0,1,1]",0,54,54,54,1,0,0,,,1,FALSE,1.3823,,,,,,,,,,,,,,,,,,,,,,,,,,,,,,
,,001,2022-04-28_20h07.39.558,classification_task,2021.2.3,Win32,60.0240096,60d22bc88de159abc53b09ed,626b377229c10585ec392f8a,626b3a3bd2ec00a3a3c1f205,,,,,,,,,,,,,,,,,,,,,,,l,0,"[""0.211"",""0.517"",""0.478"",""0.947""]","[1,1,0,1]",0,55,55,55,1,0,0,,,1,FALSE,2.6143,,,,,,,,,,,,,,,,,,,,,,,,,,,,,,
,,001,2022-04-28_20h07.39.558,classification_task,2021.2.3,Win32,60.0240096,60d22bc88de159abc53b09ed,626b377229c10585ec392f8a,626b3a3bd2ec00a3a3c1f205,,,,,,,,,,,,,,,,,,,,,,,a,1,"[""0.325"",""0.362"",""0.878"",""0.172""]","[1,1,1,0]",0,56,56,56,1,0,1,,,1,FALSE,1.6473,,,,,,,,,,,,,,,,,,,,,,,,,,,,,,
,,001,2022-04-28_20h07.39.558,classification_task,2021.2.3,Win32,60.0240096,60d22bc88de159abc53b09ed,626b377229c10585ec392f8a,626b3a3bd2ec00a3a3c1f205,,,,,,,,,,,,,,,,,,,,,,,l,1,"[""0.119"",""0.398"",""0.255"",""0.686""]","[1,1,0,1]",0,57,57,57,1,1,0,,,1,FALSE,2.3684,,,,,,,,,,,,,,,,,,,,,,,,,,,,,,
,,001,2022-04-28_20h07.39.558,classification_task,2021.2.3,Win32,60.0240096,60d22bc88de159abc53b09ed,626b377229c10585ec392f8a,626b3a3bd2ec00a3a3c1f205,,,,,,,,,,,,,,,,,,,,,,,l,0,"[""0.211"",""0.517"",""0.733"",""0.771""]","[1,1,1,0]",0,58,58,58,1,0,0,,,1,FALSE,2.3005,,,,,,,,,,,,,,,,,,,,,,,,,,,,,,
,,001,2022-04-28_20h07.39.558,classification_task,2021.2.3,Win32,60.0240096,60d22bc88de159abc53b09ed,626b377229c10585ec392f8a,626b3a3bd2ec00a3a3c1f205,,,,,,,,,,,,,,,,,,,,,,,a,1,"[""0.255"",""0.362"",""0.878"",""0.913""]","[0,1,1,1]",0,59,59,59,1,0,1,,,1,FALSE,2.6983,,,,,,,,,,,,,,,,,,,,,,,,,,,,,,
,,001,2022-04-28_20h07.39.558,classification_task,2021.2.3,Win32,60.0240096,60d22bc88de159abc53b09ed,626b377229c10585ec392f8a,626b3a3bd2ec00a3a3c1f205,,,,,,,,,,,,,,,,,,,,,,,l,1,"[""0.053"",""0.766"",""0.572"",""0.823""]","[1,0,1,1]",0,60,60,60,1,1,1,,,1,FALSE,2.3351,,,,,,,,,,,,,,,,,,,,,,,,,,,,,,
,,001,2022-04-28_20h07.39.558,classification_task,2021.2.3,Win32,60.0240096,60d22bc88de159abc53b09ed,626b377229c10585ec392f8a,626b3a3bd2ec00a3a3c1f205,,,,,,,,,,,,,,,,,,,,,,,a,1,"[""0.325"",""0.255"",""0.878"",""0.913""]","[1,0,1,1]",0,61,61,61,1,0,1,,,1,FALSE,1.7207,,,,,,,,,,,,,,,,,,,,,,,,,,,,,,
,,001,2022-04-28_20h07.39.558,classification_task,2021.2.3,Win32,60.0240096,60d22bc88de159abc53b09ed,626b377229c10585ec392f8a,626b3a3bd2ec00a3a3c1f205,,,,,,,,,,,,,,,,,,,,,,,l,1,"[""0.053"",""0.433"",""0.291"",""0.823""]","[1,1,0,1]",0,62,62,62,1,1,1,,,1,FALSE,2.5846,,,,,,,,,,,,,,,,,,,,,,,,,,,,,,
,,001,2022-04-28_20h07.39.558,classification_task,2021.2.3,Win32,60.0240096,60d22bc88de159abc53b09ed,626b377229c10585ec392f8a,626b3a3bd2ec00a3a3c1f205,,,,,,,,,,,,,,,,,,,,,,,l,1,"[""0.119"",""0.167"",""0.651"",""0.686""]","[1,0,1,1]",0,63,63,63,1,1,0,,,1,FALSE,3.3375,,,,,,,,,,,,,,,,,,,,,,,,,,,,,,
,,001,2022-04-28_20h07.39.558,classification_task,2021.2.3,Win32,60.0240096,60d22bc88de159abc53b09ed,626b377229c10585ec392f8a,626b3a3bd2ec00a3a3c1f205,,,,,,,,,,,,,,,,,,,,,,,,,,,,,,,,,,,,,,,0, ,,0,7.464109524,245.4536,0,2,2,2,1,2,3,,,,,,,,,,,,,,,,,
,,001,2022-04-28_20h07.39.558,classification_task,2021.2.3,Win32,60.0240096,60d22bc88de159abc53b09ed,626b377229c10585ec392f8a,626b3a3bd2ec00a3a3c1f205,,,,,,,,,,,,,,,,,,,,,,,,,,,,,,,,,,,,,,,1,  ,,0,4.623197651,286.8121,0,2,2,2,1,2,3,,,,,,,,,,,,,,,,,
,,001,2022-04-28_20h07.39.558,classification_task,2021.2.3,Win32,60.0240096,60d22bc88de159abc53b09ed,626b377229c10585ec392f8a,626b3a3bd2ec00a3a3c1f205,,,,,,,,,,,,,,,,,,,,,,,,,,,,,,,,,,,,,,,2,  ,,0,2.198627108,297.9922,0,2,2,2,1,2,3,,,,,,,,,,,,,,,,,
,,001,2022-04-28_20h07.39.558,classification_task,2021.2.3,Win32,60.0240096,60d22bc88de159abc53b09ed,626b377229c10585ec392f8a,626b3a3bd2ec00a3a3c1f205,,,,,,,,,,,,,,,,,,,,,,,,,,,,,,,,,,,,,,,,,,,,,0,2,2,2,1,,3,,,,,,,,,,,,,,,,,
,,001,2022-04-28_20h07.39.558,classification_task,2021.2.3,Win32,60.0240096,60d22bc88de159abc53b09ed,626b377229c10585ec392f8a,626b3a3bd2ec00a3a3c1f205,,,,,,,,,,,,,,,,,,,,,,,,,,,,,,,,,,,,,,,,,,,,,,,,,,,,,I believe the aid is a competent performer,,0.7,0,2,1381.8288,0,0,0,0,1,0,,,,
,,001,2022-04-28_20h07.39.558,classification_task,2021.2.3,Win32,60.0240096,60d22bc88de159abc53b09ed,626b377229c10585ec392f8a,626b3a3bd2ec00a3a3c1f205,,,,,,,,,,,,,,,,,,,,,,,,,,,,,,,,,,,,,,,,,,,,,,,,,,,,,I trust the aid,,0.7,0,4,1384.7422,0,0,0,0,1,0,,,,
,,001,2022-04-28_20h07.39.558,classification_task,2021.2.3,Win32,60.0240096,60d22bc88de159abc53b09ed,626b377229c10585ec392f8a,626b3a3bd2ec00a3a3c1f205,,,,,,,,,,,,,,,,,,,,,,,,,,,,,,,,,,,,,,,,,,,,,,,,,,,,,I have confidence in the advice given by the aid,,0.7,0,4,1388.038,0,0,0,0,1,0,,,,
,,001,2022-04-28_20h07.39.558,classification_task,2021.2.3,Win32,60.0240096,60d22bc88de159abc53b09ed,626b377229c10585ec392f8a,626b3a3bd2ec00a3a3c1f205,,,,,,,,,,,,,,,,,,,,,,,,,,,,,,,,,,,,,,,,,,,,,,,,,,,,,I can depend on the aid,,0.7,0,3,1393.2742,0,0,0,0,1,0,,,,
,,001,2022-04-28_20h07.39.558,classification_task,2021.2.3,Win32,60.0240096,60d22bc88de159abc53b09ed,626b377229c10585ec392f8a,626b3a3bd2ec00a3a3c1f205,,,,,,,,,,,,,,,,,,,,,,,,,,,,,,,,,,,,,,,,,,,,,,,,,,,,,I can rely on the aid to behave in consistent ways,,0.7,0,4,1400.5331,0,0,0,0,1,0,,,,
,,001,2022-04-28_20h07.39.558,classification_task,2021.2.3,Win32,60.0240096,60d22bc88de159abc53b09ed,626b377229c10585ec392f8a,626b3a3bd2ec00a3a3c1f205,,,,,,,,,,,,,,,,,,,,,,,,,,,,,,,,,,,,,,,,,,,,,,,,,,,,,I can rely on the aid to do its best every time I take its advice,,0.7,0,4,1405.1496,0,0,0,0,1,0,,,,
,,001,2022-04-28_20h07.39.558,classification_task,2021.2.3,Win32,60.0240096,60d22bc88de159abc53b09ed,626b377229c10585ec392f8a,626b3a3bd2ec00a3a3c1f205,,,,,,,,,,,,,,,,,,,,,,,,,,,,,,,,,,,,,,,,,,,,,,,,,,,,,"On trials you completed with assistance from the aid, how frequently did you think the aid was correct?",,0.7,0,80%,,0,0,0,0,1,0,,,,
,,001,2022-04-28_20h07.39.558,classification_task,2021.2.3,Win32,60.0240096,60d22bc88de159abc53b09ed,626b377229c10585ec392f8a,626b3a3bd2ec00a3a3c1f205,,,,,,,,,,,,,,,,,,,,,,,,,,,,,,,,,,,,,,,,,,,,,,,,,,,,,"On trials you completed without the aid, how frequently did you think you were correct?",,0.7,0,40%,,0,0,0,0,1,0,,,,
,,001,2022-04-28_20h07.39.558,classification_task,2021.2.3,Win32,60.0240096,60d22bc88de159abc53b09ed,626b377229c10585ec392f8a,626b3a3bd2ec00a3a3c1f205,,,,,,,,,,,,,,,,,,,,,,,,,,,,,,,,,,,,,,,,,,,,,,,,,,,,,,,,,,,0,0,0,0,1,,,,,
,,001,2022-04-28_20h07.39.558,classification_task,2021.2.3,Win32,60.0240096,60d22bc88de159abc53b09ed,626b377229c10585ec392f8a,626b3a3bd2ec00a3a3c1f205,,,,,,,,,,,,,,,,,,,,,,,,,,,,,,,,,,,,,,,,,,,,,,,,,,,,,,,,,,,,,,,,,space,14.5186,1460.5083,
,,001,2022-04-28_20h07.39.558,classification_task,2021.2.3,Win32,60.0240096,60d22bc88de159abc53b09ed,626b377229c10585ec392f8a,626b3a3bd2ec00a3a3c1f205,,,,,,,,,,,,,,,,,,,,,,,,,,,,,,,,,,,,,,,,,,,,,,,,,,,,,,,,,,,,,,,,,,,,"Mozilla/5.0 (Windows NT 10.0; Win64; x64) AppleWebKit/537.36 (KHTML, like Gecko) Chrome/99.0.4844.84 Safari/537.36 OPR/85.0.4341.75"
