usingWebGL,participant,session,date,expName,psychopyVersion,OS,frameRate,PROLIFIC_PID,STUDY_ID,SESSION_ID,signatures_friend,signatures_foe,band_ranges_top,band_ranges_bottom,formitemText,formtype,formundefined,formitemWidth,formindex,formresponse,formrt,key_resp_2.keys,key_resp_2.rt,tute_resp.keys,tute_resp.rt,tutorial.thisRepN,tutorial.thisTrialN,tutorial.thisN,tutorial.thisIndex,tutorial.ran,key_resp_4.keys,key_resp_4.rt,key_resp.keys,key_resp.corr,key_resp.rt,lines_presented,is_signal_presented,trials.thisRepN,trials.thisTrialN,trials.thisN,trials.thisIndex,trials.ran,vessel,active_band,lines,is_signal,supported_pos,catch_trial,debrief_formindex,debrief_formitemText,debrief_formtype,debrief_formitemWidth,debrief_formresponse,debrief_formrt,phases.thisRepN,phases.thisTrialN,phases.thisN,phases.thisIndex,phases.ran,phases.order,phase,key_resp_3.keys,trustitemText,trusttype,trustitemWidth,trustindex,trustresponse,trustrt,support_status.thisRepN,support_status.thisTrialN,support_status.thisN,support_status.thisIndex,support_status.ran,support_status.order,key_resp_5.keys,key_resp_5.rt,globalClockTime,userAgent
TRUE,,001,2022-04-29_03h10.49.017,classification_task,2021.2.3,Win32,57.89047123,5edc3d681a69d49159555f91,626b377229c10585ec392f8a,626b3ae5ebcb71ef549e6468,,,,,,,,,,,,,,,,,,,,,,,,,,,,,,,,,,,,,,,,,,,,,,,,,,,,,,,,,,,,,,,,,,,,
,,001,2022-04-29_03h10.49.017,classification_task,2021.2.3,Win32,57.89047123,5edc3d681a69d49159555f91,626b377229c10585ec392f8a,626b3ae5ebcb71ef549e6468,"[[""0.214"",""0.466"",""0.600"",""0.973""],[""0.312"",""0.561"",""0.780"",""0.920""]]","[[""0.140"",""0.364"",""0.642"",""0.699""],[""0.035"",""0.409"",""0.522"",""0.746""]]","[1,10]","[100,1000]",Video game experience,,,0.7,0,,,,,,,,,,,,,,,,,,,,,,,,,,,,,,,,,,,,,,,,,,,,,,,,,,,,,,,,,,,
,,001,2022-04-29_03h10.49.017,classification_task,2021.2.3,Win32,57.89047123,5edc3d681a69d49159555f91,626b377229c10585ec392f8a,626b3ae5ebcb71ef549e6468,,,,,Approximately how many hours did you spend playing video games in the last week?,,,0.7,0,10,,,,,,,,,,,,,,,,,,,,,,,,,,,,,,,,,,,,,,,,,,,,,,,,,,,,,,,,,,
,,001,2022-04-29_03h10.49.017,classification_task,2021.2.3,Win32,57.89047123,5edc3d681a69d49159555f91,626b377229c10585ec392f8a,626b3ae5ebcb71ef549e6468,,,,,"Which game did you play the most this year? (Enter ""None"" if you didn't play any)",,,0.7,0,Stardew Valley,,,,,,,,,,,,,,,,,,,,,,,,,,,,,,,,,,,,,,,,,,,,,,,,,,,,,,,,,,
,,001,2022-04-29_03h10.49.017,classification_task,2021.2.3,Win32,57.89047123,5edc3d681a69d49159555f91,626b377229c10585ec392f8a,626b3ae5ebcb71ef549e6468,,,,,Visual perception,,,0.7,0,,,,,,,,,,,,,,,,,,,,,,,,,,,,,,,,,,,,,,,,,,,,,,,,,,,,,,,,,,,
,,001,2022-04-29_03h10.49.017,classification_task,2021.2.3,Win32,57.89047123,5edc3d681a69d49159555f91,626b377229c10585ec392f8a,626b3ae5ebcb71ef549e6468,,,,,Do you have any form of color blindness?,,,0.7,0,No,29.1047,,,,,,,,,,,,,,,,,,,,,,,,,,,,,,,,,,,,,,,,,,,,,,,,,,,,,,,,,
,,001,2022-04-29_03h10.49.017,classification_task,2021.2.3,Win32,57.89047123,5edc3d681a69d49159555f91,626b377229c10585ec392f8a,626b3ae5ebcb71ef549e6468,,,,,Do you use software to change the colour temperature of your screen (e.g. f.lux)?,,,0.7,0,No,31.7418,,,,,,,,,,,,,,,,,,,,,,,,,,,,,,,,,,,,,,,,,,,,,,,,,,,,,,,,,
,,001,2022-04-29_03h10.49.017,classification_task,2021.2.3,Win32,57.89047123,5edc3d681a69d49159555f91,626b377229c10585ec392f8a,626b3ae5ebcb71ef549e6468,,,,,,,,,,,,space,31.7316,space,8.7394,0,0,0,0,1,,,,,,,,,,,,,,,,,,,,,,,,,,,,,,,,,,,,,,,,,,,,,,,,
,,001,2022-04-29_03h10.49.017,classification_task,2021.2.3,Win32,57.89047123,5edc3d681a69d49159555f91,626b377229c10585ec392f8a,626b3ae5ebcb71ef549e6468,,,,,,,,,,,,,,space,6.2782,1,0,1,0,1,,,,,,,,,,,,,,,,,,,,,,,,,,,,,,,,,,,,,,,,,,,,,,,,
,,001,2022-04-29_03h10.49.017,classification_task,2021.2.3,Win32,57.89047123,5edc3d681a69d49159555f91,626b377229c10585ec392f8a,626b3ae5ebcb71ef549e6468,,,,,,,,,,,,,,space,32.3612,2,0,2,0,1,,,,,,,,,,,,,,,,,,,,,,,,,,,,,,,,,,,,,,,,,,,,,,,,
,,001,2022-04-29_03h10.49.017,classification_task,2021.2.3,Win32,57.89047123,5edc3d681a69d49159555f91,626b377229c10585ec392f8a,626b3ae5ebcb71ef549e6468,,,,,,,,,,,,,,space,3.9338,3,0,3,0,1,,,,,,,,,,,,,,,,,,,,,,,,,,,,,,,,,,,,,,,,,,,,,,,,
,,001,2022-04-29_03h10.49.017,classification_task,2021.2.3,Win32,57.89047123,5edc3d681a69d49159555f91,626b377229c10585ec392f8a,626b3ae5ebcb71ef549e6468,,,,,,,,,,,,,,space,17.2297,4,0,4,0,1,,,,,,,,,,,,,,,,,,,,,,,,,,,,,,,,,,,,,,,,,,,,,,,,
,,001,2022-04-29_03h10.49.017,classification_task,2021.2.3,Win32,57.89047123,5edc3d681a69d49159555f91,626b377229c10585ec392f8a,626b3ae5ebcb71ef549e6468,,,,,,,,,,,,,,,,,,,,,space,22.3871,l,1,6.782,"[""0.264"",""0.364"",""0.642"",""0.699""]","[0,1,1,1]",0,0,0,0,1,1,0,,,1,FALSE,,,,,,,,,,,,,,,,,,,,,,,,,,,,,,
,,001,2022-04-29_03h10.49.017,classification_task,2021.2.3,Win32,57.89047123,5edc3d681a69d49159555f91,626b377229c10585ec392f8a,626b3ae5ebcb71ef549e6468,,,,,,,,,,,,,,,,,,,,,,,l,1,4.1834,"[""0.140"",""0.828"",""0.642"",""0.699""]","[1,0,1,1]",0,1,1,1,1,1,0,,,1,FALSE,,,,,,,,,,,,,,,,,,,,,,,,,,,,,,
,,001,2022-04-29_03h10.49.017,classification_task,2021.2.3,Win32,57.89047123,5edc3d681a69d49159555f91,626b377229c10585ec392f8a,626b3ae5ebcb71ef549e6468,,,,,,,,,,,,,,,,,,,,,,,a,1,4.3223,"[""0.312"",""0.854"",""0.780"",""0.920""]","[1,0,1,1]",0,2,2,2,1,0,1,,,1,FALSE,,,,,,,,,,,,,,,,,,,,,,,,,,,,,,
,,001,2022-04-29_03h10.49.017,classification_task,2021.2.3,Win32,57.89047123,5edc3d681a69d49159555f91,626b377229c10585ec392f8a,626b3ae5ebcb71ef549e6468,,,,,,,,,,,,,,,,,,,,,,,a,1,2.5909,"[""0.214"",""0.857"",""0.600"",""0.973""]","[1,0,1,1]",0,3,3,3,1,0,0,,,1,FALSE,,,,,,,,,,,,,,,,,,,,,,,,,,,,,,
,,001,2022-04-29_03h10.49.017,classification_task,2021.2.3,Win32,57.89047123,5edc3d681a69d49159555f91,626b377229c10585ec392f8a,626b3ae5ebcb71ef549e6468,,,,,,,,,,,,,,,,,,,,,,,l,1,4.4789,"[""0.140"",""0.364"",""0.099"",""0.699""]","[1,1,0,1]",0,4,4,4,1,1,0,,,1,FALSE,,,,,,,,,,,,,,,,,,,,,,,,,,,,,,
,,001,2022-04-29_03h10.49.017,classification_task,2021.2.3,Win32,57.89047123,5edc3d681a69d49159555f91,626b377229c10585ec392f8a,626b3ae5ebcb71ef549e6468,,,,,,,,,,,,,,,,,,,,,,,a,0,4.6732,"[""0.035"",""0.854"",""0.522"",""0.746""]","[1,0,1,1]",0,5,5,5,1,1,1,,,1,FALSE,,,,,,,,,,,,,,,,,,,,,,,,,,,,,,
,,001,2022-04-29_03h10.49.017,classification_task,2021.2.3,Win32,57.89047123,5edc3d681a69d49159555f91,626b377229c10585ec392f8a,626b3ae5ebcb71ef549e6468,,,,,,,,,,,,,,,,,,,,,,,l,1,4.0723,"[""0.140"",""0.364"",""0.642"",""0.857""]","[1,1,1,0]",0,6,6,6,1,1,0,,,1,FALSE,,,,,,,,,,,,,,,,,,,,,,,,,,,,,,
,,001,2022-04-29_03h10.49.017,classification_task,2021.2.3,Win32,57.89047123,5edc3d681a69d49159555f91,626b377229c10585ec392f8a,626b3ae5ebcb71ef549e6468,,,,,,,,,,,,,,,,,,,,,,,a,1,2.4925,"[""0.863"",""0.561"",""0.780"",""0.920""]","[0,1,1,1]",0,7,7,7,1,0,1,,,1,FALSE,,,,,,,,,,,,,,,,,,,,,,,,,,,,,,
,,001,2022-04-29_03h10.49.017,classification_task,2021.2.3,Win32,57.89047123,5edc3d681a69d49159555f91,626b377229c10585ec392f8a,626b3ae5ebcb71ef549e6468,,,,,,,,,,,,,,,,,,,,,,,a,1,3.9327,"[""0.214"",""0.466"",""0.600"",""0.857""]","[1,1,1,0]",0,8,8,8,1,0,0,,,1,FALSE,,,,,,,,,,,,,,,,,,,,,,,,,,,,,,
,,001,2022-04-29_03h10.49.017,classification_task,2021.2.3,Win32,57.89047123,5edc3d681a69d49159555f91,626b377229c10585ec392f8a,626b3ae5ebcb71ef549e6468,,,,,,,,,,,,,,,,,,,,,,,a,0,1.9835,"[""0.035"",""0.409"",""0.828"",""0.746""]","[1,1,0,1]",0,9,9,9,1,1,1,,,1,FALSE,,,,,,,,,,,,,,,,,,,,,,,,,,,,,,
,,001,2022-04-29_03h10.49.017,classification_task,2021.2.3,Win32,57.89047123,5edc3d681a69d49159555f91,626b377229c10585ec392f8a,626b3ae5ebcb71ef549e6468,,,,,,,,,,,,,,,,,,,,,,,l,1,2.6835,"[""0.840"",""0.409"",""0.522"",""0.746""]","[0,1,1,1]",0,10,10,10,1,1,1,,,1,FALSE,,,,,,,,,,,,,,,,,,,,,,,,,,,,,,
,,001,2022-04-29_03h10.49.017,classification_task,2021.2.3,Win32,57.89047123,5edc3d681a69d49159555f91,626b377229c10585ec392f8a,626b3ae5ebcb71ef549e6468,,,,,,,,,,,,,,,,,,,,,,,a,1,2.1132,"[""0.214"",""0.466"",""0.857"",""0.973""]","[1,1,0,1]",0,11,11,11,1,0,0,,,1,FALSE,,,,,,,,,,,,,,,,,,,,,,,,,,,,,,
,,001,2022-04-29_03h10.49.017,classification_task,2021.2.3,Win32,57.89047123,5edc3d681a69d49159555f91,626b377229c10585ec392f8a,626b3ae5ebcb71ef549e6468,,,,,,,,,,,,,,,,,,,,,,,l,1,3.3372,"[""0.035"",""0.409"",""0.522"",""0.264""]","[1,1,1,0]",0,12,12,12,1,1,1,,,1,FALSE,,,,,,,,,,,,,,,,,,,,,,,,,,,,,,
,,001,2022-04-29_03h10.49.017,classification_task,2021.2.3,Win32,57.89047123,5edc3d681a69d49159555f91,626b377229c10585ec392f8a,626b3ae5ebcb71ef549e6468,,,,,,,,,,,,,,,,,,,,,,,a,1,2.0276,"[""0.267"",""0.466"",""0.600"",""0.973""]","[0,1,1,1]",0,13,13,13,1,0,0,,,1,FALSE,,,,,,,,,,,,,,,,,,,,,,,,,,,,,,
,,001,2022-04-29_03h10.49.017,classification_task,2021.2.3,Win32,57.89047123,5edc3d681a69d49159555f91,626b377229c10585ec392f8a,626b3ae5ebcb71ef549e6468,,,,,,,,,,,,,,,,,,,,,,,a,1,3.4392,"[""0.312"",""0.561"",""0.264"",""0.920""]","[1,1,0,1]",0,14,14,14,1,0,1,,,1,FALSE,,,,,,,,,,,,,,,,,,,,,,,,,,,,,,
,,001,2022-04-29_03h10.49.017,classification_task,2021.2.3,Win32,57.89047123,5edc3d681a69d49159555f91,626b377229c10585ec392f8a,626b3ae5ebcb71ef549e6468,,,,,,,,,,,,,,,,,,,,,,,a,1,2.9846,"[""0.312"",""0.561"",""0.780"",""0.267""]","[1,1,1,0]",0,15,15,15,1,0,1,,,1,FALSE,,,,,,,,,,,,,,,,,,,,,,,,,,,,,,
,,001,2022-04-29_03h10.49.017,classification_task,2021.2.3,Win32,57.89047123,5edc3d681a69d49159555f91,626b377229c10585ec392f8a,626b3ae5ebcb71ef549e6468,,,,,,,,,,,,,,,,,,,,,,,a,1,3.8719,"[""0.214"",""0.466"",""0.600"",""0.084""]","[1,1,1,0]",0,16,16,16,1,0,0,,,1,FALSE,,,,,,,,,,,,,,,,,,,,,,,,,,,,,,
,,001,2022-04-29_03h10.49.017,classification_task,2021.2.3,Win32,57.89047123,5edc3d681a69d49159555f91,626b377229c10585ec392f8a,626b3ae5ebcb71ef549e6468,,,,,,,,,,,,,,,,,,,,,,,a,1,1.7227,"[""0.214"",""0.466"",""0.854"",""0.973""]","[1,1,0,1]",0,17,17,17,1,0,0,,,1,FALSE,,,,,,,,,,,,,,,,,,,,,,,,,,,,,,
,,001,2022-04-29_03h10.49.017,classification_task,2021.2.3,Win32,57.89047123,5edc3d681a69d49159555f91,626b377229c10585ec392f8a,626b3ae5ebcb71ef549e6468,,,,,,,,,,,,,,,,,,,,,,,l,1,1.6008,"[""0.140"",""0.364"",""0.070"",""0.699""]","[1,1,0,1]",0,18,18,18,1,1,0,,,1,FALSE,,,,,,,,,,,,,,,,,,,,,,,,,,,,,,
,,001,2022-04-29_03h10.49.017,classification_task,2021.2.3,Win32,57.89047123,5edc3d681a69d49159555f91,626b377229c10585ec392f8a,626b3ae5ebcb71ef549e6468,,,,,,,,,,,,,,,,,,,,,,,l,1,1.8318,"[""0.035"",""0.264"",""0.522"",""0.746""]","[1,0,1,1]",0,19,19,19,1,1,1,,,1,FALSE,,,,,,,,,,,,,,,,,,,,,,,,,,,,,,
,,001,2022-04-29_03h10.49.017,classification_task,2021.2.3,Win32,57.89047123,5edc3d681a69d49159555f91,626b377229c10585ec392f8a,626b3ae5ebcb71ef549e6468,,,,,,,,,,,,,,,,,,,,,,,l,1,1.9075,"[""0.035"",""0.409"",""0.099"",""0.746""]","[1,1,0,1]",0,20,20,20,1,1,1,,,1,FALSE,,,,,,,,,,,,,,,,,,,,,,,,,,,,,,
,,001,2022-04-29_03h10.49.017,classification_task,2021.2.3,Win32,57.89047123,5edc3d681a69d49159555f91,626b377229c10585ec392f8a,626b3ae5ebcb71ef549e6468,,,,,,,,,,,,,,,,,,,,,,,a,1,1.4185,"[""0.312"",""0.857"",""0.780"",""0.920""]","[1,0,1,1]",0,21,21,21,1,0,1,,,1,FALSE,,,,,,,,,,,,,,,,,,,,,,,,,,,,,,
,,001,2022-04-29_03h10.49.017,classification_task,2021.2.3,Win32,57.89047123,5edc3d681a69d49159555f91,626b377229c10585ec392f8a,626b3ae5ebcb71ef549e6468,,,,,,,,,,,,,,,,,,,,,,,l,1,1.7064,"[""0.140"",""0.267"",""0.642"",""0.699""]","[1,0,1,1]",0,22,22,22,1,1,0,,,1,FALSE,,,,,,,,,,,,,,,,,,,,,,,,,,,,,,
,,001,2022-04-29_03h10.49.017,classification_task,2021.2.3,Win32,57.89047123,5edc3d681a69d49159555f91,626b377229c10585ec392f8a,626b3ae5ebcb71ef549e6468,,,,,,,,,,,,,,,,,,,,,,,a,0,3.7448,"[""0.035"",""0.409"",""0.522"",""0.099""]","[1,1,1,0]",0,23,23,23,1,1,1,,,1,FALSE,,,,,,,,,,,,,,,,,,,,,,,,,,,,,,
,,001,2022-04-29_03h10.49.017,classification_task,2021.2.3,Win32,57.89047123,5edc3d681a69d49159555f91,626b377229c10585ec392f8a,626b3ae5ebcb71ef549e6468,,,,,,,,,,,,,,,,,,,,,,,a,1,3.0087,"[""0.214"",""0.857"",""0.600"",""0.973""]","[1,0,1,1]",0,24,24,24,1,0,0,,,1,FALSE,,,,,,,,,,,,,,,,,,,,,,,,,,,,,,
,,001,2022-04-29_03h10.49.017,classification_task,2021.2.3,Win32,57.89047123,5edc3d681a69d49159555f91,626b377229c10585ec392f8a,626b3ae5ebcb71ef549e6468,,,,,,,,,,,,,,,,,,,,,,,a,1,2.0147,"[""0.857"",""0.561"",""0.780"",""0.920""]","[0,1,1,1]",0,25,25,25,1,0,1,,,1,FALSE,,,,,,,,,,,,,,,,,,,,,,,,,,,,,,
,,001,2022-04-29_03h10.49.017,classification_task,2021.2.3,Win32,57.89047123,5edc3d681a69d49159555f91,626b377229c10585ec392f8a,626b3ae5ebcb71ef549e6468,,,,,,,,,,,,,,,,,,,,,,,a,1,1.3296,"[""0.312"",""0.561"",""0.084"",""0.920""]","[1,1,0,1]",0,26,26,26,1,0,1,,,1,FALSE,,,,,,,,,,,,,,,,,,,,,,,,,,,,,,
,,001,2022-04-29_03h10.49.017,classification_task,2021.2.3,Win32,57.89047123,5edc3d681a69d49159555f91,626b377229c10585ec392f8a,626b3ae5ebcb71ef549e6468,,,,,,,,,,,,,,,,,,,,,,,a,0,1.8439,"[""0.140"",""0.364"",""0.642"",""0.857""]","[1,1,1,0]",0,27,27,27,1,1,0,,,1,FALSE,,,,,,,,,,,,,,,,,,,,,,,,,,,,,,
,,001,2022-04-29_03h10.49.017,classification_task,2021.2.3,Win32,57.89047123,5edc3d681a69d49159555f91,626b377229c10585ec392f8a,626b3ae5ebcb71ef549e6468,,,,,,,,,,,,,,,,,,,,,,,a,1,4.6097,"[""0.100"",""0.466"",""0.600"",""0.973""]","[0,1,1,1]",0,28,28,28,1,0,0,,,1,FALSE,,,,,,,,,,,,,,,,,,,,,,,,,,,,,,
,,001,2022-04-29_03h10.49.017,classification_task,2021.2.3,Win32,57.89047123,5edc3d681a69d49159555f91,626b377229c10585ec392f8a,626b3ae5ebcb71ef549e6468,,,,,,,,,,,,,,,,,,,,,,,l,1,3.5701,"[""0.178"",""0.364"",""0.642"",""0.699""]","[0,1,1,1]",0,29,29,29,1,1,0,,,1,FALSE,,,,,,,,,,,,,,,,,,,,,,,,,,,,,,
,,001,2022-04-29_03h10.49.017,classification_task,2021.2.3,Win32,57.89047123,5edc3d681a69d49159555f91,626b377229c10585ec392f8a,626b3ae5ebcb71ef549e6468,,,,,,,,,,,,,,,,,,,,,,,a,1,1.3491,"[""0.312"",""0.561"",""0.780"",""0.857""]","[1,1,1,0]",0,30,30,30,1,0,1,,,1,FALSE,,,,,,,,,,,,,,,,,,,,,,,,,,,,,,
,,001,2022-04-29_03h10.49.017,classification_task,2021.2.3,Win32,57.89047123,5edc3d681a69d49159555f91,626b377229c10585ec392f8a,626b3ae5ebcb71ef549e6468,,,,,,,,,,,,,,,,,,,,,,,l,1,2.2151,"[""0.267"",""0.409"",""0.522"",""0.746""]","[0,1,1,1]",0,31,31,31,1,1,1,,,1,FALSE,,,,,,,,,,,,,,,,,,,,,,,,,,,,,,
,,001,2022-04-29_03h10.49.017,classification_task,2021.2.3,Win32,57.89047123,5edc3d681a69d49159555f91,626b377229c10585ec392f8a,626b3ae5ebcb71ef549e6468,,,,,,,,,,,,,,,,,,,,,,,l,1,1.0166,"[""0.100"",""0.409"",""0.522"",""0.746""]","[0,1,1,1]",0,32,32,32,1,1,1,,,1,FALSE,,,,,,,,,,,,,,,,,,,,,,,,,,,,,,
,,001,2022-04-29_03h10.49.017,classification_task,2021.2.3,Win32,57.89047123,5edc3d681a69d49159555f91,626b377229c10585ec392f8a,626b3ae5ebcb71ef549e6468,,,,,,,,,,,,,,,,,,,,,,,l,1,6.4242,"[""0.842"",""0.364"",""0.642"",""0.699""]","[0,1,1,1]",0,33,33,33,1,1,0,,,1,FALSE,,,,,,,,,,,,,,,,,,,,,,,,,,,,,,
,,001,2022-04-29_03h10.49.017,classification_task,2021.2.3,Win32,57.89047123,5edc3d681a69d49159555f91,626b377229c10585ec392f8a,626b3ae5ebcb71ef549e6468,,,,,,,,,,,,,,,,,,,,,,,a,1,1.6621,"[""0.312"",""0.842"",""0.780"",""0.920""]","[1,0,1,1]",0,34,34,34,1,0,1,,,1,FALSE,,,,,,,,,,,,,,,,,,,,,,,,,,,,,,
,,001,2022-04-29_03h10.49.017,classification_task,2021.2.3,Win32,57.89047123,5edc3d681a69d49159555f91,626b377229c10585ec392f8a,626b3ae5ebcb71ef549e6468,,,,,,,,,,,,,,,,,,,,,,,l,1,2.5684,"[""0.035"",""0.409"",""0.100"",""0.746""]","[1,1,0,1]",0,35,35,35,1,1,1,,,1,FALSE,,,,,,,,,,,,,,,,,,,,,,,,,,,,,,
,,001,2022-04-29_03h10.49.017,classification_task,2021.2.3,Win32,57.89047123,5edc3d681a69d49159555f91,626b377229c10585ec392f8a,626b3ae5ebcb71ef549e6468,,,,,,,,,,,,,,,,,,,,,,,a,0,2.1624,"[""0.140"",""0.364"",""0.264"",""0.699""]","[1,1,0,1]",0,36,36,36,1,1,0,,,1,FALSE,,,,,,,,,,,,,,,,,,,,,,,,,,,,,,
,,001,2022-04-29_03h10.49.017,classification_task,2021.2.3,Win32,57.89047123,5edc3d681a69d49159555f91,626b377229c10585ec392f8a,626b3ae5ebcb71ef549e6468,,,,,,,,,,,,,,,,,,,,,,,a,1,1.2206,"[""0.854"",""0.561"",""0.780"",""0.920""]","[0,1,1,1]",0,37,37,37,1,0,1,,,1,FALSE,,,,,,,,,,,,,,,,,,,,,,,,,,,,,,
,,001,2022-04-29_03h10.49.017,classification_task,2021.2.3,Win32,57.89047123,5edc3d681a69d49159555f91,626b377229c10585ec392f8a,626b3ae5ebcb71ef549e6468,,,,,,,,,,,,,,,,,,,,,,,a,1,1.4197,"[""0.312"",""0.561"",""0.267"",""0.920""]","[1,1,0,1]",0,38,38,38,1,0,1,,,1,FALSE,,,,,,,,,,,,,,,,,,,,,,,,,,,,,,
,,001,2022-04-29_03h10.49.017,classification_task,2021.2.3,Win32,57.89047123,5edc3d681a69d49159555f91,626b377229c10585ec392f8a,626b3ae5ebcb71ef549e6468,,,,,,,,,,,,,,,,,,,,,,,l,1,1.3805,"[""0.035"",""0.264"",""0.522"",""0.746""]","[1,0,1,1]",0,39,39,39,1,1,1,,,1,FALSE,,,,,,,,,,,,,,,,,,,,,,,,,,,,,,
,,001,2022-04-29_03h10.49.017,classification_task,2021.2.3,Win32,57.89047123,5edc3d681a69d49159555f91,626b377229c10585ec392f8a,626b3ae5ebcb71ef549e6468,,,,,,,,,,,,,,,,,,,,,,,a,0,1.039,"[""0.035"",""0.409"",""0.522"",""0.084""]","[1,1,1,0]",0,40,40,40,1,1,1,,,1,FALSE,,,,,,,,,,,,,,,,,,,,,,,,,,,,,,
,,001,2022-04-29_03h10.49.017,classification_task,2021.2.3,Win32,57.89047123,5edc3d681a69d49159555f91,626b377229c10585ec392f8a,626b3ae5ebcb71ef549e6468,,,,,,,,,,,,,,,,,,,,,,,a,1,1.39,"[""0.214"",""0.466"",""0.099"",""0.973""]","[1,1,0,1]",0,41,41,41,1,0,0,,,1,FALSE,,,,,,,,,,,,,,,,,,,,,,,,,,,,,,
,,001,2022-04-29_03h10.49.017,classification_task,2021.2.3,Win32,57.89047123,5edc3d681a69d49159555f91,626b377229c10585ec392f8a,626b3ae5ebcb71ef549e6468,,,,,,,,,,,,,,,,,,,,,,,l,1,1.2212,"[""0.140"",""0.084"",""0.642"",""0.699""]","[1,0,1,1]",0,42,42,42,1,1,0,,,1,FALSE,,,,,,,,,,,,,,,,,,,,,,,,,,,,,,
,,001,2022-04-29_03h10.49.017,classification_task,2021.2.3,Win32,57.89047123,5edc3d681a69d49159555f91,626b377229c10585ec392f8a,626b3ae5ebcb71ef549e6468,,,,,,,,,,,,,,,,,,,,,,,l,0,1.2028,"[""0.214"",""0.840"",""0.600"",""0.973""]","[1,0,1,1]",0,43,43,43,1,0,0,,,1,FALSE,,,,,,,,,,,,,,,,,,,,,,,,,,,,,,
,,001,2022-04-29_03h10.49.017,classification_task,2021.2.3,Win32,57.89047123,5edc3d681a69d49159555f91,626b377229c10585ec392f8a,626b3ae5ebcb71ef549e6468,,,,,,,,,,,,,,,,,,,,,,,a,1,1.4856,"[""0.312"",""0.561"",""0.780"",""0.267""]","[1,1,1,0]",0,44,44,44,1,0,1,,,1,FALSE,,,,,,,,,,,,,,,,,,,,,,,,,,,,,,
,,001,2022-04-29_03h10.49.017,classification_task,2021.2.3,Win32,57.89047123,5edc3d681a69d49159555f91,626b377229c10585ec392f8a,626b3ae5ebcb71ef549e6468,,,,,,,,,,,,,,,,,,,,,,,a,1,1.4006,"[""0.214"",""0.466"",""0.600"",""0.070""]","[1,1,1,0]",0,45,45,45,1,0,0,,,1,FALSE,,,,,,,,,,,,,,,,,,,,,,,,,,,,,,
,,001,2022-04-29_03h10.49.017,classification_task,2021.2.3,Win32,57.89047123,5edc3d681a69d49159555f91,626b377229c10585ec392f8a,626b3ae5ebcb71ef549e6468,,,,,,,,,,,,,,,,,,,,,,,l,0,3.4669,"[""0.854"",""0.466"",""0.600"",""0.973""]","[0,1,1,1]",0,46,46,46,1,0,0,,,1,FALSE,,,,,,,,,,,,,,,,,,,,,,,,,,,,,,
,,001,2022-04-29_03h10.49.017,classification_task,2021.2.3,Win32,57.89047123,5edc3d681a69d49159555f91,626b377229c10585ec392f8a,626b3ae5ebcb71ef549e6468,,,,,,,,,,,,,,,,,,,,,,,a,0,1.5109,"[""0.140"",""0.364"",""0.642"",""0.178""]","[1,1,1,0]",0,47,47,47,1,1,0,,,1,FALSE,,,,,,,,,,,,,,,,,,,,,,,,,,,,,,
,,001,2022-04-29_03h10.49.017,classification_task,2021.2.3,Win32,57.89047123,5edc3d681a69d49159555f91,626b377229c10585ec392f8a,626b3ae5ebcb71ef549e6468,,,,,,,,,,,,,,,,,,,,,,,l,1,1.811,"[""0.262"",""0.364"",""0.642"",""0.699""]","[0,1,1,1]",0,48,48,48,1,1,0,,,1,FALSE,,,,,,,,,,,,,,,,,,,,,,,,,,,,,,
,,001,2022-04-29_03h10.49.017,classification_task,2021.2.3,Win32,57.89047123,5edc3d681a69d49159555f91,626b377229c10585ec392f8a,626b3ae5ebcb71ef549e6468,,,,,,,,,,,,,,,,,,,,,,,a,0,2.8433,"[""0.140"",""0.364"",""0.840"",""0.699""]","[1,1,0,1]",0,49,49,49,1,1,0,,,1,FALSE,,,,,,,,,,,,,,,,,,,,,,,,,,,,,,
,,001,2022-04-29_03h10.49.017,classification_task,2021.2.3,Win32,57.89047123,5edc3d681a69d49159555f91,626b377229c10585ec392f8a,626b3ae5ebcb71ef549e6468,,,,,,,,,,,,,,,,,,,,,,,a,1,1.093,"[""0.214"",""0.466"",""0.600"",""0.178""]","[1,1,1,0]",0,50,50,50,1,0,0,,,1,FALSE,,,,,,,,,,,,,,,,,,,,,,,,,,,,,,
,,001,2022-04-29_03h10.49.017,classification_task,2021.2.3,Win32,57.89047123,5edc3d681a69d49159555f91,626b377229c10585ec392f8a,626b3ae5ebcb71ef549e6468,,,,,,,,,,,,,,,,,,,,,,,a,1,0.7679,"[""0.099"",""0.466"",""0.600"",""0.973""]","[0,1,1,1]",0,51,51,51,1,0,0,,,1,FALSE,,,,,,,,,,,,,,,,,,,,,,,,,,,,,,
,,001,2022-04-29_03h10.49.017,classification_task,2021.2.3,Win32,57.89047123,5edc3d681a69d49159555f91,626b377229c10585ec392f8a,626b3ae5ebcb71ef549e6468,,,,,,,,,,,,,,,,,,,,,,,l,1,1.9986,"[""0.035"",""0.409"",""0.857"",""0.746""]","[1,1,0,1]",0,52,52,52,1,1,1,,,1,FALSE,,,,,,,,,,,,,,,,,,,,,,,,,,,,,,
,,001,2022-04-29_03h10.49.017,classification_task,2021.2.3,Win32,57.89047123,5edc3d681a69d49159555f91,626b377229c10585ec392f8a,626b3ae5ebcb71ef549e6468,,,,,,,,,,,,,,,,,,,,,,,l,1,0.7838,"[""0.035"",""0.264"",""0.522"",""0.746""]","[1,0,1,1]",0,53,53,53,1,1,1,,,1,FALSE,,,,,,,,,,,,,,,,,,,,,,,,,,,,,,
,,001,2022-04-29_03h10.49.017,classification_task,2021.2.3,Win32,57.89047123,5edc3d681a69d49159555f91,626b377229c10585ec392f8a,626b3ae5ebcb71ef549e6468,,,,,,,,,,,,,,,,,,,,,,,a,1,0.8477,"[""0.312"",""0.561"",""0.780"",""0.084""]","[1,1,1,0]",0,54,54,54,1,0,1,,,1,FALSE,,,,,,,,,,,,,,,,,,,,,,,,,,,,,,
,,001,2022-04-29_03h10.49.017,classification_task,2021.2.3,Win32,57.89047123,5edc3d681a69d49159555f91,626b377229c10585ec392f8a,626b3ae5ebcb71ef549e6468,,,,,,,,,,,,,,,,,,,,,,,a,0,2.263,"[""0.140"",""0.264"",""0.642"",""0.699""]","[1,0,1,1]",0,55,55,55,1,1,0,,,1,FALSE,,,,,,,,,,,,,,,,,,,,,,,,,,,,,,
,,001,2022-04-29_03h10.49.017,classification_task,2021.2.3,Win32,57.89047123,5edc3d681a69d49159555f91,626b377229c10585ec392f8a,626b3ae5ebcb71ef549e6468,,,,,,,,,,,,,,,,,,,,,,,a,1,3.6727,"[""0.267"",""0.561"",""0.780"",""0.920""]","[0,1,1,1]",0,56,56,56,1,0,1,,,1,FALSE,,,,,,,,,,,,,,,,,,,,,,,,,,,,,,
,,001,2022-04-29_03h10.49.017,classification_task,2021.2.3,Win32,57.89047123,5edc3d681a69d49159555f91,626b377229c10585ec392f8a,626b3ae5ebcb71ef549e6468,,,,,,,,,,,,,,,,,,,,,,,a,1,1.5058,"[""0.312"",""0.857"",""0.780"",""0.920""]","[1,0,1,1]",0,57,57,57,1,0,1,,,1,FALSE,,,,,,,,,,,,,,,,,,,,,,,,,,,,,,
,,001,2022-04-29_03h10.49.017,classification_task,2021.2.3,Win32,57.89047123,5edc3d681a69d49159555f91,626b377229c10585ec392f8a,626b3ae5ebcb71ef549e6468,,,,,,,,,,,,,,,,,,,,,,,a,0,3.587,"[""0.140"",""0.364"",""0.642"",""0.264""]","[1,1,1,0]",0,58,58,58,1,1,0,,,1,FALSE,,,,,,,,,,,,,,,,,,,,,,,,,,,,,,
,,001,2022-04-29_03h10.49.017,classification_task,2021.2.3,Win32,57.89047123,5edc3d681a69d49159555f91,626b377229c10585ec392f8a,626b3ae5ebcb71ef549e6468,,,,,,,,,,,,,,,,,,,,,,,a,1,1.0585,"[""0.214"",""0.828"",""0.600"",""0.973""]","[1,0,1,1]",0,59,59,59,1,0,0,,,1,FALSE,,,,,,,,,,,,,,,,,,,,,,,,,,,,,,
,,001,2022-04-29_03h10.49.017,classification_task,2021.2.3,Win32,57.89047123,5edc3d681a69d49159555f91,626b377229c10585ec392f8a,626b3ae5ebcb71ef549e6468,,,,,,,,,,,,,,,,,,,,,,,a,1,2.9607,"[""0.214"",""0.466"",""0.828"",""0.973""]","[1,1,0,1]",0,60,60,60,1,0,0,,,1,FALSE,,,,,,,,,,,,,,,,,,,,,,,,,,,,,,
,,001,2022-04-29_03h10.49.017,classification_task,2021.2.3,Win32,57.89047123,5edc3d681a69d49159555f91,626b377229c10585ec392f8a,626b3ae5ebcb71ef549e6468,,,,,,,,,,,,,,,,,,,,,,,a,0,0.9743,"[""0.035"",""0.409"",""0.522"",""0.840""]","[1,1,1,0]",0,61,61,61,1,1,1,,,1,FALSE,,,,,,,,,,,,,,,,,,,,,,,,,,,,,,
,,001,2022-04-29_03h10.49.017,classification_task,2021.2.3,Win32,57.89047123,5edc3d681a69d49159555f91,626b377229c10585ec392f8a,626b3ae5ebcb71ef549e6468,,,,,,,,,,,,,,,,,,,,,,,l,0,2.6913,"[""0.312"",""0.561"",""0.828"",""0.920""]","[1,1,0,1]",0,62,62,62,1,0,1,,,1,FALSE,,,,,,,,,,,,,,,,,,,,,,,,,,,,,,
,,001,2022-04-29_03h10.49.017,classification_task,2021.2.3,Win32,57.89047123,5edc3d681a69d49159555f91,626b377229c10585ec392f8a,626b3ae5ebcb71ef549e6468,,,,,,,,,,,,,,,,,,,,,,,l,1,1.8021,"[""0.267"",""0.409"",""0.522"",""0.746""]","[0,1,1,1]",0,63,63,63,1,1,1,,,1,FALSE,,,,,,,,,,,,,,,,,,,,,,,,,,,,,,
,,001,2022-04-29_03h10.49.017,classification_task,2021.2.3,Win32,57.89047123,5edc3d681a69d49159555f91,626b377229c10585ec392f8a,626b3ae5ebcb71ef549e6468,,,,,,,,,,,,,,,,,,,,,,,,,,,,,,,,,,,,,,,0, ,,0,6.274526014,432.9066,0,0,0,0,1,2,1,,,,,,,,,,,,,,,,,
,,001,2022-04-29_03h10.49.017,classification_task,2021.2.3,Win32,57.89047123,5edc3d681a69d49159555f91,626b377229c10585ec392f8a,626b3ae5ebcb71ef549e6468,,,,,,,,,,,,,,,,,,,,,,,,,,,,,,,,,,,,,,,1,  ,,0,9.305831129,441.3458,0,0,0,0,1,2,1,,,,,,,,,,,,,,,,,
,,001,2022-04-29_03h10.49.017,classification_task,2021.2.3,Win32,57.89047123,5edc3d681a69d49159555f91,626b377229c10585ec392f8a,626b3ae5ebcb71ef549e6468,,,,,,,,,,,,,,,,,,,,,,,,,,,,,,,,,,,,,,,2,  ,,0,8.54800485,446.7911,0,0,0,0,1,2,1,,,,,,,,,,,,,,,,,
,,001,2022-04-29_03h10.49.017,classification_task,2021.2.3,Win32,57.89047123,5edc3d681a69d49159555f91,626b377229c10585ec392f8a,626b3ae5ebcb71ef549e6468,,,,,,,,,,,,,,,,,,,,,,,,,,,,,,,,,,,,,,,,,,,,,0,0,0,0,1,,1,,,,,,,,,,,,,,,,,
,,001,2022-04-29_03h10.49.017,classification_task,2021.2.3,Win32,57.89047123,5edc3d681a69d49159555f91,626b377229c10585ec392f8a,626b3ae5ebcb71ef549e6468,,,,,,,,,,,,,,,,,,,,,space,86.1952,a,0,5.9404,"[""0.857"",""0.409"",""0.522"",""0.746""]","[0,1,1,1]",0,0,0,0,1,1,1,,,1,FALSE,,,,,,,,,,,,,,,,,,,,,,,,,,,,,,
,,001,2022-04-29_03h10.49.017,classification_task,2021.2.3,Win32,57.89047123,5edc3d681a69d49159555f91,626b377229c10585ec392f8a,626b3ae5ebcb71ef549e6468,,,,,,,,,,,,,,,,,,,,,,,a,1,4.5272,"[""0.214"",""0.863"",""0.600"",""0.973""]","[1,0,1,1]",0,1,1,1,1,0,0,,,1,FALSE,,,,,,,,,,,,,,,,,,,,,,,,,,,,,,
,,001,2022-04-29_03h10.49.017,classification_task,2021.2.3,Win32,57.89047123,5edc3d681a69d49159555f91,626b377229c10585ec392f8a,626b3ae5ebcb71ef549e6468,,,,,,,,,,,,,,,,,,,,,,,a,0,2.3723,"[""0.140"",""0.364"",""0.642"",""0.857""]","[1,1,1,0]",0,2,2,2,1,1,0,,,1,FALSE,,,,,,,,,,,,,,,,,,,,,,,,,,,,,,
,,001,2022-04-29_03h10.49.017,classification_task,2021.2.3,Win32,57.89047123,5edc3d681a69d49159555f91,626b377229c10585ec392f8a,626b3ae5ebcb71ef549e6468,,,,,,,,,,,,,,,,,,,,,,,l,1,3.7645,"[""0.035"",""0.840"",""0.522"",""0.746""]","[1,0,1,1]",0,3,3,3,1,1,1,,,1,FALSE,,,,,,,,,,,,,,,,,,,,,,,,,,,,,,
,,001,2022-04-29_03h10.49.017,classification_task,2021.2.3,Win32,57.89047123,5edc3d681a69d49159555f91,626b377229c10585ec392f8a,626b3ae5ebcb71ef549e6468,,,,,,,,,,,,,,,,,,,,,,,a,0,1.4165,"[""0.140"",""0.364"",""0.857"",""0.699""]","[1,1,0,1]",0,4,4,4,1,1,0,,,1,FALSE,,,,,,,,,,,,,,,,,,,,,,,,,,,,,,
,,001,2022-04-29_03h10.49.017,classification_task,2021.2.3,Win32,57.89047123,5edc3d681a69d49159555f91,626b377229c10585ec392f8a,626b3ae5ebcb71ef549e6468,,,,,,,,,,,,,,,,,,,,,,,l,1,4.7213,"[""0.140"",""0.070"",""0.642"",""0.699""]","[1,0,1,1]",0,5,5,5,1,1,0,,,1,FALSE,,,,,,,,,,,,,,,,,,,,,,,,,,,,,,
,,001,2022-04-29_03h10.49.017,classification_task,2021.2.3,Win32,57.89047123,5edc3d681a69d49159555f91,626b377229c10585ec392f8a,626b3ae5ebcb71ef549e6468,,,,,,,,,,,,,,,,,,,,,,,a,1,1.1677,"[""0.267"",""0.466"",""0.600"",""0.973""]","[0,1,1,1]",0,6,6,6,1,0,0,,,1,FALSE,,,,,,,,,,,,,,,,,,,,,,,,,,,,,,
,,001,2022-04-29_03h10.49.017,classification_task,2021.2.3,Win32,57.89047123,5edc3d681a69d49159555f91,626b377229c10585ec392f8a,626b3ae5ebcb71ef549e6468,,,,,,,,,,,,,,,,,,,,,,,l,0,2.3618,"[""0.214"",""0.466"",""0.863"",""0.973""]","[1,1,0,1]",0,7,7,7,1,0,0,,,1,FALSE,,,,,,,,,,,,,,,,,,,,,,,,,,,,,,
,,001,2022-04-29_03h10.49.017,classification_task,2021.2.3,Win32,57.89047123,5edc3d681a69d49159555f91,626b377229c10585ec392f8a,626b3ae5ebcb71ef549e6468,,,,,,,,,,,,,,,,,,,,,,,a,1,1.0685,"[""0.312"",""0.070"",""0.780"",""0.920""]","[1,0,1,1]",0,8,8,8,1,0,1,,,1,FALSE,,,,,,,,,,,,,,,,,,,,,,,,,,,,,,
,,001,2022-04-29_03h10.49.017,classification_task,2021.2.3,Win32,57.89047123,5edc3d681a69d49159555f91,626b377229c10585ec392f8a,626b3ae5ebcb71ef549e6468,,,,,,,,,,,,,,,,,,,,,,,a,1,0.7609,"[""0.312"",""0.561"",""0.780"",""0.857""]","[1,1,1,0]",0,9,9,9,1,0,1,,,1,FALSE,,,,,,,,,,,,,,,,,,,,,,,,,,,,,,
,,001,2022-04-29_03h10.49.017,classification_task,2021.2.3,Win32,57.89047123,5edc3d681a69d49159555f91,626b377229c10585ec392f8a,626b3ae5ebcb71ef549e6468,,,,,,,,,,,,,,,,,,,,,,,a,0,2.2444,"[""0.035"",""0.409"",""0.522"",""0.099""]","[1,1,1,0]",0,10,10,10,1,1,1,,,1,FALSE,,,,,,,,,,,,,,,,,,,,,,,,,,,,,,
,,001,2022-04-29_03h10.49.017,classification_task,2021.2.3,Win32,57.89047123,5edc3d681a69d49159555f91,626b377229c10585ec392f8a,626b3ae5ebcb71ef549e6468,,,,,,,,,,,,,,,,,,,,,,,l,0,1.5567,"[""0.312"",""0.561"",""0.264"",""0.920""]","[1,1,0,1]",0,11,11,11,1,0,1,,,1,FALSE,,,,,,,,,,,,,,,,,,,,,,,,,,,,,,
,,001,2022-04-29_03h10.49.017,classification_task,2021.2.3,Win32,57.89047123,5edc3d681a69d49159555f91,626b377229c10585ec392f8a,626b3ae5ebcb71ef549e6468,,,,,,,,,,,,,,,,,,,,,,,l,0,1.1862,"[""0.214"",""0.466"",""0.600"",""0.099""]","[1,1,1,0]",0,12,12,12,1,0,0,,,1,FALSE,,,,,,,,,,,,,,,,,,,,,,,,,,,,,,
,,001,2022-04-29_03h10.49.017,classification_task,2021.2.3,Win32,57.89047123,5edc3d681a69d49159555f91,626b377229c10585ec392f8a,626b3ae5ebcb71ef549e6468,,,,,,,,,,,,,,,,,,,,,,,a,0,1.055,"[""0.099"",""0.364"",""0.642"",""0.699""]","[0,1,1,1]",0,13,13,13,1,1,0,,,1,FALSE,,,,,,,,,,,,,,,,,,,,,,,,,,,,,,
,,001,2022-04-29_03h10.49.017,classification_task,2021.2.3,Win32,57.89047123,5edc3d681a69d49159555f91,626b377229c10585ec392f8a,626b3ae5ebcb71ef549e6468,,,,,,,,,,,,,,,,,,,,,,,a,1,1.3156,"[""0.178"",""0.561"",""0.780"",""0.920""]","[0,1,1,1]",0,14,14,14,1,0,1,,,1,FALSE,,,,,,,,,,,,,,,,,,,,,,,,,,,,,,
,,001,2022-04-29_03h10.49.017,classification_task,2021.2.3,Win32,57.89047123,5edc3d681a69d49159555f91,626b377229c10585ec392f8a,626b3ae5ebcb71ef549e6468,,,,,,,,,,,,,,,,,,,,,,,l,1,1.5339,"[""0.035"",""0.409"",""0.178"",""0.746""]","[1,1,0,1]",0,15,15,15,1,1,1,,,1,FALSE,,,,,,,,,,,,,,,,,,,,,,,,,,,,,,
,,001,2022-04-29_03h10.49.017,classification_task,2021.2.3,Win32,57.89047123,5edc3d681a69d49159555f91,626b377229c10585ec392f8a,626b3ae5ebcb71ef549e6468,,,,,,,,,,,,,,,,,,,,,,,l,1,1.1237,"[""0.140"",""0.364"",""0.854"",""0.699""]","[1,1,0,1]",0,16,16,16,1,1,0,,,1,FALSE,,,,,,,,,,,,,,,,,,,,,,,,,,,,,,
,,001,2022-04-29_03h10.49.017,classification_task,2021.2.3,Win32,57.89047123,5edc3d681a69d49159555f91,626b377229c10585ec392f8a,626b3ae5ebcb71ef549e6468,,,,,,,,,,,,,,,,,,,,,,,a,1,0.8537,"[""0.842"",""0.561"",""0.780"",""0.920""]","[0,1,1,1]",0,17,17,17,1,0,1,,,1,FALSE,,,,,,,,,,,,,,,,,,,,,,,,,,,,,,
,,001,2022-04-29_03h10.49.017,classification_task,2021.2.3,Win32,57.89047123,5edc3d681a69d49159555f91,626b377229c10585ec392f8a,626b3ae5ebcb71ef549e6468,,,,,,,,,,,,,,,,,,,,,,,a,1,0.5239,"[""0.312"",""0.857"",""0.780"",""0.920""]","[1,0,1,1]",0,18,18,18,1,0,1,,,1,FALSE,,,,,,,,,,,,,,,,,,,,,,,,,,,,,,
,,001,2022-04-29_03h10.49.017,classification_task,2021.2.3,Win32,57.89047123,5edc3d681a69d49159555f91,626b377229c10585ec392f8a,626b3ae5ebcb71ef549e6468,,,,,,,,,,,,,,,,,,,,,,,l,0,1.3453,"[""0.099"",""0.466"",""0.600"",""0.973""]","[0,1,1,1]",0,19,19,19,1,0,0,,,1,FALSE,,,,,,,,,,,,,,,,,,,,,,,,,,,,,,
,,001,2022-04-29_03h10.49.017,classification_task,2021.2.3,Win32,57.89047123,5edc3d681a69d49159555f91,626b377229c10585ec392f8a,626b3ae5ebcb71ef549e6468,,,,,,,,,,,,,,,,,,,,,,,l,1,1.2108,"[""0.035"",""0.409"",""0.100"",""0.746""]","[1,1,0,1]",0,20,20,20,1,1,1,,,1,FALSE,,,,,,,,,,,,,,,,,,,,,,,,,,,,,,
,,001,2022-04-29_03h10.49.017,classification_task,2021.2.3,Win32,57.89047123,5edc3d681a69d49159555f91,626b377229c10585ec392f8a,626b3ae5ebcb71ef549e6468,,,,,,,,,,,,,,,,,,,,,,,l,1,1.3188,"[""0.035"",""0.409"",""0.522"",""0.264""]","[1,1,1,0]",0,21,21,21,1,1,1,,,1,FALSE,,,,,,,,,,,,,,,,,,,,,,,,,,,,,,
,,001,2022-04-29_03h10.49.017,classification_task,2021.2.3,Win32,57.89047123,5edc3d681a69d49159555f91,626b377229c10585ec392f8a,626b3ae5ebcb71ef549e6468,,,,,,,,,,,,,,,,,,,,,,,l,1,3.2609,"[""0.140"",""0.264"",""0.642"",""0.699""]","[1,0,1,1]",0,22,22,22,1,1,0,,,1,FALSE,,,,,,,,,,,,,,,,,,,,,,,,,,,,,,
,,001,2022-04-29_03h10.49.017,classification_task,2021.2.3,Win32,57.89047123,5edc3d681a69d49159555f91,626b377229c10585ec392f8a,626b3ae5ebcb71ef549e6468,,,,,,,,,,,,,,,,,,,,,,,l,1,1.4173,"[""0.035"",""0.178"",""0.522"",""0.746""]","[1,0,1,1]",0,23,23,23,1,1,1,,,1,FALSE,,,,,,,,,,,,,,,,,,,,,,,,,,,,,,
,,001,2022-04-29_03h10.49.017,classification_task,2021.2.3,Win32,57.89047123,5edc3d681a69d49159555f91,626b377229c10585ec392f8a,626b3ae5ebcb71ef549e6468,,,,,,,,,,,,,,,,,,,,,,,l,0,1.5197,"[""0.214"",""0.466"",""0.099"",""0.973""]","[1,1,0,1]",0,24,24,24,1,0,0,,,1,FALSE,,,,,,,,,,,,,,,,,,,,,,,,,,,,,,
,,001,2022-04-29_03h10.49.017,classification_task,2021.2.3,Win32,57.89047123,5edc3d681a69d49159555f91,626b377229c10585ec392f8a,626b3ae5ebcb71ef549e6468,,,,,,,,,,,,,,,,,,,,,,,a,1,1.0653,"[""0.312"",""0.561"",""0.780"",""0.264""]","[1,1,1,0]",0,25,25,25,1,0,1,,,1,FALSE,,,,,,,,,,,,,,,,,,,,,,,,,,,,,,
,,001,2022-04-29_03h10.49.017,classification_task,2021.2.3,Win32,57.89047123,5edc3d681a69d49159555f91,626b377229c10585ec392f8a,626b3ae5ebcb71ef549e6468,,,,,,,,,,,,,,,,,,,,,,,l,0,1.4894,"[""0.214"",""0.466"",""0.600"",""0.828""]","[1,1,1,0]",0,26,26,26,1,0,0,,,1,FALSE,,,,,,,,,,,,,,,,,,,,,,,,,,,,,,
,,001,2022-04-29_03h10.49.017,classification_task,2021.2.3,Win32,57.89047123,5edc3d681a69d49159555f91,626b377229c10585ec392f8a,626b3ae5ebcb71ef549e6468,,,,,,,,,,,,,,,,,,,,,,,l,1,1.5346,"[""0.264"",""0.364"",""0.642"",""0.699""]","[0,1,1,1]",0,27,27,27,1,1,0,,,1,FALSE,,,,,,,,,,,,,,,,,,,,,,,,,,,,,,
,,001,2022-04-29_03h10.49.017,classification_task,2021.2.3,Win32,57.89047123,5edc3d681a69d49159555f91,626b377229c10585ec392f8a,626b3ae5ebcb71ef549e6468,,,,,,,,,,,,,,,,,,,,,,,a,1,1.2377,"[""0.214"",""0.178"",""0.600"",""0.973""]","[1,0,1,1]",0,28,28,28,1,0,0,,,1,FALSE,,,,,,,,,,,,,,,,,,,,,,,,,,,,,,
,,001,2022-04-29_03h10.49.017,classification_task,2021.2.3,Win32,57.89047123,5edc3d681a69d49159555f91,626b377229c10585ec392f8a,626b3ae5ebcb71ef549e6468,,,,,,,,,,,,,,,,,,,,,,,a,1,1.0843,"[""0.312"",""0.561"",""0.099"",""0.920""]","[1,1,0,1]",0,29,29,29,1,0,1,,,1,FALSE,,,,,,,,,,,,,,,,,,,,,,,,,,,,,,
,,001,2022-04-29_03h10.49.017,classification_task,2021.2.3,Win32,57.89047123,5edc3d681a69d49159555f91,626b377229c10585ec392f8a,626b3ae5ebcb71ef549e6468,,,,,,,,,,,,,,,,,,,,,,,a,0,1.1152,"[""0.140"",""0.364"",""0.642"",""0.100""]","[1,1,1,0]",0,30,30,30,1,1,0,,,1,FALSE,,,,,,,,,,,,,,,,,,,,,,,,,,,,,,
,,001,2022-04-29_03h10.49.017,classification_task,2021.2.3,Win32,57.89047123,5edc3d681a69d49159555f91,626b377229c10585ec392f8a,626b3ae5ebcb71ef549e6468,,,,,,,,,,,,,,,,,,,,,,,a,0,1.1184,"[""0.264"",""0.409"",""0.522"",""0.746""]","[0,1,1,1]",0,31,31,31,1,1,1,,,1,FALSE,,,,,,,,,,,,,,,,,,,,,,,,,,,,,,
,,001,2022-04-29_03h10.49.017,classification_task,2021.2.3,Win32,57.89047123,5edc3d681a69d49159555f91,626b377229c10585ec392f8a,626b3ae5ebcb71ef549e6468,,,,,,,,,,,,,,,,,,,,,,,l,1,0.7806,"[""0.140"",""0.364"",""0.084"",""0.699""]","[1,1,0,1]",0,32,32,32,1,1,0,,,1,FALSE,,,,,,,,,,,,,,,,,,,,,,,,,,,,,,
,,001,2022-04-29_03h10.49.017,classification_task,2021.2.3,Win32,57.89047123,5edc3d681a69d49159555f91,626b377229c10585ec392f8a,626b3ae5ebcb71ef549e6468,,,,,,,,,,,,,,,,,,,,,,,a,1,0.9486,"[""0.840"",""0.561"",""0.780"",""0.920""]","[0,1,1,1]",0,33,33,33,1,0,1,,,1,FALSE,,,,,,,,,,,,,,,,,,,,,,,,,,,,,,
,,001,2022-04-29_03h10.49.017,classification_task,2021.2.3,Win32,57.89047123,5edc3d681a69d49159555f91,626b377229c10585ec392f8a,626b3ae5ebcb71ef549e6468,,,,,,,,,,,,,,,,,,,,,,,a,0,1.2901,"[""0.035"",""0.409"",""0.522"",""0.857""]","[1,1,1,0]",0,34,34,34,1,1,1,,,1,FALSE,,,,,,,,,,,,,,,,,,,,,,,,,,,,,,
,,001,2022-04-29_03h10.49.017,classification_task,2021.2.3,Win32,57.89047123,5edc3d681a69d49159555f91,626b377229c10585ec392f8a,626b3ae5ebcb71ef549e6468,,,,,,,,,,,,,,,,,,,,,,,a,0,3.2306,"[""0.140"",""0.364"",""0.642"",""0.070""]","[1,1,1,0]",0,35,35,35,1,1,0,,,1,FALSE,,,,,,,,,,,,,,,,,,,,,,,,,,,,,,
,,001,2022-04-29_03h10.49.017,classification_task,2021.2.3,Win32,57.89047123,5edc3d681a69d49159555f91,626b377229c10585ec392f8a,626b3ae5ebcb71ef549e6468,,,,,,,,,,,,,,,,,,,,,,,l,1,2.2483,"[""0.840"",""0.364"",""0.642"",""0.699""]","[0,1,1,1]",0,36,36,36,1,1,0,,,1,FALSE,,,,,,,,,,,,,,,,,,,,,,,,,,,,,,
,,001,2022-04-29_03h10.49.017,classification_task,2021.2.3,Win32,57.89047123,5edc3d681a69d49159555f91,626b377229c10585ec392f8a,626b3ae5ebcb71ef549e6468,,,,,,,,,,,,,,,,,,,,,,,a,0,1.2383,"[""0.035"",""0.409"",""0.840"",""0.746""]","[1,1,0,1]",0,37,37,37,1,1,1,,,1,FALSE,,,,,,,,,,,,,,,,,,,,,,,,,,,,,,
,,001,2022-04-29_03h10.49.017,classification_task,2021.2.3,Win32,57.89047123,5edc3d681a69d49159555f91,626b377229c10585ec392f8a,626b3ae5ebcb71ef549e6468,,,,,,,,,,,,,,,,,,,,,,,a,1,1.0005,"[""0.312"",""0.854"",""0.780"",""0.920""]","[1,0,1,1]",0,38,38,38,1,0,1,,,1,FALSE,,,,,,,,,,,,,,,,,,,,,,,,,,,,,,
,,001,2022-04-29_03h10.49.017,classification_task,2021.2.3,Win32,57.89047123,5edc3d681a69d49159555f91,626b377229c10585ec392f8a,626b3ae5ebcb71ef549e6468,,,,,,,,,,,,,,,,,,,,,,,a,1,5.2308,"[""0.214"",""0.178"",""0.600"",""0.973""]","[1,0,1,1]",0,39,39,39,1,0,0,,,1,FALSE,,,,,,,,,,,,,,,,,,,,,,,,,,,,,,
,,001,2022-04-29_03h10.49.017,classification_task,2021.2.3,Win32,57.89047123,5edc3d681a69d49159555f91,626b377229c10585ec392f8a,626b3ae5ebcb71ef549e6468,,,,,,,,,,,,,,,,,,,,,,,a,1,0.9034,"[""0.312"",""0.561"",""0.780"",""0.264""]","[1,1,1,0]",0,40,40,40,1,0,1,,,1,FALSE,,,,,,,,,,,,,,,,,,,,,,,,,,,,,,
,,001,2022-04-29_03h10.49.017,classification_task,2021.2.3,Win32,57.89047123,5edc3d681a69d49159555f91,626b377229c10585ec392f8a,626b3ae5ebcb71ef549e6468,,,,,,,,,,,,,,,,,,,,,,,l,1,0.9894,"[""0.035"",""0.084"",""0.522"",""0.746""]","[1,0,1,1]",0,41,41,41,1,1,1,,,1,FALSE,,,,,,,,,,,,,,,,,,,,,,,,,,,,,,
,,001,2022-04-29_03h10.49.017,classification_task,2021.2.3,Win32,57.89047123,5edc3d681a69d49159555f91,626b377229c10585ec392f8a,626b3ae5ebcb71ef549e6468,,,,,,,,,,,,,,,,,,,,,,,l,0,1.3531,"[""0.312"",""0.561"",""0.854"",""0.920""]","[1,1,0,1]",0,42,42,42,1,0,1,,,1,FALSE,,,,,,,,,,,,,,,,,,,,,,,,,,,,,,
,,001,2022-04-29_03h10.49.017,classification_task,2021.2.3,Win32,57.89047123,5edc3d681a69d49159555f91,626b377229c10585ec392f8a,626b3ae5ebcb71ef549e6468,,,,,,,,,,,,,,,,,,,,,,,l,0,1.2445,"[""0.854"",""0.466"",""0.600"",""0.973""]","[0,1,1,1]",0,43,43,43,1,0,0,,,1,FALSE,,,,,,,,,,,,,,,,,,,,,,,,,,,,,,
,,001,2022-04-29_03h10.49.017,classification_task,2021.2.3,Win32,57.89047123,5edc3d681a69d49159555f91,626b377229c10585ec392f8a,626b3ae5ebcb71ef549e6468,,,,,,,,,,,,,,,,,,,,,,,l,0,0.8348,"[""0.214"",""0.466"",""0.600"",""0.099""]","[1,1,1,0]",0,44,44,44,1,0,0,,,1,FALSE,,,,,,,,,,,,,,,,,,,,,,,,,,,,,,
,,001,2022-04-29_03h10.49.017,classification_task,2021.2.3,Win32,57.89047123,5edc3d681a69d49159555f91,626b377229c10585ec392f8a,626b3ae5ebcb71ef549e6468,,,,,,,,,,,,,,,,,,,,,,,l,0,0.6705,"[""0.214"",""0.466"",""0.857"",""0.973""]","[1,1,0,1]",0,45,45,45,1,0,0,,,1,FALSE,,,,,,,,,,,,,,,,,,,,,,,,,,,,,,
,,001,2022-04-29_03h10.49.017,classification_task,2021.2.3,Win32,57.89047123,5edc3d681a69d49159555f91,626b377229c10585ec392f8a,626b3ae5ebcb71ef549e6468,,,,,,,,,,,,,,,,,,,,,,,l,1,1.078,"[""0.857"",""0.409"",""0.522"",""0.746""]","[0,1,1,1]",0,46,46,46,1,1,1,,,1,FALSE,,,,,,,,,,,,,,,,,,,,,,,,,,,,,,
,,001,2022-04-29_03h10.49.017,classification_task,2021.2.3,Win32,57.89047123,5edc3d681a69d49159555f91,626b377229c10585ec392f8a,626b3ae5ebcb71ef549e6468,,,,,,,,,,,,,,,,,,,,,,,l,1,1.1498,"[""0.140"",""0.264"",""0.642"",""0.699""]","[1,0,1,1]",0,47,47,47,1,1,0,,,1,FALSE,,,,,,,,,,,,,,,,,,,,,,,,,,,,,,
,,001,2022-04-29_03h10.49.017,classification_task,2021.2.3,Win32,57.89047123,5edc3d681a69d49159555f91,626b377229c10585ec392f8a,626b3ae5ebcb71ef549e6468,,,,,,,,,,,,,,,,,,,,,,,l,1,0.8013,"[""0.140"",""0.364"",""0.100"",""0.699""]","[1,1,0,1]",0,48,48,48,1,1,0,,,1,FALSE,,,,,,,,,,,,,,,,,,,,,,,,,,,,,,
,,001,2022-04-29_03h10.49.017,classification_task,2021.2.3,Win32,57.89047123,5edc3d681a69d49159555f91,626b377229c10585ec392f8a,626b3ae5ebcb71ef549e6468,,,,,,,,,,,,,,,,,,,,,,,l,0,1.3849,"[""0.214"",""0.466"",""0.264"",""0.973""]","[1,1,0,1]",0,49,49,49,1,0,0,,,1,FALSE,,,,,,,,,,,,,,,,,,,,,,,,,,,,,,
,,001,2022-04-29_03h10.49.017,classification_task,2021.2.3,Win32,57.89047123,5edc3d681a69d49159555f91,626b377229c10585ec392f8a,626b3ae5ebcb71ef549e6468,,,,,,,,,,,,,,,,,,,,,,,a,1,0.7073,"[""0.084"",""0.466"",""0.600"",""0.973""]","[0,1,1,1]",0,50,50,50,1,0,0,,,1,FALSE,,,,,,,,,,,,,,,,,,,,,,,,,,,,,,
,,001,2022-04-29_03h10.49.017,classification_task,2021.2.3,Win32,57.89047123,5edc3d681a69d49159555f91,626b377229c10585ec392f8a,626b3ae5ebcb71ef549e6468,,,,,,,,,,,,,,,,,,,,,,,a,0,0.816,"[""0.140"",""0.857"",""0.642"",""0.699""]","[1,0,1,1]",0,51,51,51,1,1,0,,,1,FALSE,,,,,,,,,,,,,,,,,,,,,,,,,,,,,,
,,001,2022-04-29_03h10.49.017,classification_task,2021.2.3,Win32,57.89047123,5edc3d681a69d49159555f91,626b377229c10585ec392f8a,626b3ae5ebcb71ef549e6468,,,,,,,,,,,,,,,,,,,,,,,l,0,0.9845,"[""0.312"",""0.561"",""0.267"",""0.920""]","[1,1,0,1]",0,52,52,52,1,0,1,,,1,FALSE,,,,,,,,,,,,,,,,,,,,,,,,,,,,,,
,,001,2022-04-29_03h10.49.017,classification_task,2021.2.3,Win32,57.89047123,5edc3d681a69d49159555f91,626b377229c10585ec392f8a,626b3ae5ebcb71ef549e6468,,,,,,,,,,,,,,,,,,,,,,,a,0,2.3811,"[""0.035"",""0.409"",""0.522"",""0.070""]","[1,1,1,0]",0,53,53,53,1,1,1,,,1,FALSE,,,,,,,,,,,,,,,,,,,,,,,,,,,,,,
,,001,2022-04-29_03h10.49.017,classification_task,2021.2.3,Win32,57.89047123,5edc3d681a69d49159555f91,626b377229c10585ec392f8a,626b3ae5ebcb71ef549e6468,,,,,,,,,,,,,,,,,,,,,,,a,1,0.7252,"[""0.214"",""0.264"",""0.600"",""0.973""]","[1,0,1,1]",0,54,54,54,1,0,0,,,1,FALSE,,,,,,,,,,,,,,,,,,,,,,,,,,,,,,
,,001,2022-04-29_03h10.49.017,classification_task,2021.2.3,Win32,57.89047123,5edc3d681a69d49159555f91,626b377229c10585ec392f8a,626b3ae5ebcb71ef549e6468,,,,,,,,,,,,,,,,,,,,,,,a,1,1.3173,"[""0.214"",""0.466"",""0.600"",""0.854""]","[1,1,1,0]",0,55,55,55,1,0,0,,,1,FALSE,,,,,,,,,,,,,,,,,,,,,,,,,,,,,,
,,001,2022-04-29_03h10.49.017,classification_task,2021.2.3,Win32,57.89047123,5edc3d681a69d49159555f91,626b377229c10585ec392f8a,626b3ae5ebcb71ef549e6468,,,,,,,,,,,,,,,,,,,,,,,a,1,1.0216,"[""0.863"",""0.561"",""0.780"",""0.920""]","[0,1,1,1]",0,56,56,56,1,0,1,,,1,FALSE,,,,,,,,,,,,,,,,,,,,,,,,,,,,,,
,,001,2022-04-29_03h10.49.017,classification_task,2021.2.3,Win32,57.89047123,5edc3d681a69d49159555f91,626b377229c10585ec392f8a,626b3ae5ebcb71ef549e6468,,,,,,,,,,,,,,,,,,,,,,,a,1,0.7502,"[""0.312"",""0.561"",""0.780"",""0.857""]","[1,1,1,0]",0,57,57,57,1,0,1,,,1,FALSE,,,,,,,,,,,,,,,,,,,,,,,,,,,,,,
,,001,2022-04-29_03h10.49.017,classification_task,2021.2.3,Win32,57.89047123,5edc3d681a69d49159555f91,626b377229c10585ec392f8a,626b3ae5ebcb71ef549e6468,,,,,,,,,,,,,,,,,,,,,,,l,1,0.6812,"[""0.140"",""0.364"",""0.642"",""0.178""]","[1,1,1,0]",0,58,58,58,1,1,0,,,1,FALSE,,,,,,,,,,,,,,,,,,,,,,,,,,,,,,
,,001,2022-04-29_03h10.49.017,classification_task,2021.2.3,Win32,57.89047123,5edc3d681a69d49159555f91,626b377229c10585ec392f8a,626b3ae5ebcb71ef549e6468,,,,,,,,,,,,,,,,,,,,,,,l,1,0.9185,"[""0.035"",""0.264"",""0.522"",""0.746""]","[1,0,1,1]",0,59,59,59,1,1,1,,,1,FALSE,,,,,,,,,,,,,,,,,,,,,,,,,,,,,,
,,001,2022-04-29_03h10.49.017,classification_task,2021.2.3,Win32,57.89047123,5edc3d681a69d49159555f91,626b377229c10585ec392f8a,626b3ae5ebcb71ef549e6468,,,,,,,,,,,,,,,,,,,,,,,l,1,0.6495,"[""0.262"",""0.409"",""0.522"",""0.746""]","[0,1,1,1]",0,60,60,60,1,1,1,,,1,FALSE,,,,,,,,,,,,,,,,,,,,,,,,,,,,,,
,,001,2022-04-29_03h10.49.017,classification_task,2021.2.3,Win32,57.89047123,5edc3d681a69d49159555f91,626b377229c10585ec392f8a,626b3ae5ebcb71ef549e6468,,,,,,,,,,,,,,,,,,,,,,,l,1,0.6855,"[""0.035"",""0.409"",""0.857"",""0.746""]","[1,1,0,1]",0,61,61,61,1,1,1,,,1,FALSE,,,,,,,,,,,,,,,,,,,,,,,,,,,,,,
,,001,2022-04-29_03h10.49.017,classification_task,2021.2.3,Win32,57.89047123,5edc3d681a69d49159555f91,626b377229c10585ec392f8a,626b3ae5ebcb71ef549e6468,,,,,,,,,,,,,,,,,,,,,,,l,1,1.2848,"[""0.857"",""0.364"",""0.642"",""0.699""]","[0,1,1,1]",0,62,62,62,1,1,0,,,1,FALSE,,,,,,,,,,,,,,,,,,,,,,,,,,,,,,
,,001,2022-04-29_03h10.49.017,classification_task,2021.2.3,Win32,57.89047123,5edc3d681a69d49159555f91,626b377229c10585ec392f8a,626b3ae5ebcb71ef549e6468,,,,,,,,,,,,,,,,,,,,,,,a,1,0.9752,"[""0.312"",""0.863"",""0.780"",""0.920""]","[1,0,1,1]",0,63,63,63,1,0,1,,,1,FALSE,,,,,,,,,,,,,,,,,,,,,,,,,,,,,,
,,001,2022-04-29_03h10.49.017,classification_task,2021.2.3,Win32,57.89047123,5edc3d681a69d49159555f91,626b377229c10585ec392f8a,626b3ae5ebcb71ef549e6468,,,,,,,,,,,,,,,,,,,,,,,,,,,,,,,,,,,,,,,0, ,,0,6.825672399,257.3227,0,1,1,1,1,2,2,,,,,,,,,,,,,,,,,
,,001,2022-04-29_03h10.49.017,classification_task,2021.2.3,Win32,57.89047123,5edc3d681a69d49159555f91,626b377229c10585ec392f8a,626b3ae5ebcb71ef549e6468,,,,,,,,,,,,,,,,,,,,,,,,,,,,,,,,,,,,,,,1,  ,,0,9.202491182,259.8194,0,1,1,1,1,2,2,,,,,,,,,,,,,,,,,
,,001,2022-04-29_03h10.49.017,classification_task,2021.2.3,Win32,57.89047123,5edc3d681a69d49159555f91,626b377229c10585ec392f8a,626b3ae5ebcb71ef549e6468,,,,,,,,,,,,,,,,,,,,,,,,,,,,,,,,,,,,,,,2,  ,,0,8.616898148,260.7902,0,1,1,1,1,2,2,,,,,,,,,,,,,,,,,
,,001,2022-04-29_03h10.49.017,classification_task,2021.2.3,Win32,57.89047123,5edc3d681a69d49159555f91,626b377229c10585ec392f8a,626b3ae5ebcb71ef549e6468,,,,,,,,,,,,,,,,,,,,,,,,,,,,,,,,,,,,,,,,,,,,,0,1,1,1,1,,2,,,,,,,,,,,,,,,,,
,,001,2022-04-29_03h10.49.017,classification_task,2021.2.3,Win32,57.89047123,5edc3d681a69d49159555f91,626b377229c10585ec392f8a,626b3ae5ebcb71ef549e6468,,,,,,,,,,,,,,,,,,,,,space,22.8159,l,1,1.5374,"[""0.140"",""0.364"",""0.642"",""0.070""]","[1,1,1,0]",0,0,0,0,1,1,0,,,1,FALSE,,,,,,,,,,,,,,,,,,,,,,,,,,,,,,
,,001,2022-04-29_03h10.49.017,classification_task,2021.2.3,Win32,57.89047123,5edc3d681a69d49159555f91,626b377229c10585ec392f8a,626b3ae5ebcb71ef549e6468,,,,,,,,,,,,,,,,,,,,,,,a,1,2.303,"[""0.262"",""0.466"",""0.600"",""0.973""]","[0,1,1,1]",0,1,1,1,1,0,0,,,1,FALSE,,,,,,,,,,,,,,,,,,,,,,,,,,,,,,
,,001,2022-04-29_03h10.49.017,classification_task,2021.2.3,Win32,57.89047123,5edc3d681a69d49159555f91,626b377229c10585ec392f8a,626b3ae5ebcb71ef549e6468,,,,,,,,,,,,,,,,,,,,,,,a,1,2.5826,"[""0.214"",""0.466"",""0.863"",""0.973""]","[1,1,0,1]",0,2,2,2,1,0,0,,,1,FALSE,,,,,,,,,,,,,,,,,,,,,,,,,,,,,,
,,001,2022-04-29_03h10.49.017,classification_task,2021.2.3,Win32,57.89047123,5edc3d681a69d49159555f91,626b377229c10585ec392f8a,626b3ae5ebcb71ef549e6468,,,,,,,,,,,,,,,,,,,,,,,l,1,4.0057,"[""0.140"",""0.840"",""0.642"",""0.699""]","[1,0,1,1]",0,3,3,3,1,1,0,,,1,FALSE,,,,,,,,,,,,,,,,,,,,,,,,,,,,,,
,,001,2022-04-29_03h10.49.017,classification_task,2021.2.3,Win32,57.89047123,5edc3d681a69d49159555f91,626b377229c10585ec392f8a,626b3ae5ebcb71ef549e6468,,,,,,,,,,,,,,,,,,,,,,,l,0,2.7336,"[""0.214"",""0.828"",""0.600"",""0.973""]","[1,0,1,1]",0,4,4,4,1,0,0,,,1,FALSE,,,,,,,,,,,,,,,,,,,,,,,,,,,,,,
,,001,2022-04-29_03h10.49.017,classification_task,2021.2.3,Win32,57.89047123,5edc3d681a69d49159555f91,626b377229c10585ec392f8a,626b3ae5ebcb71ef549e6468,,,,,,,,,,,,,,,,,,,,,,,l,1,1.6199,"[""0.035"",""0.857"",""0.522"",""0.746""]","[1,0,1,1]",0,5,5,5,1,1,1,,,1,FALSE,,,,,,,,,,,,,,,,,,,,,,,,,,,,,,
,,001,2022-04-29_03h10.49.017,classification_task,2021.2.3,Win32,57.89047123,5edc3d681a69d49159555f91,626b377229c10585ec392f8a,626b3ae5ebcb71ef549e6468,,,,,,,,,,,,,,,,,,,,,,,a,0,3.4992,"[""0.035"",""0.409"",""0.264"",""0.746""]","[1,1,0,1]",0,6,6,6,1,1,1,,,1,FALSE,,,,,,,,,,,,,,,,,,,,,,,,,,,,,,
,,001,2022-04-29_03h10.49.017,classification_task,2021.2.3,Win32,57.89047123,5edc3d681a69d49159555f91,626b377229c10585ec392f8a,626b3ae5ebcb71ef549e6468,,,,,,,,,,,,,,,,,,,,,,,a,0,1.0888,"[""0.035"",""0.409"",""0.522"",""0.178""]","[1,1,1,0]",0,7,7,7,1,1,1,,,1,FALSE,,,,,,,,,,,,,,,,,,,,,,,,,,,,,,
,,001,2022-04-29_03h10.49.017,classification_task,2021.2.3,Win32,57.89047123,5edc3d681a69d49159555f91,626b377229c10585ec392f8a,626b3ae5ebcb71ef549e6468,,,,,,,,,,,,,,,,,,,,,,,a,1,1.1041,"[""0.857"",""0.561"",""0.780"",""0.920""]","[0,1,1,1]",0,8,8,8,1,0,1,,,1,FALSE,,,,,,,,,,,,,,,,,,,,,,,,,,,,,,
,,001,2022-04-29_03h10.49.017,classification_task,2021.2.3,Win32,57.89047123,5edc3d681a69d49159555f91,626b377229c10585ec392f8a,626b3ae5ebcb71ef549e6468,,,,,,,,,,,,,,,,,,,,,,,l,0,2.4386,"[""0.312"",""0.561"",""0.267"",""0.920""]","[1,1,0,1]",0,9,9,9,1,0,1,,,1,FALSE,,,,,,,,,,,,,,,,,,,,,,,,,,,,,,
,,001,2022-04-29_03h10.49.017,classification_task,2021.2.3,Win32,57.89047123,5edc3d681a69d49159555f91,626b377229c10585ec392f8a,626b3ae5ebcb71ef549e6468,,,,,,,,,,,,,,,,,,,,,,,a,0,4.9677,"[""0.140"",""0.364"",""0.100"",""0.699""]","[1,1,0,1]",0,10,10,10,1,1,0,,,1,FALSE,,,,,,,,,,,,,,,,,,,,,,,,,,,,,,
,,001,2022-04-29_03h10.49.017,classification_task,2021.2.3,Win32,57.89047123,5edc3d681a69d49159555f91,626b377229c10585ec392f8a,626b3ae5ebcb71ef549e6468,,,,,,,,,,,,,,,,,,,,,,,a,0,1.582,"[""0.863"",""0.364"",""0.642"",""0.699""]","[0,1,1,1]",0,11,11,11,1,1,0,,,1,FALSE,,,,,,,,,,,,,,,,,,,,,,,,,,,,,,
,,001,2022-04-29_03h10.49.017,classification_task,2021.2.3,Win32,57.89047123,5edc3d681a69d49159555f91,626b377229c10585ec392f8a,626b3ae5ebcb71ef549e6468,,,,,,,,,,,,,,,,,,,,,,,l,1,1.9255,"[""0.070"",""0.409"",""0.522"",""0.746""]","[0,1,1,1]",0,12,12,12,1,1,1,,,1,FALSE,,,,,,,,,,,,,,,,,,,,,,,,,,,,,,
,,001,2022-04-29_03h10.49.017,classification_task,2021.2.3,Win32,57.89047123,5edc3d681a69d49159555f91,626b377229c10585ec392f8a,626b3ae5ebcb71ef549e6468,,,,,,,,,,,,,,,,,,,,,,,l,0,2.24,"[""0.214"",""0.466"",""0.600"",""0.863""]","[1,1,1,0]",0,13,13,13,1,0,0,,,1,FALSE,,,,,,,,,,,,,,,,,,,,,,,,,,,,,,
,,001,2022-04-29_03h10.49.017,classification_task,2021.2.3,Win32,57.89047123,5edc3d681a69d49159555f91,626b377229c10585ec392f8a,626b3ae5ebcb71ef549e6468,,,,,,,,,,,,,,,,,,,,,,,a,1,0.868,"[""0.312"",""0.561"",""0.780"",""0.863""]","[1,1,1,0]",0,14,14,14,1,0,1,,,1,FALSE,,,,,,,,,,,,,,,,,,,,,,,,,,,,,,
,,001,2022-04-29_03h10.49.017,classification_task,2021.2.3,Win32,57.89047123,5edc3d681a69d49159555f91,626b377229c10585ec392f8a,626b3ae5ebcb71ef549e6468,,,,,,,,,,,,,,,,,,,,,,,a,1,1.0653,"[""0.312"",""0.264"",""0.780"",""0.920""]","[1,0,1,1]",0,15,15,15,1,0,1,,,1,FALSE,,,,,,,,,,,,,,,,,,,,,,,,,,,,,,
,,001,2022-04-29_03h10.49.017,classification_task,2021.2.3,Win32,57.89047123,5edc3d681a69d49159555f91,626b377229c10585ec392f8a,626b3ae5ebcb71ef549e6468,,,,,,,,,,,,,,,,,,,,,,,l,1,1.5161,"[""0.035"",""0.409"",""0.522"",""0.854""]","[1,1,1,0]",0,16,16,16,1,1,1,,,1,FALSE,,,,,,,,,,,,,,,,,,,,,,,,,,,,,,
,,001,2022-04-29_03h10.49.017,classification_task,2021.2.3,Win32,57.89047123,5edc3d681a69d49159555f91,626b377229c10585ec392f8a,626b3ae5ebcb71ef549e6468,,,,,,,,,,,,,,,,,,,,,,,l,1,1.223,"[""0.840"",""0.364"",""0.642"",""0.699""]","[0,1,1,1]",0,17,17,17,1,1,0,,,1,FALSE,,,,,,,,,,,,,,,,,,,,,,,,,,,,,,
,,001,2022-04-29_03h10.49.017,classification_task,2021.2.3,Win32,57.89047123,5edc3d681a69d49159555f91,626b377229c10585ec392f8a,626b3ae5ebcb71ef549e6468,,,,,,,,,,,,,,,,,,,,,,,l,1,0.7713,"[""0.828"",""0.409"",""0.522"",""0.746""]","[0,1,1,1]",0,18,18,18,1,1,1,,,1,FALSE,,,,,,,,,,,,,,,,,,,,,,,,,,,,,,
,,001,2022-04-29_03h10.49.017,classification_task,2021.2.3,Win32,57.89047123,5edc3d681a69d49159555f91,626b377229c10585ec392f8a,626b3ae5ebcb71ef549e6468,,,,,,,,,,,,,,,,,,,,,,,a,1,0.8663,"[""0.312"",""0.857"",""0.780"",""0.920""]","[1,0,1,1]",0,19,19,19,1,0,1,,,1,FALSE,,,,,,,,,,,,,,,,,,,,,,,,,,,,,,
,,001,2022-04-29_03h10.49.017,classification_task,2021.2.3,Win32,57.89047123,5edc3d681a69d49159555f91,626b377229c10585ec392f8a,626b3ae5ebcb71ef549e6468,,,,,,,,,,,,,,,,,,,,,,,a,1,2.6001,"[""0.214"",""0.466"",""0.857"",""0.973""]","[1,1,0,1]",0,20,20,20,1,0,0,,,1,FALSE,,,,,,,,,,,,,,,,,,,,,,,,,,,,,,
,,001,2022-04-29_03h10.49.017,classification_task,2021.2.3,Win32,57.89047123,5edc3d681a69d49159555f91,626b377229c10585ec392f8a,626b3ae5ebcb71ef549e6468,,,,,,,,,,,,,,,,,,,,,,,a,0,8.97,"[""0.035"",""0.863"",""0.522"",""0.746""]","[1,0,1,1]",0,21,21,21,1,1,1,,,1,FALSE,,,,,,,,,,,,,,,,,,,,,,,,,,,,,,
,,001,2022-04-29_03h10.49.017,classification_task,2021.2.3,Win32,57.89047123,5edc3d681a69d49159555f91,626b377229c10585ec392f8a,626b3ae5ebcb71ef549e6468,,,,,,,,,,,,,,,,,,,,,,,a,0,3.1344,"[""0.140"",""0.364"",""0.642"",""0.267""]","[1,1,1,0]",0,22,22,22,1,1,0,,,1,FALSE,,,,,,,,,,,,,,,,,,,,,,,,,,,,,,
,,001,2022-04-29_03h10.49.017,classification_task,2021.2.3,Win32,57.89047123,5edc3d681a69d49159555f91,626b377229c10585ec392f8a,626b3ae5ebcb71ef549e6468,,,,,,,,,,,,,,,,,,,,,,,a,1,2.1625,"[""0.312"",""0.561"",""0.099"",""0.920""]","[1,1,0,1]",0,23,23,23,1,0,1,,,1,FALSE,,,,,,,,,,,,,,,,,,,,,,,,,,,,,,
,,001,2022-04-29_03h10.49.017,classification_task,2021.2.3,Win32,57.89047123,5edc3d681a69d49159555f91,626b377229c10585ec392f8a,626b3ae5ebcb71ef549e6468,,,,,,,,,,,,,,,,,,,,,,,l,1,1.4442,"[""0.035"",""0.409"",""0.178"",""0.746""]","[1,1,0,1]",0,24,24,24,1,1,1,,,1,FALSE,,,,,,,,,,,,,,,,,,,,,,,,,,,,,,
,,001,2022-04-29_03h10.49.017,classification_task,2021.2.3,Win32,57.89047123,5edc3d681a69d49159555f91,626b377229c10585ec392f8a,626b3ae5ebcb71ef549e6468,,,,,,,,,,,,,,,,,,,,,,,l,1,1.5504,"[""0.140"",""0.267"",""0.642"",""0.699""]","[1,0,1,1]",0,25,25,25,1,1,0,,,1,FALSE,,,,,,,,,,,,,,,,,,,,,,,,,,,,,,
,,001,2022-04-29_03h10.49.017,classification_task,2021.2.3,Win32,57.89047123,5edc3d681a69d49159555f91,626b377229c10585ec392f8a,626b3ae5ebcb71ef549e6468,,,,,,,,,,,,,,,,,,,,,,,l,1,1.1394,"[""0.140"",""0.364"",""0.100"",""0.699""]","[1,1,0,1]",0,26,26,26,1,1,0,,,1,FALSE,,,,,,,,,,,,,,,,,,,,,,,,,,,,,,
,,001,2022-04-29_03h10.49.017,classification_task,2021.2.3,Win32,57.89047123,5edc3d681a69d49159555f91,626b377229c10585ec392f8a,626b3ae5ebcb71ef549e6468,,,,,,,,,,,,,,,,,,,,,,,a,1,0.7477,"[""0.842"",""0.561"",""0.780"",""0.920""]","[0,1,1,1]",0,27,27,27,1,0,1,,,1,FALSE,,,,,,,,,,,,,,,,,,,,,,,,,,,,,,
,,001,2022-04-29_03h10.49.017,classification_task,2021.2.3,Win32,57.89047123,5edc3d681a69d49159555f91,626b377229c10585ec392f8a,626b3ae5ebcb71ef549e6468,,,,,,,,,,,,,,,,,,,,,,,a,1,1.0167,"[""0.264"",""0.466"",""0.600"",""0.973""]","[0,1,1,1]",0,28,28,28,1,0,0,,,1,FALSE,,,,,,,,,,,,,,,,,,,,,,,,,,,,,,
,,001,2022-04-29_03h10.49.017,classification_task,2021.2.3,Win32,57.89047123,5edc3d681a69d49159555f91,626b377229c10585ec392f8a,626b3ae5ebcb71ef549e6468,,,,,,,,,,,,,,,,,,,,,,,a,1,0.8607,"[""0.312"",""0.561"",""0.780"",""0.100""]","[1,1,1,0]",0,29,29,29,1,0,1,,,1,FALSE,,,,,,,,,,,,,,,,,,,,,,,,,,,,,,
,,001,2022-04-29_03h10.49.017,classification_task,2021.2.3,Win32,57.89047123,5edc3d681a69d49159555f91,626b377229c10585ec392f8a,626b3ae5ebcb71ef549e6468,,,,,,,,,,,,,,,,,,,,,,,a,1,1.6768,"[""0.214"",""0.267"",""0.600"",""0.973""]","[1,0,1,1]",0,30,30,30,1,0,0,,,1,FALSE,,,,,,,,,,,,,,,,,,,,,,,,,,,,,,
,,001,2022-04-29_03h10.49.017,classification_task,2021.2.3,Win32,57.89047123,5edc3d681a69d49159555f91,626b377229c10585ec392f8a,626b3ae5ebcb71ef549e6468,,,,,,,,,,,,,,,,,,,,,,,a,1,1.2025,"[""0.214"",""0.466"",""0.600"",""0.857""]","[1,1,1,0]",0,31,31,31,1,0,0,,,1,FALSE,,,,,,,,,,,,,,,,,,,,,,,,,,,,,,
,,001,2022-04-29_03h10.49.017,classification_task,2021.2.3,Win32,57.89047123,5edc3d681a69d49159555f91,626b377229c10585ec392f8a,626b3ae5ebcb71ef549e6468,,,,,,,,,,,,,,,,,,,,,,,l,0,0.952,"[""0.214"",""0.466"",""0.828"",""0.973""]","[1,1,0,1]",0,32,32,32,1,0,0,,,1,FALSE,,,,,,,,,,,,,,,,,,,,,,,,,,,,,,
,,001,2022-04-29_03h10.49.017,classification_task,2021.2.3,Win32,57.89047123,5edc3d681a69d49159555f91,626b377229c10585ec392f8a,626b3ae5ebcb71ef549e6468,,,,,,,,,,,,,,,,,,,,,,,l,1,1.7355,"[""0.035"",""0.264"",""0.522"",""0.746""]","[1,0,1,1]",0,33,33,33,1,1,1,,,1,FALSE,,,,,,,,,,,,,,,,,,,,,,,,,,,,,,
,,001,2022-04-29_03h10.49.017,classification_task,2021.2.3,Win32,57.89047123,5edc3d681a69d49159555f91,626b377229c10585ec392f8a,626b3ae5ebcb71ef549e6468,,,,,,,,,,,,,,,,,,,,,,,l,1,1.0583,"[""0.828"",""0.409"",""0.522"",""0.746""]","[0,1,1,1]",0,34,34,34,1,1,1,,,1,FALSE,,,,,,,,,,,,,,,,,,,,,,,,,,,,,,
,,001,2022-04-29_03h10.49.017,classification_task,2021.2.3,Win32,57.89047123,5edc3d681a69d49159555f91,626b377229c10585ec392f8a,626b3ae5ebcb71ef549e6468,,,,,,,,,,,,,,,,,,,,,,,l,1,1.2396,"[""0.267"",""0.364"",""0.642"",""0.699""]","[0,1,1,1]",0,35,35,35,1,1,0,,,1,FALSE,,,,,,,,,,,,,,,,,,,,,,,,,,,,,,
,,001,2022-04-29_03h10.49.017,classification_task,2021.2.3,Win32,57.89047123,5edc3d681a69d49159555f91,626b377229c10585ec392f8a,626b3ae5ebcb71ef549e6468,,,,,,,,,,,,,,,,,,,,,,,l,1,1.1347,"[""0.140"",""0.364"",""0.642"",""0.854""]","[1,1,1,0]",0,36,36,36,1,1,0,,,1,FALSE,,,,,,,,,,,,,,,,,,,,,,,,,,,,,,
,,001,2022-04-29_03h10.49.017,classification_task,2021.2.3,Win32,57.89047123,5edc3d681a69d49159555f91,626b377229c10585ec392f8a,626b3ae5ebcb71ef549e6468,,,,,,,,,,,,,,,,,,,,,,,a,0,1.5191,"[""0.035"",""0.409"",""0.522"",""0.084""]","[1,1,1,0]",0,37,37,37,1,1,1,,,1,FALSE,,,,,,,,,,,,,,,,,,,,,,,,,,,,,,
,,001,2022-04-29_03h10.49.017,classification_task,2021.2.3,Win32,57.89047123,5edc3d681a69d49159555f91,626b377229c10585ec392f8a,626b3ae5ebcb71ef549e6468,,,,,,,,,,,,,,,,,,,,,,,l,1,1.1084,"[""0.035"",""0.409"",""0.842"",""0.746""]","[1,1,0,1]",0,38,38,38,1,1,1,,,1,FALSE,,,,,,,,,,,,,,,,,,,,,,,,,,,,,,
,,001,2022-04-29_03h10.49.017,classification_task,2021.2.3,Win32,57.89047123,5edc3d681a69d49159555f91,626b377229c10585ec392f8a,626b3ae5ebcb71ef549e6468,,,,,,,,,,,,,,,,,,,,,,,a,1,0.7108,"[""0.262"",""0.561"",""0.780"",""0.920""]","[0,1,1,1]",0,39,39,39,1,0,1,,,1,FALSE,,,,,,,,,,,,,,,,,,,,,,,,,,,,,,
,,001,2022-04-29_03h10.49.017,classification_task,2021.2.3,Win32,57.89047123,5edc3d681a69d49159555f91,626b377229c10585ec392f8a,626b3ae5ebcb71ef549e6468,,,,,,,,,,,,,,,,,,,,,,,a,1,1.9912,"[""0.264"",""0.466"",""0.600"",""0.973""]","[0,1,1,1]",0,40,40,40,1,0,0,,,1,FALSE,,,,,,,,,,,,,,,,,,,,,,,,,,,,,,
,,001,2022-04-29_03h10.49.017,classification_task,2021.2.3,Win32,57.89047123,5edc3d681a69d49159555f91,626b377229c10585ec392f8a,626b3ae5ebcb71ef549e6468,,,,,,,,,,,,,,,,,,,,,,,a,1,1.5422,"[""0.312"",""0.264"",""0.780"",""0.920""]","[1,0,1,1]",0,41,41,41,1,0,1,,,1,FALSE,,,,,,,,,,,,,,,,,,,,,,,,,,,,,,
,,001,2022-04-29_03h10.49.017,classification_task,2021.2.3,Win32,57.89047123,5edc3d681a69d49159555f91,626b377229c10585ec392f8a,626b3ae5ebcb71ef549e6468,,,,,,,,,,,,,,,,,,,,,,,l,1,1.0535,"[""0.140"",""0.264"",""0.642"",""0.699""]","[1,0,1,1]",0,42,42,42,1,1,0,,,1,FALSE,,,,,,,,,,,,,,,,,,,,,,,,,,,,,,
,,001,2022-04-29_03h10.49.017,classification_task,2021.2.3,Win32,57.89047123,5edc3d681a69d49159555f91,626b377229c10585ec392f8a,626b3ae5ebcb71ef549e6468,,,,,,,,,,,,,,,,,,,,,,,a,1,0.905,"[""0.312"",""0.561"",""0.780"",""0.857""]","[1,1,1,0]",0,43,43,43,1,0,1,,,1,FALSE,,,,,,,,,,,,,,,,,,,,,,,,,,,,,,
,,001,2022-04-29_03h10.49.017,classification_task,2021.2.3,Win32,57.89047123,5edc3d681a69d49159555f91,626b377229c10585ec392f8a,626b3ae5ebcb71ef549e6468,,,,,,,,,,,,,,,,,,,,,,,l,1,1.6238,"[""0.140"",""0.364"",""0.099"",""0.699""]","[1,1,0,1]",0,44,44,44,1,1,0,,,1,FALSE,,,,,,,,,,,,,,,,,,,,,,,,,,,,,,
,,001,2022-04-29_03h10.49.017,classification_task,2021.2.3,Win32,57.89047123,5edc3d681a69d49159555f91,626b377229c10585ec392f8a,626b3ae5ebcb71ef549e6468,,,,,,,,,,,,,,,,,,,,,,,a,1,1.4324,"[""0.214"",""0.863"",""0.600"",""0.973""]","[1,0,1,1]",0,45,45,45,1,0,0,,,1,FALSE,,,,,,,,,,,,,,,,,,,,,,,,,,,,,,
,,001,2022-04-29_03h10.49.017,classification_task,2021.2.3,Win32,57.89047123,5edc3d681a69d49159555f91,626b377229c10585ec392f8a,626b3ae5ebcb71ef549e6468,,,,,,,,,,,,,,,,,,,,,,,l,0,1.4106,"[""0.214"",""0.466"",""0.600"",""0.840""]","[1,1,1,0]",0,46,46,46,1,0,0,,,1,FALSE,,,,,,,,,,,,,,,,,,,,,,,,,,,,,,
,,001,2022-04-29_03h10.49.017,classification_task,2021.2.3,Win32,57.89047123,5edc3d681a69d49159555f91,626b377229c10585ec392f8a,626b3ae5ebcb71ef549e6468,,,,,,,,,,,,,,,,,,,,,,,a,1,1.0151,"[""0.312"",""0.561"",""0.099"",""0.920""]","[1,1,0,1]",0,47,47,47,1,0,1,,,1,FALSE,,,,,,,,,,,,,,,,,,,,,,,,,,,,,,
,,001,2022-04-29_03h10.49.017,classification_task,2021.2.3,Win32,57.89047123,5edc3d681a69d49159555f91,626b377229c10585ec392f8a,626b3ae5ebcb71ef549e6468,,,,,,,,,,,,,,,,,,,,,,,l,0,1.098,"[""0.214"",""0.466"",""0.600"",""0.264""]","[1,1,1,0]",0,48,48,48,1,0,0,,,1,FALSE,,,,,,,,,,,,,,,,,,,,,,,,,,,,,,
,,001,2022-04-29_03h10.49.017,classification_task,2021.2.3,Win32,57.89047123,5edc3d681a69d49159555f91,626b377229c10585ec392f8a,626b3ae5ebcb71ef549e6468,,,,,,,,,,,,,,,,,,,,,,,l,1,1.2163,"[""0.035"",""0.262"",""0.522"",""0.746""]","[1,0,1,1]",0,49,49,49,1,1,1,,,1,FALSE,,,,,,,,,,,,,,,,,,,,,,,,,,,,,,
,,001,2022-04-29_03h10.49.017,classification_task,2021.2.3,Win32,57.89047123,5edc3d681a69d49159555f91,626b377229c10585ec392f8a,626b3ae5ebcb71ef549e6468,,,,,,,,,,,,,,,,,,,,,,,l,1,0.8256,"[""0.140"",""0.364"",""0.642"",""0.099""]","[1,1,1,0]",0,50,50,50,1,1,0,,,1,FALSE,,,,,,,,,,,,,,,,,,,,,,,,,,,,,,
,,001,2022-04-29_03h10.49.017,classification_task,2021.2.3,Win32,57.89047123,5edc3d681a69d49159555f91,626b377229c10585ec392f8a,626b3ae5ebcb71ef549e6468,,,,,,,,,,,,,,,,,,,,,,,a,1,0.6326,"[""0.828"",""0.561"",""0.780"",""0.920""]","[0,1,1,1]",0,51,51,51,1,0,1,,,1,FALSE,,,,,,,,,,,,,,,,,,,,,,,,,,,,,,
,,001,2022-04-29_03h10.49.017,classification_task,2021.2.3,Win32,57.89047123,5edc3d681a69d49159555f91,626b377229c10585ec392f8a,626b3ae5ebcb71ef549e6468,,,,,,,,,,,,,,,,,,,,,,,a,1,1.2498,"[""0.178"",""0.466"",""0.600"",""0.973""]","[0,1,1,1]",0,52,52,52,1,0,0,,,1,FALSE,,,,,,,,,,,,,,,,,,,,,,,,,,,,,,
,,001,2022-04-29_03h10.49.017,classification_task,2021.2.3,Win32,57.89047123,5edc3d681a69d49159555f91,626b377229c10585ec392f8a,626b3ae5ebcb71ef549e6468,,,,,,,,,,,,,,,,,,,,,,,a,1,1.5032,"[""0.312"",""0.561"",""0.857"",""0.920""]","[1,1,0,1]",0,53,53,53,1,0,1,,,1,FALSE,,,,,,,,,,,,,,,,,,,,,,,,,,,,,,
,,001,2022-04-29_03h10.49.017,classification_task,2021.2.3,Win32,57.89047123,5edc3d681a69d49159555f91,626b377229c10585ec392f8a,626b3ae5ebcb71ef549e6468,,,,,,,,,,,,,,,,,,,,,,,a,1,0.8022,"[""0.312"",""0.561"",""0.780"",""0.084""]","[1,1,1,0]",0,54,54,54,1,0,1,,,1,FALSE,,,,,,,,,,,,,,,,,,,,,,,,,,,,,,
,,001,2022-04-29_03h10.49.017,classification_task,2021.2.3,Win32,57.89047123,5edc3d681a69d49159555f91,626b377229c10585ec392f8a,626b3ae5ebcb71ef549e6468,,,,,,,,,,,,,,,,,,,,,,,a,1,2.2468,"[""0.214"",""0.857"",""0.600"",""0.973""]","[1,0,1,1]",0,55,55,55,1,0,0,,,1,FALSE,,,,,,,,,,,,,,,,,,,,,,,,,,,,,,
,,001,2022-04-29_03h10.49.017,classification_task,2021.2.3,Win32,57.89047123,5edc3d681a69d49159555f91,626b377229c10585ec392f8a,626b3ae5ebcb71ef549e6468,,,,,,,,,,,,,,,,,,,,,,,a,1,0.6556,"[""0.312"",""0.099"",""0.780"",""0.920""]","[1,0,1,1]",0,56,56,56,1,0,1,,,1,FALSE,,,,,,,,,,,,,,,,,,,,,,,,,,,,,,
,,001,2022-04-29_03h10.49.017,classification_task,2021.2.3,Win32,57.89047123,5edc3d681a69d49159555f91,626b377229c10585ec392f8a,626b3ae5ebcb71ef549e6468,,,,,,,,,,,,,,,,,,,,,,,l,1,1.3486,"[""0.857"",""0.364"",""0.642"",""0.699""]","[0,1,1,1]",0,57,57,57,1,1,0,,,1,FALSE,,,,,,,,,,,,,,,,,,,,,,,,,,,,,,
,,001,2022-04-29_03h10.49.017,classification_task,2021.2.3,Win32,57.89047123,5edc3d681a69d49159555f91,626b377229c10585ec392f8a,626b3ae5ebcb71ef549e6468,,,,,,,,,,,,,,,,,,,,,,,l,1,0.6671,"[""0.140"",""0.100"",""0.642"",""0.699""]","[1,0,1,1]",0,58,58,58,1,1,0,,,1,FALSE,,,,,,,,,,,,,,,,,,,,,,,,,,,,,,
,,001,2022-04-29_03h10.49.017,classification_task,2021.2.3,Win32,57.89047123,5edc3d681a69d49159555f91,626b377229c10585ec392f8a,626b3ae5ebcb71ef549e6468,,,,,,,,,,,,,,,,,,,,,,,a,1,0.928,"[""0.214"",""0.466"",""0.262"",""0.973""]","[1,1,0,1]",0,59,59,59,1,0,0,,,1,FALSE,,,,,,,,,,,,,,,,,,,,,,,,,,,,,,
,,001,2022-04-29_03h10.49.017,classification_task,2021.2.3,Win32,57.89047123,5edc3d681a69d49159555f91,626b377229c10585ec392f8a,626b3ae5ebcb71ef549e6468,,,,,,,,,,,,,,,,,,,,,,,l,1,4.3091,"[""0.854"",""0.409"",""0.522"",""0.746""]","[0,1,1,1]",0,60,60,60,1,1,1,,,1,FALSE,,,,,,,,,,,,,,,,,,,,,,,,,,,,,,
,,001,2022-04-29_03h10.49.017,classification_task,2021.2.3,Win32,57.89047123,5edc3d681a69d49159555f91,626b377229c10585ec392f8a,626b3ae5ebcb71ef549e6468,,,,,,,,,,,,,,,,,,,,,,,l,1,0.9553,"[""0.035"",""0.409"",""0.522"",""0.070""]","[1,1,1,0]",0,61,61,61,1,1,1,,,1,FALSE,,,,,,,,,,,,,,,,,,,,,,,,,,,,,,
,,001,2022-04-29_03h10.49.017,classification_task,2021.2.3,Win32,57.89047123,5edc3d681a69d49159555f91,626b377229c10585ec392f8a,626b3ae5ebcb71ef549e6468,,,,,,,,,,,,,,,,,,,,,,,l,1,1.2145,"[""0.140"",""0.364"",""0.267"",""0.699""]","[1,1,0,1]",0,62,62,62,1,1,0,,,1,FALSE,,,,,,,,,,,,,,,,,,,,,,,,,,,,,,
,,001,2022-04-29_03h10.49.017,classification_task,2021.2.3,Win32,57.89047123,5edc3d681a69d49159555f91,626b377229c10585ec392f8a,626b3ae5ebcb71ef549e6468,,,,,,,,,,,,,,,,,,,,,,,l,1,1.2101,"[""0.035"",""0.409"",""0.262"",""0.746""]","[1,1,0,1]",0,63,63,63,1,1,1,,,1,FALSE,,,,,,,,,,,,,,,,,,,,,,,,,,,,,,
,,001,2022-04-29_03h10.49.017,classification_task,2021.2.3,Win32,57.89047123,5edc3d681a69d49159555f91,626b377229c10585ec392f8a,626b3ae5ebcb71ef549e6468,,,,,,,,,,,,,,,,,,,,,,,,,,,,,,,,,,,,,,,0, ,,0,7.549052028,200.9966,0,2,2,2,1,2,3,,,,,,,,,,,,,,,,,
,,001,2022-04-29_03h10.49.017,classification_task,2021.2.3,Win32,57.89047123,5edc3d681a69d49159555f91,626b377229c10585ec392f8a,626b3ae5ebcb71ef549e6468,,,,,,,,,,,,,,,,,,,,,,,,,,,,,,,,,,,,,,,1,  ,,0,8.54800485,205.9521,0,2,2,2,1,2,3,,,,,,,,,,,,,,,,,
,,001,2022-04-29_03h10.49.017,classification_task,2021.2.3,Win32,57.89047123,5edc3d681a69d49159555f91,626b377229c10585ec392f8a,626b3ae5ebcb71ef549e6468,,,,,,,,,,,,,,,,,,,,,,,,,,,,,,,,,,,,,,,2,  ,,0,7.82462522,207.227,0,2,2,2,1,2,3,,,,,,,,,,,,,,,,,
,,001,2022-04-29_03h10.49.017,classification_task,2021.2.3,Win32,57.89047123,5edc3d681a69d49159555f91,626b377229c10585ec392f8a,626b3ae5ebcb71ef549e6468,,,,,,,,,,,,,,,,,,,,,,,,,,,,,,,,,,,,,,,,,,,,,0,2,2,2,1,,3,,,,,,,,,,,,,,,,,
,,001,2022-04-29_03h10.49.017,classification_task,2021.2.3,Win32,57.89047123,5edc3d681a69d49159555f91,626b377229c10585ec392f8a,626b3ae5ebcb71ef549e6468,,,,,,,,,,,,,,,,,,,,,,,,,,,,,,,,,,,,,,,,,,,,,,,,,,,,,I believe the aid is a competent performer,,0.7,0,4,1217.7808,0,0,0,0,1,0,,,,
,,001,2022-04-29_03h10.49.017,classification_task,2021.2.3,Win32,57.89047123,5edc3d681a69d49159555f91,626b377229c10585ec392f8a,626b3ae5ebcb71ef549e6468,,,,,,,,,,,,,,,,,,,,,,,,,,,,,,,,,,,,,,,,,,,,,,,,,,,,,I trust the aid,,0.7,0,3,1220.2155,0,0,0,0,1,0,,,,
,,001,2022-04-29_03h10.49.017,classification_task,2021.2.3,Win32,57.89047123,5edc3d681a69d49159555f91,626b377229c10585ec392f8a,626b3ae5ebcb71ef549e6468,,,,,,,,,,,,,,,,,,,,,,,,,,,,,,,,,,,,,,,,,,,,,,,,,,,,,I have confidence in the advice given by the aid,,0.7,0,4,1222.99,0,0,0,0,1,0,,,,
,,001,2022-04-29_03h10.49.017,classification_task,2021.2.3,Win32,57.89047123,5edc3d681a69d49159555f91,626b377229c10585ec392f8a,626b3ae5ebcb71ef549e6468,,,,,,,,,,,,,,,,,,,,,,,,,,,,,,,,,,,,,,,,,,,,,,,,,,,,,I can depend on the aid,,0.7,0,4,1224.1744,0,0,0,0,1,0,,,,
,,001,2022-04-29_03h10.49.017,classification_task,2021.2.3,Win32,57.89047123,5edc3d681a69d49159555f91,626b377229c10585ec392f8a,626b3ae5ebcb71ef549e6468,,,,,,,,,,,,,,,,,,,,,,,,,,,,,,,,,,,,,,,,,,,,,,,,,,,,,I can rely on the aid to behave in consistent ways,,0.7,0,4,1258.8004,0,0,0,0,1,0,,,,
,,001,2022-04-29_03h10.49.017,classification_task,2021.2.3,Win32,57.89047123,5edc3d681a69d49159555f91,626b377229c10585ec392f8a,626b3ae5ebcb71ef549e6468,,,,,,,,,,,,,,,,,,,,,,,,,,,,,,,,,,,,,,,,,,,,,,,,,,,,,I can rely on the aid to do its best every time I take its advice,,0.7,0,4,1230.052,0,0,0,0,1,0,,,,
,,001,2022-04-29_03h10.49.017,classification_task,2021.2.3,Win32,57.89047123,5edc3d681a69d49159555f91,626b377229c10585ec392f8a,626b3ae5ebcb71ef549e6468,,,,,,,,,,,,,,,,,,,,,,,,,,,,,,,,,,,,,,,,,,,,,,,,,,,,,"On trials you completed with assistance from the aid, how frequently did you think the aid was correct?",,0.7,0,90%,,0,0,0,0,1,0,,,,
,,001,2022-04-29_03h10.49.017,classification_task,2021.2.3,Win32,57.89047123,5edc3d681a69d49159555f91,626b377229c10585ec392f8a,626b3ae5ebcb71ef549e6468,,,,,,,,,,,,,,,,,,,,,,,,,,,,,,,,,,,,,,,,,,,,,,,,,,,,,"On trials you completed without the aid, how frequently did you think you were correct?",,0.7,0,50%,,0,0,0,0,1,0,,,,
,,001,2022-04-29_03h10.49.017,classification_task,2021.2.3,Win32,57.89047123,5edc3d681a69d49159555f91,626b377229c10585ec392f8a,626b3ae5ebcb71ef549e6468,,,,,,,,,,,,,,,,,,,,,,,,,,,,,,,,,,,,,,,,,,,,,,,,,,,,,,,,,,,0,0,0,0,1,,,,,
,,001,2022-04-29_03h10.49.017,classification_task,2021.2.3,Win32,57.89047123,5edc3d681a69d49159555f91,626b377229c10585ec392f8a,626b3ae5ebcb71ef549e6468,,,,,,,,,,,,,,,,,,,,,,,,,,,,,,,,,,,,,,,,,,,,,,,,,,,,,,,,,,,,,,,,,space,16.0951,1276.4362,
,,001,2022-04-29_03h10.49.017,classification_task,2021.2.3,Win32,57.89047123,5edc3d681a69d49159555f91,626b377229c10585ec392f8a,626b3ae5ebcb71ef549e6468,,,,,,,,,,,,,,,,,,,,,,,,,,,,,,,,,,,,,,,,,,,,,,,,,,,,,,,,,,,,,,,,,,,,"Mozilla/5.0 (Windows NT 10.0; Win64; x64) AppleWebKit/537.36 (KHTML, like Gecko) Chrome/100.0.4896.127 Safari/537.36"
