usingWebGL,participant,session,date,expName,psychopyVersion,OS,frameRate,PROLIFIC_PID,STUDY_ID,SESSION_ID,signatures_friend,signatures_foe,band_ranges_top,band_ranges_bottom,formitemText,formtype,formundefined,formitemWidth,formindex,formresponse,formrt,key_resp_2.keys,key_resp_2.rt,tute_resp.keys,tute_resp.rt,tutorial.thisRepN,tutorial.thisTrialN,tutorial.thisN,tutorial.thisIndex,tutorial.ran,key_resp_4.keys,key_resp_4.rt,key_resp.keys,key_resp.corr,lines_presented,is_signal_presented,trials.thisRepN,trials.thisTrialN,trials.thisN,trials.thisIndex,trials.ran,vessel,active_band,lines,is_signal,supported_pos,catch_trial,key_resp.rt,debrief_formindex,debrief_formitemText,debrief_formtype,debrief_formitemWidth,debrief_formresponse,debrief_formrt,phases.thisRepN,phases.thisTrialN,phases.thisN,phases.thisIndex,phases.ran,phases.order,phase,key_resp_3.keys,trustitemText,trusttype,trustitemWidth,trustindex,trustresponse,trustrt,support_status.thisRepN,support_status.thisTrialN,support_status.thisN,support_status.thisIndex,support_status.ran,support_status.order,key_resp_5.keys,key_resp_5.rt,globalClockTime,userAgent
TRUE,,001,2022-04-29_03h04.20.843,classification_task,2021.2.3,Win32,59.92329818,600e3038c619716c21784ae5,626b377229c10585ec392f89,626b38d99f3f5c490a3661af,,,,,,,,,,,,,,,,,,,,,,,,,,,,,,,,,,,,,,,,,,,,,,,,,,,,,,,,,,,,,,,,,,,,
,,001,2022-04-29_03h04.20.843,classification_task,2021.2.3,Win32,59.92329818,600e3038c619716c21784ae5,626b377229c10585ec392f89,626b38d99f3f5c490a3661af,"[[""0.293"",""0.397"",""0.935"",""0.974""],[""0.176"",""0.547"",""0.592"",""0.892""]]","[[""0.072"",""0.110"",""0.473"",""0.792""],[""0.037"",""0.332"",""0.635"",""0.704""]]","[1,10]","[100,1000]",Video game experience,,,0.7,0,,,,,,,,,,,,,,,,,,,,,,,,,,,,,,,,,,,,,,,,,,,,,,,,,,,,,,,,,,,
,,001,2022-04-29_03h04.20.843,classification_task,2021.2.3,Win32,59.92329818,600e3038c619716c21784ae5,626b377229c10585ec392f89,626b38d99f3f5c490a3661af,,,,,Approximately how many hours did you spend playing video games in the last week?,,,0.7,0,28,,,,,,,,,,,,,,,,,,,,,,,,,,,,,,,,,,,,,,,,,,,,,,,,,,,,,,,,,,
,,001,2022-04-29_03h04.20.843,classification_task,2021.2.3,Win32,59.92329818,600e3038c619716c21784ae5,626b377229c10585ec392f89,626b38d99f3f5c490a3661af,,,,,"Which game did you play the most this year? (Enter ""None"" if you didn't play any)",,,0.7,0,Fifa 22,,,,,,,,,,,,,,,,,,,,,,,,,,,,,,,,,,,,,,,,,,,,,,,,,,,,,,,,,,
,,001,2022-04-29_03h04.20.843,classification_task,2021.2.3,Win32,59.92329818,600e3038c619716c21784ae5,626b377229c10585ec392f89,626b38d99f3f5c490a3661af,,,,,Visual perception,,,0.7,0,,,,,,,,,,,,,,,,,,,,,,,,,,,,,,,,,,,,,,,,,,,,,,,,,,,,,,,,,,,
,,001,2022-04-29_03h04.20.843,classification_task,2021.2.3,Win32,59.92329818,600e3038c619716c21784ae5,626b377229c10585ec392f89,626b38d99f3f5c490a3661af,,,,,Do you have any form of color blindness?,,,0.7,0,No,49.2337,,,,,,,,,,,,,,,,,,,,,,,,,,,,,,,,,,,,,,,,,,,,,,,,,,,,,,,,,
,,001,2022-04-29_03h04.20.843,classification_task,2021.2.3,Win32,59.92329818,600e3038c619716c21784ae5,626b377229c10585ec392f89,626b38d99f3f5c490a3661af,,,,,Do you use software to change the colour temperature of your screen (e.g. f.lux)?,,,0.7,0,No,50.1169,,,,,,,,,,,,,,,,,,,,,,,,,,,,,,,,,,,,,,,,,,,,,,,,,,,,,,,,,
,,001,2022-04-29_03h04.20.843,classification_task,2021.2.3,Win32,59.92329818,600e3038c619716c21784ae5,626b377229c10585ec392f89,626b38d99f3f5c490a3661af,,,,,,,,,,,,space,26.9151,space,8.3217,0,0,0,0,1,,,,,,,,,,,,,,,,,,,,,,,,,,,,,,,,,,,,,,,,,,,,,,,,
,,001,2022-04-29_03h04.20.843,classification_task,2021.2.3,Win32,59.92329818,600e3038c619716c21784ae5,626b377229c10585ec392f89,626b38d99f3f5c490a3661af,,,,,,,,,,,,,,space,9.4734,1,0,1,0,1,,,,,,,,,,,,,,,,,,,,,,,,,,,,,,,,,,,,,,,,,,,,,,,,
,,001,2022-04-29_03h04.20.843,classification_task,2021.2.3,Win32,59.92329818,600e3038c619716c21784ae5,626b377229c10585ec392f89,626b38d99f3f5c490a3661af,,,,,,,,,,,,,,space,12.6979,2,0,2,0,1,,,,,,,,,,,,,,,,,,,,,,,,,,,,,,,,,,,,,,,,,,,,,,,,
,,001,2022-04-29_03h04.20.843,classification_task,2021.2.3,Win32,59.92329818,600e3038c619716c21784ae5,626b377229c10585ec392f89,626b38d99f3f5c490a3661af,,,,,,,,,,,,,,space,23.3093,3,0,3,0,1,,,,,,,,,,,,,,,,,,,,,,,,,,,,,,,,,,,,,,,,,,,,,,,,
,,001,2022-04-29_03h04.20.843,classification_task,2021.2.3,Win32,59.92329818,600e3038c619716c21784ae5,626b377229c10585ec392f89,626b38d99f3f5c490a3661af,,,,,,,,,,,,,,space,15.0397,4,0,4,0,1,,,,,,,,,,,,,,,,,,,,,,,,,,,,,,,,,,,,,,,,,,,,,,,,
,,001,2022-04-29_03h04.20.843,classification_task,2021.2.3,Win32,59.92329818,600e3038c619716c21784ae5,626b377229c10585ec392f89,626b38d99f3f5c490a3661af,,,,,,,,,,,,,,,,,,,,,space,15.2762,,0,"[""0.293"",""0.397"",""0.237"",""0.974""]","[1,1,0,1]",0,0,0,0,1,0,0,,,0,FALSE,,,,,,,,,,,,,,,,,,,,,,,,,,,,,,,
,,001,2022-04-29_03h04.20.843,classification_task,2021.2.3,Win32,59.92329818,600e3038c619716c21784ae5,626b377229c10585ec392f89,626b38d99f3f5c490a3661af,,,,,,,,,,,,,,,,,,,,,,,l,0,"[""0.176"",""0.547"",""0.744"",""0.892""]","[1,1,0,1]",0,1,1,1,1,0,1,,,0,FALSE,4.472,,,,,,,,,,,,,,,,,,,,,,,,,,,,,,
,,001,2022-04-29_03h04.20.843,classification_task,2021.2.3,Win32,59.92329818,600e3038c619716c21784ae5,626b377229c10585ec392f89,626b38d99f3f5c490a3661af,,,,,,,,,,,,,,,,,,,,,,,a,0,"[""0.856"",""0.110"",""0.473"",""0.792""]","[0,1,1,1]",0,2,2,2,1,1,0,,,0,FALSE,1.6339,,,,,,,,,,,,,,,,,,,,,,,,,,,,,,
,,001,2022-04-29_03h04.20.843,classification_task,2021.2.3,Win32,59.92329818,600e3038c619716c21784ae5,626b377229c10585ec392f89,626b38d99f3f5c490a3661af,,,,,,,,,,,,,,,,,,,,,,,a,1,"[""0.176"",""0.547"",""0.592"",""0.212""]","[1,1,1,0]",0,3,3,3,1,0,1,,,0,FALSE,1.0995,,,,,,,,,,,,,,,,,,,,,,,,,,,,,,
,,001,2022-04-29_03h04.20.843,classification_task,2021.2.3,Win32,59.92329818,600e3038c619716c21784ae5,626b377229c10585ec392f89,626b38d99f3f5c490a3661af,,,,,,,,,,,,,,,,,,,,,,,l,0,"[""0.750"",""0.547"",""0.592"",""0.892""]","[0,1,1,1]",0,4,4,4,1,0,1,,,0,FALSE,2.035,,,,,,,,,,,,,,,,,,,,,,,,,,,,,,
,,001,2022-04-29_03h04.20.843,classification_task,2021.2.3,Win32,59.92329818,600e3038c619716c21784ae5,626b377229c10585ec392f89,626b38d99f3f5c490a3661af,,,,,,,,,,,,,,,,,,,,,,,l,1,"[""0.237"",""0.332"",""0.635"",""0.704""]","[0,1,1,1]",0,5,5,5,1,1,1,,,0,FALSE,1.3829,,,,,,,,,,,,,,,,,,,,,,,,,,,,,,
,,001,2022-04-29_03h04.20.843,classification_task,2021.2.3,Win32,59.92329818,600e3038c619716c21784ae5,626b377229c10585ec392f89,626b38d99f3f5c490a3661af,,,,,,,,,,,,,,,,,,,,,,,l,0,"[""0.751"",""0.397"",""0.935"",""0.974""]","[0,1,1,1]",0,6,6,6,1,0,0,,,0,FALSE,1.0137,,,,,,,,,,,,,,,,,,,,,,,,,,,,,,
,,001,2022-04-29_03h04.20.843,classification_task,2021.2.3,Win32,59.92329818,600e3038c619716c21784ae5,626b377229c10585ec392f89,626b38d99f3f5c490a3661af,,,,,,,,,,,,,,,,,,,,,,,l,0,"[""0.293"",""0.397"",""0.935"",""0.856""]","[1,1,1,0]",0,7,7,7,1,0,0,,,0,FALSE,5.2949,,,,,,,,,,,,,,,,,,,,,,,,,,,,,,
,,001,2022-04-29_03h04.20.843,classification_task,2021.2.3,Win32,59.92329818,600e3038c619716c21784ae5,626b377229c10585ec392f89,626b38d99f3f5c490a3661af,,,,,,,,,,,,,,,,,,,,,,,l,1,"[""0.037"",""0.332"",""0.506"",""0.704""]","[1,1,0,1]",0,8,8,8,1,1,1,,,0,FALSE,6.0793,,,,,,,,,,,,,,,,,,,,,,,,,,,,,,
,,001,2022-04-29_03h04.20.843,classification_task,2021.2.3,Win32,59.92329818,600e3038c619716c21784ae5,626b377229c10585ec392f89,626b38d99f3f5c490a3661af,,,,,,,,,,,,,,,,,,,,,,,a,1,"[""0.176"",""0.839"",""0.592"",""0.892""]","[1,0,1,1]",0,9,9,9,1,0,1,,,0,FALSE,7.1506,,,,,,,,,,,,,,,,,,,,,,,,,,,,,,
,,001,2022-04-29_03h04.20.843,classification_task,2021.2.3,Win32,59.92329818,600e3038c619716c21784ae5,626b377229c10585ec392f89,626b38d99f3f5c490a3661af,,,,,,,,,,,,,,,,,,,,,,,a,0,"[""0.072"",""0.839"",""0.473"",""0.792""]","[1,0,1,1]",0,10,10,10,1,1,0,,,0,FALSE,5.477,,,,,,,,,,,,,,,,,,,,,,,,,,,,,,
,,001,2022-04-29_03h04.20.843,classification_task,2021.2.3,Win32,59.92329818,600e3038c619716c21784ae5,626b377229c10585ec392f89,626b38d99f3f5c490a3661af,,,,,,,,,,,,,,,,,,,,,,,a,1,"[""0.293"",""0.216"",""0.935"",""0.974""]","[1,0,1,1]",0,11,11,11,1,0,0,,,0,FALSE,6.1632,,,,,,,,,,,,,,,,,,,,,,,,,,,,,,
,,001,2022-04-29_03h04.20.843,classification_task,2021.2.3,Win32,59.92329818,600e3038c619716c21784ae5,626b377229c10585ec392f89,626b38d99f3f5c490a3661af,,,,,,,,,,,,,,,,,,,,,,,a,0,"[""0.072"",""0.110"",""0.856"",""0.792""]","[1,1,0,1]",0,12,12,12,1,1,0,,,0,FALSE,6.0649,,,,,,,,,,,,,,,,,,,,,,,,,,,,,,
,,001,2022-04-29_03h04.20.843,classification_task,2021.2.3,Win32,59.92329818,600e3038c619716c21784ae5,626b377229c10585ec392f89,626b38d99f3f5c490a3661af,,,,,,,,,,,,,,,,,,,,,,,l,1,"[""0.072"",""0.110"",""0.473"",""0.853""]","[1,1,1,0]",0,13,13,13,1,1,0,,,0,FALSE,5.1617,,,,,,,,,,,,,,,,,,,,,,,,,,,,,,
,,001,2022-04-29_03h04.20.843,classification_task,2021.2.3,Win32,59.92329818,600e3038c619716c21784ae5,626b377229c10585ec392f89,626b38d99f3f5c490a3661af,,,,,,,,,,,,,,,,,,,,,,,a,0,"[""0.037"",""0.332"",""0.635"",""0.853""]","[1,1,1,0]",0,14,14,14,1,1,1,,,0,FALSE,5.2771,,,,,,,,,,,,,,,,,,,,,,,,,,,,,,
,,001,2022-04-29_03h04.20.843,classification_task,2021.2.3,Win32,59.92329818,600e3038c619716c21784ae5,626b377229c10585ec392f89,626b38d99f3f5c490a3661af,,,,,,,,,,,,,,,,,,,,,,,l,1,"[""0.037"",""0.853"",""0.635"",""0.704""]","[1,0,1,1]",0,15,15,15,1,1,1,,,0,FALSE,2.8725,,,,,,,,,,,,,,,,,,,,,,,,,,,,,,
,,001,2022-04-29_03h04.20.843,classification_task,2021.2.3,Win32,59.92329818,600e3038c619716c21784ae5,626b377229c10585ec392f89,626b38d99f3f5c490a3661af,,,,,,,,,,,,,,,,,,,,,,,l,1,"[""0.037"",""0.853"",""0.635"",""0.704""]","[1,0,1,1]",0,16,16,16,1,1,1,,,0,FALSE,1.0676,,,,,,,,,,,,,,,,,,,,,,,,,,,,,,
,,001,2022-04-29_03h04.20.843,classification_task,2021.2.3,Win32,59.92329818,600e3038c619716c21784ae5,626b377229c10585ec392f89,626b38d99f3f5c490a3661af,,,,,,,,,,,,,,,,,,,,,,,a,0,"[""0.072"",""0.110"",""0.473"",""0.212""]","[1,1,1,0]",0,17,17,17,1,1,0,,,0,FALSE,0.7814,,,,,,,,,,,,,,,,,,,,,,,,,,,,,,
,,001,2022-04-29_03h04.20.843,classification_task,2021.2.3,Win32,59.92329818,600e3038c619716c21784ae5,626b377229c10585ec392f89,626b38d99f3f5c490a3661af,,,,,,,,,,,,,,,,,,,,,,,a,1,"[""0.293"",""0.750"",""0.935"",""0.974""]","[1,0,1,1]",0,18,18,18,1,0,0,,,0,FALSE,2.6385,,,,,,,,,,,,,,,,,,,,,,,,,,,,,,
,,001,2022-04-29_03h04.20.843,classification_task,2021.2.3,Win32,59.92329818,600e3038c619716c21784ae5,626b377229c10585ec392f89,626b38d99f3f5c490a3661af,,,,,,,,,,,,,,,,,,,,,,,l,0,"[""0.176"",""0.547"",""0.592"",""0.222""]","[1,1,1,0]",0,19,19,19,1,0,1,,,0,FALSE,4.859,,,,,,,,,,,,,,,,,,,,,,,,,,,,,,
,,001,2022-04-29_03h04.20.843,classification_task,2021.2.3,Win32,59.92329818,600e3038c619716c21784ae5,626b377229c10585ec392f89,626b38d99f3f5c490a3661af,,,,,,,,,,,,,,,,,,,,,,,l,1,"[""0.037"",""0.332"",""0.839"",""0.704""]","[1,1,0,1]",0,20,20,20,1,1,1,,,0,FALSE,2.5392,,,,,,,,,,,,,,,,,,,,,,,,,,,,,,
,,001,2022-04-29_03h04.20.843,classification_task,2021.2.3,Win32,59.92329818,600e3038c619716c21784ae5,626b377229c10585ec392f89,626b38d99f3f5c490a3661af,,,,,,,,,,,,,,,,,,,,,,,l,1,"[""0.072"",""0.751"",""0.473"",""0.792""]","[1,0,1,1]",0,21,21,21,1,1,0,,,0,FALSE,2.0012,,,,,,,,,,,,,,,,,,,,,,,,,,,,,,
,,001,2022-04-29_03h04.20.843,classification_task,2021.2.3,Win32,59.92329818,600e3038c619716c21784ae5,626b377229c10585ec392f89,626b38d99f3f5c490a3661af,,,,,,,,,,,,,,,,,,,,,,,a,1,"[""0.237"",""0.547"",""0.592"",""0.892""]","[0,1,1,1]",0,22,22,22,1,0,1,,,0,FALSE,4.2403,,,,,,,,,,,,,,,,,,,,,,,,,,,,,,
,,001,2022-04-29_03h04.20.843,classification_task,2021.2.3,Win32,59.92329818,600e3038c619716c21784ae5,626b377229c10585ec392f89,626b38d99f3f5c490a3661af,,,,,,,,,,,,,,,,,,,,,,,l,1,"[""0.072"",""0.110"",""0.506"",""0.792""]","[1,1,0,1]",0,23,23,23,1,1,0,,,0,FALSE,2.052,,,,,,,,,,,,,,,,,,,,,,,,,,,,,,
,,001,2022-04-29_03h04.20.843,classification_task,2021.2.3,Win32,59.92329818,600e3038c619716c21784ae5,626b377229c10585ec392f89,626b38d99f3f5c490a3661af,,,,,,,,,,,,,,,,,,,,,,,l,1,"[""0.037"",""0.332"",""0.635"",""0.222""]","[1,1,1,0]",0,24,24,24,1,1,1,,,0,FALSE,1.9007,,,,,,,,,,,,,,,,,,,,,,,,,,,,,,
,,001,2022-04-29_03h04.20.843,classification_task,2021.2.3,Win32,59.92329818,600e3038c619716c21784ae5,626b377229c10585ec392f89,626b38d99f3f5c490a3661af,,,,,,,,,,,,,,,,,,,,,,,a,1,"[""0.176"",""0.547"",""0.212"",""0.892""]","[1,1,0,1]",0,25,25,25,1,0,1,,,0,FALSE,2.7384,,,,,,,,,,,,,,,,,,,,,,,,,,,,,,
,,001,2022-04-29_03h04.20.843,classification_task,2021.2.3,Win32,59.92329818,600e3038c619716c21784ae5,626b377229c10585ec392f89,626b38d99f3f5c490a3661af,,,,,,,,,,,,,,,,,,,,,,,a,0,"[""0.853"",""0.332"",""0.635"",""0.704""]","[0,1,1,1]",0,26,26,26,1,1,1,,,0,FALSE,1.9029,,,,,,,,,,,,,,,,,,,,,,,,,,,,,,
,,001,2022-04-29_03h04.20.843,classification_task,2021.2.3,Win32,59.92329818,600e3038c619716c21784ae5,626b377229c10585ec392f89,626b38d99f3f5c490a3661af,,,,,,,,,,,,,,,,,,,,,,,a,1,"[""0.176"",""0.744"",""0.592"",""0.892""]","[1,0,1,1]",0,27,27,27,1,0,1,,,0,FALSE,2.271,,,,,,,,,,,,,,,,,,,,,,,,,,,,,,
,,001,2022-04-29_03h04.20.843,classification_task,2021.2.3,Win32,59.92329818,600e3038c619716c21784ae5,626b377229c10585ec392f89,626b38d99f3f5c490a3661af,,,,,,,,,,,,,,,,,,,,,,,l,1,"[""0.856"",""0.110"",""0.473"",""0.792""]","[0,1,1,1]",0,28,28,28,1,1,0,,,0,FALSE,3.0042,,,,,,,,,,,,,,,,,,,,,,,,,,,,,,
,,001,2022-04-29_03h04.20.843,classification_task,2021.2.3,Win32,59.92329818,600e3038c619716c21784ae5,626b377229c10585ec392f89,626b38d99f3f5c490a3661af,,,,,,,,,,,,,,,,,,,,,,,a,1,"[""0.293"",""0.397"",""0.212"",""0.974""]","[1,1,0,1]",0,29,29,29,1,0,0,,,0,FALSE,0.8846,,,,,,,,,,,,,,,,,,,,,,,,,,,,,,
,,001,2022-04-29_03h04.20.843,classification_task,2021.2.3,Win32,59.92329818,600e3038c619716c21784ae5,626b377229c10585ec392f89,626b38d99f3f5c490a3661af,,,,,,,,,,,,,,,,,,,,,,,l,0,"[""0.241"",""0.397"",""0.935"",""0.974""]","[0,1,1,1]",0,30,30,30,1,0,0,,,0,FALSE,0.9344,,,,,,,,,,,,,,,,,,,,,,,,,,,,,,
,,001,2022-04-29_03h04.20.843,classification_task,2021.2.3,Win32,59.92329818,600e3038c619716c21784ae5,626b377229c10585ec392f89,626b38d99f3f5c490a3661af,,,,,,,,,,,,,,,,,,,,,,,a,1,"[""0.293"",""0.397"",""0.935"",""0.222""]","[1,1,1,0]",0,31,31,31,1,0,0,,,0,FALSE,2.154,,,,,,,,,,,,,,,,,,,,,,,,,,,,,,
,,001,2022-04-29_03h04.20.843,classification_task,2021.2.3,Win32,59.92329818,600e3038c619716c21784ae5,626b377229c10585ec392f89,626b38d99f3f5c490a3661af,,,,,,,,,,,,,,,,,,,,,,,,0,"[""0.037"",""0.332"",""0.635"",""0.506""]","[1,1,1,0]",0,32,32,32,1,1,1,,,0,FALSE,,,,,,,,,,,,,,,,,,,,,,,,,,,,,,,
,,001,2022-04-29_03h04.20.843,classification_task,2021.2.3,Win32,59.92329818,600e3038c619716c21784ae5,626b377229c10585ec392f89,626b38d99f3f5c490a3661af,,,,,,,,,,,,,,,,,,,,,,,a,1,"[""0.176"",""0.212"",""0.592"",""0.892""]","[1,0,1,1]",0,33,33,33,1,0,1,,,0,FALSE,3.4572,,,,,,,,,,,,,,,,,,,,,,,,,,,,,,
,,001,2022-04-29_03h04.20.843,classification_task,2021.2.3,Win32,59.92329818,600e3038c619716c21784ae5,626b377229c10585ec392f89,626b38d99f3f5c490a3661af,,,,,,,,,,,,,,,,,,,,,,,l,1,"[""0.037"",""0.332"",""0.751"",""0.704""]","[1,1,0,1]",0,34,34,34,1,1,1,,,0,FALSE,0.5831,,,,,,,,,,,,,,,,,,,,,,,,,,,,,,
,,001,2022-04-29_03h04.20.843,classification_task,2021.2.3,Win32,59.92329818,600e3038c619716c21784ae5,626b377229c10585ec392f89,626b38d99f3f5c490a3661af,,,,,,,,,,,,,,,,,,,,,,,l,1,"[""0.241"",""0.332"",""0.635"",""0.704""]","[0,1,1,1]",0,35,35,35,1,1,1,,,0,FALSE,0.3835,,,,,,,,,,,,,,,,,,,,,,,,,,,,,,
,,001,2022-04-29_03h04.20.843,classification_task,2021.2.3,Win32,59.92329818,600e3038c619716c21784ae5,626b377229c10585ec392f89,626b38d99f3f5c490a3661af,,,,,,,,,,,,,,,,,,,,,,,a,1,"[""0.293"",""0.397"",""0.935"",""0.216""]","[1,1,1,0]",0,36,36,36,1,0,0,,,0,FALSE,0.3492,,,,,,,,,,,,,,,,,,,,,,,,,,,,,,
,,001,2022-04-29_03h04.20.843,classification_task,2021.2.3,Win32,59.92329818,600e3038c619716c21784ae5,626b377229c10585ec392f89,626b38d99f3f5c490a3661af,,,,,,,,,,,,,,,,,,,,,,,a,0,"[""0.072"",""0.750"",""0.473"",""0.792""]","[1,0,1,1]",0,37,37,37,1,1,0,,,0,FALSE,0.4478,,,,,,,,,,,,,,,,,,,,,,,,,,,,,,
,,001,2022-04-29_03h04.20.843,classification_task,2021.2.3,Win32,59.92329818,600e3038c619716c21784ae5,626b377229c10585ec392f89,626b38d99f3f5c490a3661af,,,,,,,,,,,,,,,,,,,,,,,a,0,"[""0.072"",""0.110"",""0.744"",""0.792""]","[1,1,0,1]",0,38,38,38,1,1,0,,,0,FALSE,0.4329,,,,,,,,,,,,,,,,,,,,,,,,,,,,,,
,,001,2022-04-29_03h04.20.843,classification_task,2021.2.3,Win32,59.92329818,600e3038c619716c21784ae5,626b377229c10585ec392f89,626b38d99f3f5c490a3661af,,,,,,,,,,,,,,,,,,,,,,,l,0,"[""0.506"",""0.397"",""0.935"",""0.974""]","[0,1,1,1]",0,39,39,39,1,0,0,,,0,FALSE,0.2489,,,,,,,,,,,,,,,,,,,,,,,,,,,,,,
,,001,2022-04-29_03h04.20.843,classification_task,2021.2.3,Win32,59.92329818,600e3038c619716c21784ae5,626b377229c10585ec392f89,626b38d99f3f5c490a3661af,,,,,,,,,,,,,,,,,,,,,,,a,1,"[""0.293"",""0.397"",""0.237"",""0.974""]","[1,1,0,1]",0,40,40,40,1,0,0,,,0,FALSE,0.2657,,,,,,,,,,,,,,,,,,,,,,,,,,,,,,
,,001,2022-04-29_03h04.20.843,classification_task,2021.2.3,Win32,59.92329818,600e3038c619716c21784ae5,626b377229c10585ec392f89,626b38d99f3f5c490a3661af,,,,,,,,,,,,,,,,,,,,,,,a,0,"[""0.072"",""0.110"",""0.473"",""0.213""]","[1,1,1,0]",0,41,41,41,1,1,0,,,0,FALSE,1.3681,,,,,,,,,,,,,,,,,,,,,,,,,,,,,,
,,001,2022-04-29_03h04.20.843,classification_task,2021.2.3,Win32,59.92329818,600e3038c619716c21784ae5,626b377229c10585ec392f89,626b38d99f3f5c490a3661af,,,,,,,,,,,,,,,,,,,,,,,l,1,"[""0.037"",""0.506"",""0.635"",""0.704""]","[1,0,1,1]",0,42,42,42,1,1,1,,,0,FALSE,0.2995,,,,,,,,,,,,,,,,,,,,,,,,,,,,,,
,,001,2022-04-29_03h04.20.843,classification_task,2021.2.3,Win32,59.92329818,600e3038c619716c21784ae5,626b377229c10585ec392f89,626b38d99f3f5c490a3661af,,,,,,,,,,,,,,,,,,,,,,,a,1,"[""0.176"",""0.547"",""0.592"",""0.212""]","[1,1,1,0]",0,43,43,43,1,0,1,,,0,FALSE,0.6172,,,,,,,,,,,,,,,,,,,,,,,,,,,,,,
,,001,2022-04-29_03h04.20.843,classification_task,2021.2.3,Win32,59.92329818,600e3038c619716c21784ae5,626b377229c10585ec392f89,626b38d99f3f5c490a3661af,,,,,,,,,,,,,,,,,,,,,,,l,0,"[""0.176"",""0.547"",""0.222"",""0.892""]","[1,1,0,1]",0,44,44,44,1,0,1,,,0,FALSE,1.166,,,,,,,,,,,,,,,,,,,,,,,,,,,,,,
,,001,2022-04-29_03h04.20.843,classification_task,2021.2.3,Win32,59.92329818,600e3038c619716c21784ae5,626b377229c10585ec392f89,626b38d99f3f5c490a3661af,,,,,,,,,,,,,,,,,,,,,,,l,0,"[""0.839"",""0.547"",""0.592"",""0.892""]","[0,1,1,1]",0,45,45,45,1,0,1,,,0,FALSE,2.3044,,,,,,,,,,,,,,,,,,,,,,,,,,,,,,
,,001,2022-04-29_03h04.20.843,classification_task,2021.2.3,Win32,59.92329818,600e3038c619716c21784ae5,626b377229c10585ec392f89,626b38d99f3f5c490a3661af,,,,,,,,,,,,,,,,,,,,,,,a,1,"[""0.293"",""0.848"",""0.935"",""0.974""]","[1,0,1,1]",0,46,46,46,1,0,0,,,0,FALSE,1.4182,,,,,,,,,,,,,,,,,,,,,,,,,,,,,,
,,001,2022-04-29_03h04.20.843,classification_task,2021.2.3,Win32,59.92329818,600e3038c619716c21784ae5,626b377229c10585ec392f89,626b38d99f3f5c490a3661af,,,,,,,,,,,,,,,,,,,,,,,a,0,"[""0.506"",""0.110"",""0.473"",""0.792""]","[0,1,1,1]",0,47,47,47,1,1,0,,,0,FALSE,0.8345,,,,,,,,,,,,,,,,,,,,,,,,,,,,,,
,,001,2022-04-29_03h04.20.843,classification_task,2021.2.3,Win32,59.92329818,600e3038c619716c21784ae5,626b377229c10585ec392f89,626b38d99f3f5c490a3661af,,,,,,,,,,,,,,,,,,,,,,,a,1,"[""0.293"",""0.397"",""0.216"",""0.974""]","[1,1,0,1]",0,48,48,48,1,0,0,,,0,FALSE,0.3667,,,,,,,,,,,,,,,,,,,,,,,,,,,,,,
,,001,2022-04-29_03h04.20.843,classification_task,2021.2.3,Win32,59.92329818,600e3038c619716c21784ae5,626b377229c10585ec392f89,626b38d99f3f5c490a3661af,,,,,,,,,,,,,,,,,,,,,,,a,0,"[""0.856"",""0.110"",""0.473"",""0.792""]","[0,1,1,1]",0,49,49,49,1,1,0,,,0,FALSE,0.6003,,,,,,,,,,,,,,,,,,,,,,,,,,,,,,
,,001,2022-04-29_03h04.20.843,classification_task,2021.2.3,Win32,59.92329818,600e3038c619716c21784ae5,626b377229c10585ec392f89,626b38d99f3f5c490a3661af,,,,,,,,,,,,,,,,,,,,,,,l,0,"[""0.856"",""0.397"",""0.935"",""0.974""]","[0,1,1,1]",0,50,50,50,1,0,0,,,0,FALSE,0.4157,,,,,,,,,,,,,,,,,,,,,,,,,,,,,,
,,001,2022-04-29_03h04.20.843,classification_task,2021.2.3,Win32,59.92329818,600e3038c619716c21784ae5,626b377229c10585ec392f89,626b38d99f3f5c490a3661af,,,,,,,,,,,,,,,,,,,,,,,a,0,"[""0.037"",""0.332"",""0.635"",""0.848""]","[1,1,1,0]",0,51,51,51,1,1,1,,,0,FALSE,0.2319,,,,,,,,,,,,,,,,,,,,,,,,,,,,,,
,,001,2022-04-29_03h04.20.843,classification_task,2021.2.3,Win32,59.92329818,600e3038c619716c21784ae5,626b377229c10585ec392f89,626b38d99f3f5c490a3661af,,,,,,,,,,,,,,,,,,,,,,,a,1,"[""0.176"",""0.212"",""0.592"",""0.892""]","[1,0,1,1]",0,52,52,52,1,0,1,,,0,FALSE,0.2819,,,,,,,,,,,,,,,,,,,,,,,,,,,,,,
,,001,2022-04-29_03h04.20.843,classification_task,2021.2.3,Win32,59.92329818,600e3038c619716c21784ae5,626b377229c10585ec392f89,626b38d99f3f5c490a3661af,,,,,,,,,,,,,,,,,,,,,,,l,1,"[""0.037"",""0.216"",""0.635"",""0.704""]","[1,0,1,1]",0,53,53,53,1,1,1,,,0,FALSE,0.5832,,,,,,,,,,,,,,,,,,,,,,,,,,,,,,
,,001,2022-04-29_03h04.20.843,classification_task,2021.2.3,Win32,59.92329818,600e3038c619716c21784ae5,626b377229c10585ec392f89,626b38d99f3f5c490a3661af,,,,,,,,,,,,,,,,,,,,,,,a,1,"[""0.293"",""0.506"",""0.935"",""0.974""]","[1,0,1,1]",0,54,54,54,1,0,0,,,0,FALSE,0.7004,,,,,,,,,,,,,,,,,,,,,,,,,,,,,,
,,001,2022-04-29_03h04.20.843,classification_task,2021.2.3,Win32,59.92329818,600e3038c619716c21784ae5,626b377229c10585ec392f89,626b38d99f3f5c490a3661af,,,,,,,,,,,,,,,,,,,,,,,l,0,"[""0.176"",""0.547"",""0.848"",""0.892""]","[1,1,0,1]",0,55,55,55,1,0,1,,,0,FALSE,0.3331,,,,,,,,,,,,,,,,,,,,,,,,,,,,,,
,,001,2022-04-29_03h04.20.843,classification_task,2021.2.3,Win32,59.92329818,600e3038c619716c21784ae5,626b377229c10585ec392f89,626b38d99f3f5c490a3661af,,,,,,,,,,,,,,,,,,,,,,,l,1,"[""0.241"",""0.332"",""0.635"",""0.704""]","[0,1,1,1]",0,56,56,56,1,1,1,,,0,FALSE,0.8333,,,,,,,,,,,,,,,,,,,,,,,,,,,,,,
,,001,2022-04-29_03h04.20.843,classification_task,2021.2.3,Win32,59.92329818,600e3038c619716c21784ae5,626b377229c10585ec392f89,626b38d99f3f5c490a3661af,,,,,,,,,,,,,,,,,,,,,,,a,0,"[""0.072"",""0.110"",""0.241"",""0.792""]","[1,1,0,1]",0,57,57,57,1,1,0,,,0,FALSE,0.3825,,,,,,,,,,,,,,,,,,,,,,,,,,,,,,
,,001,2022-04-29_03h04.20.843,classification_task,2021.2.3,Win32,59.92329818,600e3038c619716c21784ae5,626b377229c10585ec392f89,626b38d99f3f5c490a3661af,,,,,,,,,,,,,,,,,,,,,,,l,1,"[""0.072"",""0.239"",""0.473"",""0.792""]","[1,0,1,1]",0,58,58,58,1,1,0,,,0,FALSE,0.4504,,,,,,,,,,,,,,,,,,,,,,,,,,,,,,
,,001,2022-04-29_03h04.20.843,classification_task,2021.2.3,Win32,59.92329818,600e3038c619716c21784ae5,626b377229c10585ec392f89,626b38d99f3f5c490a3661af,,,,,,,,,,,,,,,,,,,,,,,a,0,"[""0.037"",""0.332"",""0.853"",""0.704""]","[1,1,0,1]",0,59,59,59,1,1,1,,,0,FALSE,0.4829,,,,,,,,,,,,,,,,,,,,,,,,,,,,,,
,,001,2022-04-29_03h04.20.843,classification_task,2021.2.3,Win32,59.92329818,600e3038c619716c21784ae5,626b377229c10585ec392f89,626b38d99f3f5c490a3661af,,,,,,,,,,,,,,,,,,,,,,,l,0,"[""0.744"",""0.547"",""0.592"",""0.892""]","[0,1,1,1]",0,60,60,60,1,0,1,,,0,FALSE,0.4994,,,,,,,,,,,,,,,,,,,,,,,,,,,,,,
,,001,2022-04-29_03h04.20.843,classification_task,2021.2.3,Win32,59.92329818,600e3038c619716c21784ae5,626b377229c10585ec392f89,626b38d99f3f5c490a3661af,,,,,,,,,,,,,,,,,,,,,,,l,1,"[""0.072"",""0.110"",""0.473"",""0.241""]","[1,1,1,0]",0,61,61,61,1,1,0,,,0,FALSE,0.7337,,,,,,,,,,,,,,,,,,,,,,,,,,,,,,
,,001,2022-04-29_03h04.20.843,classification_task,2021.2.3,Win32,59.92329818,600e3038c619716c21784ae5,626b377229c10585ec392f89,626b38d99f3f5c490a3661af,,,,,,,,,,,,,,,,,,,,,,,a,1,"[""0.176"",""0.547"",""0.592"",""0.222""]","[1,1,1,0]",0,62,62,62,1,0,1,,,0,FALSE,0.3493,,,,,,,,,,,,,,,,,,,,,,,,,,,,,,
,,001,2022-04-29_03h04.20.843,classification_task,2021.2.3,Win32,59.92329818,600e3038c619716c21784ae5,626b377229c10585ec392f89,626b38d99f3f5c490a3661af,,,,,,,,,,,,,,,,,,,,,,,l,0,"[""0.293"",""0.397"",""0.935"",""0.213""]","[1,1,1,0]",0,63,63,63,1,0,0,,,0,FALSE,2.6552,,,,,,,,,,,,,,,,,,,,,,,,,,,,,,
,,001,2022-04-29_03h04.20.843,classification_task,2021.2.3,Win32,59.92329818,600e3038c619716c21784ae5,626b377229c10585ec392f89,626b38d99f3f5c490a3661af,,,,,,,,,,,,,,,,,,,,,,,,,,,,,,,,,,,,,,,0, ,,0,5.911228689,393.2716,0,0,0,0,1,2,1,,,,,,,,,,,,,,,,,
,,001,2022-04-29_03h04.20.843,classification_task,2021.2.3,Win32,59.92329818,600e3038c619716c21784ae5,626b377229c10585ec392f89,626b38d99f3f5c490a3661af,,,,,,,,,,,,,,,,,,,,,,,,,,,,,,,,,,,,,,,1,  ,,0,7.410346855,392.0838,0,0,0,0,1,2,1,,,,,,,,,,,,,,,,,
,,001,2022-04-29_03h04.20.843,classification_task,2021.2.3,Win32,59.92329818,600e3038c619716c21784ae5,626b377229c10585ec392f89,626b38d99f3f5c490a3661af,,,,,,,,,,,,,,,,,,,,,,,,,,,,,,,,,,,,,,,2,  ,,0,4.61787184,397.7179,0,0,0,0,1,2,1,,,,,,,,,,,,,,,,,
,,001,2022-04-29_03h04.20.843,classification_task,2021.2.3,Win32,59.92329818,600e3038c619716c21784ae5,626b377229c10585ec392f89,626b38d99f3f5c490a3661af,,,,,,,,,,,,,,,,,,,,,,,,,,,,,,,,,,,,,,,,,,,,,0,0,0,0,1,,1,,,,,,,,,,,,,,,,,
,,001,2022-04-29_03h04.20.843,classification_task,2021.2.3,Win32,59.92329818,600e3038c619716c21784ae5,626b377229c10585ec392f89,626b38d99f3f5c490a3661af,,,,,,,,,,,,,,,,,,,,,space,5.1778,l,1,"[""0.072"",""0.110"",""0.839"",""0.792""]","[1,1,0,1]",0,0,0,0,1,1,0,,,0,FALSE,2.1805,,,,,,,,,,,,,,,,,,,,,,,,,,,,,,
,,001,2022-04-29_03h04.20.843,classification_task,2021.2.3,Win32,59.92329818,600e3038c619716c21784ae5,626b377229c10585ec392f89,626b38d99f3f5c490a3661af,,,,,,,,,,,,,,,,,,,,,,,a,1,"[""0.176"",""0.547"",""0.592"",""0.216""]","[1,1,1,0]",0,1,1,1,1,0,1,,,0,FALSE,1.4086,,,,,,,,,,,,,,,,,,,,,,,,,,,,,,
,,001,2022-04-29_03h04.20.843,classification_task,2021.2.3,Win32,59.92329818,600e3038c619716c21784ae5,626b377229c10585ec392f89,626b38d99f3f5c490a3661af,,,,,,,,,,,,,,,,,,,,,,,l,1,"[""0.848"",""0.332"",""0.635"",""0.704""]","[0,1,1,1]",0,2,2,2,1,1,1,,,0,FALSE,0.5317,,,,,,,,,,,,,,,,,,,,,,,,,,,,,,
,,001,2022-04-29_03h04.20.843,classification_task,2021.2.3,Win32,59.92329818,600e3038c619716c21784ae5,626b377229c10585ec392f89,626b38d99f3f5c490a3661af,,,,,,,,,,,,,,,,,,,,,,,a,1,"[""0.222"",""0.397"",""0.935"",""0.974""]","[0,1,1,1]",0,3,3,3,1,0,0,,,0,FALSE,1.115,,,,,,,,,,,,,,,,,,,,,,,,,,,,,,
,,001,2022-04-29_03h04.20.843,classification_task,2021.2.3,Win32,59.92329818,600e3038c619716c21784ae5,626b377229c10585ec392f89,626b38d99f3f5c490a3661af,,,,,,,,,,,,,,,,,,,,,,,l,0,"[""0.241"",""0.547"",""0.592"",""0.892""]","[0,1,1,1]",0,4,4,4,1,0,1,,,0,FALSE,0.5271,,,,,,,,,,,,,,,,,,,,,,,,,,,,,,
,,001,2022-04-29_03h04.20.843,classification_task,2021.2.3,Win32,59.92329818,600e3038c619716c21784ae5,626b377229c10585ec392f89,626b38d99f3f5c490a3661af,,,,,,,,,,,,,,,,,,,,,,,l,0,"[""0.293"",""0.397"",""0.935"",""0.237""]","[1,1,1,0]",0,5,5,5,1,0,0,,,0,FALSE,0.5452,,,,,,,,,,,,,,,,,,,,,,,,,,,,,,
,,001,2022-04-29_03h04.20.843,classification_task,2021.2.3,Win32,59.92329818,600e3038c619716c21784ae5,626b377229c10585ec392f89,626b38d99f3f5c490a3661af,,,,,,,,,,,,,,,,,,,,,,,l,1,"[""0.037"",""0.332"",""0.853"",""0.704""]","[1,1,0,1]",0,6,6,6,1,1,1,,,0,FALSE,0.5767,,,,,,,,,,,,,,,,,,,,,,,,,,,,,,
,,001,2022-04-29_03h04.20.843,classification_task,2021.2.3,Win32,59.92329818,600e3038c619716c21784ae5,626b377229c10585ec392f89,626b38d99f3f5c490a3661af,,,,,,,,,,,,,,,,,,,,,,,l,1,"[""0.037"",""0.332"",""0.635"",""0.848""]","[1,1,1,0]",0,7,7,7,1,1,1,,,0,FALSE,0.4819,,,,,,,,,,,,,,,,,,,,,,,,,,,,,,
,,001,2022-04-29_03h04.20.843,classification_task,2021.2.3,Win32,59.92329818,600e3038c619716c21784ae5,626b377229c10585ec392f89,626b38d99f3f5c490a3661af,,,,,,,,,,,,,,,,,,,,,,,a,0,"[""0.037"",""0.750"",""0.635"",""0.704""]","[1,0,1,1]",0,8,8,8,1,1,1,,,0,FALSE,0.7979,,,,,,,,,,,,,,,,,,,,,,,,,,,,,,
,,001,2022-04-29_03h04.20.843,classification_task,2021.2.3,Win32,59.92329818,600e3038c619716c21784ae5,626b377229c10585ec392f89,626b38d99f3f5c490a3661af,,,,,,,,,,,,,,,,,,,,,,,a,0,"[""0.072"",""0.853"",""0.473"",""0.792""]","[1,0,1,1]",0,9,9,9,1,1,0,,,0,FALSE,0.7783,,,,,,,,,,,,,,,,,,,,,,,,,,,,,,
,,001,2022-04-29_03h04.20.843,classification_task,2021.2.3,Win32,59.92329818,600e3038c619716c21784ae5,626b377229c10585ec392f89,626b38d99f3f5c490a3661af,,,,,,,,,,,,,,,,,,,,,,,a,1,"[""0.293"",""0.397"",""0.856"",""0.974""]","[1,1,0,1]",0,10,10,10,1,0,0,,,0,FALSE,0.6002,,,,,,,,,,,,,,,,,,,,,,,,,,,,,,
,,001,2022-04-29_03h04.20.843,classification_task,2021.2.3,Win32,59.92329818,600e3038c619716c21784ae5,626b377229c10585ec392f89,626b38d99f3f5c490a3661af,,,,,,,,,,,,,,,,,,,,,,,a,1,"[""0.293"",""0.213"",""0.935"",""0.974""]","[1,0,1,1]",0,11,11,11,1,0,0,,,0,FALSE,0.4982,,,,,,,,,,,,,,,,,,,,,,,,,,,,,,
,,001,2022-04-29_03h04.20.843,classification_task,2021.2.3,Win32,59.92329818,600e3038c619716c21784ae5,626b377229c10585ec392f89,626b38d99f3f5c490a3661af,,,,,,,,,,,,,,,,,,,,,,,l,1,"[""0.856"",""0.110"",""0.473"",""0.792""]","[0,1,1,1]",0,12,12,12,1,1,0,,,0,FALSE,0.8479,,,,,,,,,,,,,,,,,,,,,,,,,,,,,,
,,001,2022-04-29_03h04.20.843,classification_task,2021.2.3,Win32,59.92329818,600e3038c619716c21784ae5,626b377229c10585ec392f89,626b38d99f3f5c490a3661af,,,,,,,,,,,,,,,,,,,,,,,l,0,"[""0.176"",""0.848"",""0.592"",""0.892""]","[1,0,1,1]",0,13,13,13,1,0,1,,,0,FALSE,0.5946,,,,,,,,,,,,,,,,,,,,,,,,,,,,,,
,,001,2022-04-29_03h04.20.843,classification_task,2021.2.3,Win32,59.92329818,600e3038c619716c21784ae5,626b377229c10585ec392f89,626b38d99f3f5c490a3661af,,,,,,,,,,,,,,,,,,,,,,,l,0,"[""0.176"",""0.547"",""0.506"",""0.892""]","[1,1,0,1]",0,14,14,14,1,0,1,,,0,FALSE,0.4355,,,,,,,,,,,,,,,,,,,,,,,,,,,,,,
,,001,2022-04-29_03h04.20.843,classification_task,2021.2.3,Win32,59.92329818,600e3038c619716c21784ae5,626b377229c10585ec392f89,626b38d99f3f5c490a3661af,,,,,,,,,,,,,,,,,,,,,,,a,0,"[""0.072"",""0.110"",""0.473"",""0.241""]","[1,1,1,0]",0,15,15,15,1,1,0,,,0,FALSE,0.1426,,,,,,,,,,,,,,,,,,,,,,,,,,,,,,
,,001,2022-04-29_03h04.20.843,classification_task,2021.2.3,Win32,59.92329818,600e3038c619716c21784ae5,626b377229c10585ec392f89,626b38d99f3f5c490a3661af,,,,,,,,,,,,,,,,,,,,,,,l,1,"[""0.241"",""0.332"",""0.635"",""0.704""]","[0,1,1,1]",0,16,16,16,1,1,1,,,0,FALSE,0.1926,,,,,,,,,,,,,,,,,,,,,,,,,,,,,,
,,001,2022-04-29_03h04.20.843,classification_task,2021.2.3,Win32,59.92329818,600e3038c619716c21784ae5,626b377229c10585ec392f89,626b38d99f3f5c490a3661af,,,,,,,,,,,,,,,,,,,,,,,l,1,"[""0.072"",""0.213"",""0.473"",""0.792""]","[1,0,1,1]",0,17,17,17,1,1,0,,,0,FALSE,0.2963,,,,,,,,,,,,,,,,,,,,,,,,,,,,,,
,,001,2022-04-29_03h04.20.843,classification_task,2021.2.3,Win32,59.92329818,600e3038c619716c21784ae5,626b377229c10585ec392f89,626b38d99f3f5c490a3661af,,,,,,,,,,,,,,,,,,,,,,,a,1,"[""0.839"",""0.547"",""0.592"",""0.892""]","[0,1,1,1]",0,18,18,18,1,0,1,,,0,FALSE,0.4943,,,,,,,,,,,,,,,,,,,,,,,,,,,,,,
,,001,2022-04-29_03h04.20.843,classification_task,2021.2.3,Win32,59.92329818,600e3038c619716c21784ae5,626b377229c10585ec392f89,626b38d99f3f5c490a3661af,,,,,,,,,,,,,,,,,,,,,,,a,0,"[""0.072"",""0.110"",""0.473"",""0.239""]","[1,1,1,0]",0,19,19,19,1,1,0,,,0,FALSE,0.3449,,,,,,,,,,,,,,,,,,,,,,,,,,,,,,
,,001,2022-04-29_03h04.20.843,classification_task,2021.2.3,Win32,59.92329818,600e3038c619716c21784ae5,626b377229c10585ec392f89,626b38d99f3f5c490a3661af,,,,,,,,,,,,,,,,,,,,,,,l,0,"[""0.293"",""0.397"",""0.935"",""0.853""]","[1,1,1,0]",0,20,20,20,1,0,0,,,0,FALSE,2.4537,,,,,,,,,,,,,,,,,,,,,,,,,,,,,,
,,001,2022-04-29_03h04.20.843,classification_task,2021.2.3,Win32,59.92329818,600e3038c619716c21784ae5,626b377229c10585ec392f89,626b38d99f3f5c490a3661af,,,,,,,,,,,,,,,,,,,,,,,l,0,"[""0.176"",""0.547"",""0.592"",""0.853""]","[1,1,1,0]",0,21,21,21,1,0,1,,,0,FALSE,0.3053,,,,,,,,,,,,,,,,,,,,,,,,,,,,,,
,,001,2022-04-29_03h04.20.843,classification_task,2021.2.3,Win32,59.92329818,600e3038c619716c21784ae5,626b377229c10585ec392f89,626b38d99f3f5c490a3661af,,,,,,,,,,,,,,,,,,,,,,,l,1,"[""0.037"",""0.332"",""0.856"",""0.704""]","[1,1,0,1]",0,22,22,22,1,1,1,,,0,FALSE,0.3164,,,,,,,,,,,,,,,,,,,,,,,,,,,,,,
,,001,2022-04-29_03h04.20.843,classification_task,2021.2.3,Win32,59.92329818,600e3038c619716c21784ae5,626b377229c10585ec392f89,626b38d99f3f5c490a3661af,,,,,,,,,,,,,,,,,,,,,,,a,0,"[""0.072"",""0.110"",""0.751"",""0.792""]","[1,1,0,1]",0,23,23,23,1,1,0,,,0,FALSE,0.6626,,,,,,,,,,,,,,,,,,,,,,,,,,,,,,
,,001,2022-04-29_03h04.20.843,classification_task,2021.2.3,Win32,59.92329818,600e3038c619716c21784ae5,626b377229c10585ec392f89,626b38d99f3f5c490a3661af,,,,,,,,,,,,,,,,,,,,,,,l,0,"[""0.751"",""0.397"",""0.935"",""0.974""]","[0,1,1,1]",0,24,24,24,1,0,0,,,0,FALSE,0.1975,,,,,,,,,,,,,,,,,,,,,,,,,,,,,,
,,001,2022-04-29_03h04.20.843,classification_task,2021.2.3,Win32,59.92329818,600e3038c619716c21784ae5,626b377229c10585ec392f89,626b38d99f3f5c490a3661af,,,,,,,,,,,,,,,,,,,,,,,a,1,"[""0.176"",""0.547"",""0.839"",""0.892""]","[1,1,0,1]",0,25,25,25,1,0,1,,,0,FALSE,0.2105,,,,,,,,,,,,,,,,,,,,,,,,,,,,,,
,,001,2022-04-29_03h04.20.843,classification_task,2021.2.3,Win32,59.92329818,600e3038c619716c21784ae5,626b377229c10585ec392f89,626b38d99f3f5c490a3661af,,,,,,,,,,,,,,,,,,,,,,,l,0,"[""0.176"",""0.222"",""0.592"",""0.892""]","[1,0,1,1]",0,26,26,26,1,0,1,,,0,FALSE,0.3808,,,,,,,,,,,,,,,,,,,,,,,,,,,,,,
,,001,2022-04-29_03h04.20.843,classification_task,2021.2.3,Win32,59.92329818,600e3038c619716c21784ae5,626b377229c10585ec392f89,626b38d99f3f5c490a3661af,,,,,,,,,,,,,,,,,,,,,,,a,0,"[""0.037"",""0.332"",""0.635"",""0.241""]","[1,1,1,0]",0,27,27,27,1,1,1,,,0,FALSE,0.2314,,,,,,,,,,,,,,,,,,,,,,,,,,,,,,
,,001,2022-04-29_03h04.20.843,classification_task,2021.2.3,Win32,59.92329818,600e3038c619716c21784ae5,626b377229c10585ec392f89,626b38d99f3f5c490a3661af,,,,,,,,,,,,,,,,,,,,,,,l,1,"[""0.037"",""0.744"",""0.635"",""0.704""]","[1,0,1,1]",0,28,28,28,1,1,1,,,0,FALSE,0.2643,,,,,,,,,,,,,,,,,,,,,,,,,,,,,,
,,001,2022-04-29_03h04.20.843,classification_task,2021.2.3,Win32,59.92329818,600e3038c619716c21784ae5,626b377229c10585ec392f89,626b38d99f3f5c490a3661af,,,,,,,,,,,,,,,,,,,,,,,l,1,"[""0.506"",""0.110"",""0.473"",""0.792""]","[0,1,1,1]",0,29,29,29,1,1,0,,,0,FALSE,0.3145,,,,,,,,,,,,,,,,,,,,,,,,,,,,,,
,,001,2022-04-29_03h04.20.843,classification_task,2021.2.3,Win32,59.92329818,600e3038c619716c21784ae5,626b377229c10585ec392f89,626b38d99f3f5c490a3661af,,,,,,,,,,,,,,,,,,,,,,,a,1,"[""0.293"",""0.237"",""0.935"",""0.974""]","[1,0,1,1]",0,30,30,30,1,0,0,,,0,FALSE,0.2184,,,,,,,,,,,,,,,,,,,,,,,,,,,,,,
,,001,2022-04-29_03h04.20.843,classification_task,2021.2.3,Win32,59.92329818,600e3038c619716c21784ae5,626b377229c10585ec392f89,626b38d99f3f5c490a3661af,,,,,,,,,,,,,,,,,,,,,,,a,1,"[""0.293"",""0.397"",""0.839"",""0.974""]","[1,1,0,1]",0,31,31,31,1,0,0,,,0,FALSE,0.2481,,,,,,,,,,,,,,,,,,,,,,,,,,,,,,
,,001,2022-04-29_03h04.20.843,classification_task,2021.2.3,Win32,59.92329818,600e3038c619716c21784ae5,626b377229c10585ec392f89,626b38d99f3f5c490a3661af,,,,,,,,,,,,,,,,,,,,,,,l,0,"[""0.293"",""0.397"",""0.935"",""0.239""]","[1,1,1,0]",0,32,32,32,1,0,0,,,0,FALSE,0.7157,,,,,,,,,,,,,,,,,,,,,,,,,,,,,,
,,001,2022-04-29_03h04.20.843,classification_task,2021.2.3,Win32,59.92329818,600e3038c619716c21784ae5,626b377229c10585ec392f89,626b38d99f3f5c490a3661af,,,,,,,,,,,,,,,,,,,,,,,l,0,"[""0.176"",""0.547"",""0.592"",""0.853""]","[1,1,1,0]",0,33,33,33,1,0,1,,,0,FALSE,0.3439,,,,,,,,,,,,,,,,,,,,,,,,,,,,,,
,,001,2022-04-29_03h04.20.843,classification_task,2021.2.3,Win32,59.92329818,600e3038c619716c21784ae5,626b377229c10585ec392f89,626b38d99f3f5c490a3661af,,,,,,,,,,,,,,,,,,,,,,,a,0,"[""0.037"",""0.213"",""0.635"",""0.704""]","[1,0,1,1]",0,34,34,34,1,1,1,,,0,FALSE,0.0159,,,,,,,,,,,,,,,,,,,,,,,,,,,,,,
,,001,2022-04-29_03h04.20.843,classification_task,2021.2.3,Win32,59.92329818,600e3038c619716c21784ae5,626b377229c10585ec392f89,626b38d99f3f5c490a3661af,,,,,,,,,,,,,,,,,,,,,,,a,1,"[""0.176"",""0.547"",""0.212"",""0.892""]","[1,1,0,1]",0,35,35,35,1,0,1,,,0,FALSE,0.465,,,,,,,,,,,,,,,,,,,,,,,,,,,,,,
,,001,2022-04-29_03h04.20.843,classification_task,2021.2.3,Win32,59.92329818,600e3038c619716c21784ae5,626b377229c10585ec392f89,626b38d99f3f5c490a3661af,,,,,,,,,,,,,,,,,,,,,,,a,0,"[""0.037"",""0.332"",""0.241"",""0.704""]","[1,1,0,1]",0,36,36,36,1,1,1,,,0,FALSE,0.2302,,,,,,,,,,,,,,,,,,,,,,,,,,,,,,
,,001,2022-04-29_03h04.20.843,classification_task,2021.2.3,Win32,59.92329818,600e3038c619716c21784ae5,626b377229c10585ec392f89,626b38d99f3f5c490a3661af,,,,,,,,,,,,,,,,,,,,,,,l,0,"[""0.293"",""0.397"",""0.856"",""0.974""]","[1,1,0,1]",0,37,37,37,1,0,0,,,0,FALSE,0.2774,,,,,,,,,,,,,,,,,,,,,,,,,,,,,,
,,001,2022-04-29_03h04.20.843,classification_task,2021.2.3,Win32,59.92329818,600e3038c619716c21784ae5,626b377229c10585ec392f89,626b38d99f3f5c490a3661af,,,,,,,,,,,,,,,,,,,,,,,a,0,"[""0.241"",""0.110"",""0.473"",""0.792""]","[0,1,1,1]",0,38,38,38,1,1,0,,,0,FALSE,1.3502,,,,,,,,,,,,,,,,,,,,,,,,,,,,,,
,,001,2022-04-29_03h04.20.843,classification_task,2021.2.3,Win32,59.92329818,600e3038c619716c21784ae5,626b377229c10585ec392f89,626b38d99f3f5c490a3661af,,,,,,,,,,,,,,,,,,,,,,,l,1,"[""0.072"",""0.110"",""0.473"",""0.239""]","[1,1,1,0]",0,39,39,39,1,1,0,,,0,FALSE,0.6997,,,,,,,,,,,,,,,,,,,,,,,,,,,,,,
,,001,2022-04-29_03h04.20.843,classification_task,2021.2.3,Win32,59.92329818,600e3038c619716c21784ae5,626b377229c10585ec392f89,626b38d99f3f5c490a3661af,,,,,,,,,,,,,,,,,,,,,,,a,0,"[""0.037"",""0.332"",""0.635"",""0.239""]","[1,1,1,0]",0,40,40,40,1,1,1,,,0,FALSE,2.6178,,,,,,,,,,,,,,,,,,,,,,,,,,,,,,
,,001,2022-04-29_03h04.20.843,classification_task,2021.2.3,Win32,59.92329818,600e3038c619716c21784ae5,626b377229c10585ec392f89,626b38d99f3f5c490a3661af,,,,,,,,,,,,,,,,,,,,,,,a,1,"[""0.293"",""0.853"",""0.935"",""0.974""]","[1,0,1,1]",0,41,41,41,1,0,0,,,0,FALSE,0.2715,,,,,,,,,,,,,,,,,,,,,,,,,,,,,,
,,001,2022-04-29_03h04.20.843,classification_task,2021.2.3,Win32,59.92329818,600e3038c619716c21784ae5,626b377229c10585ec392f89,626b38d99f3f5c490a3661af,,,,,,,,,,,,,,,,,,,,,,,l,0,"[""0.439"",""0.547"",""0.592"",""0.892""]","[0,1,1,1]",0,42,42,42,1,0,1,,,0,FALSE,1.8799,,,,,,,,,,,,,,,,,,,,,,,,,,,,,,
,,001,2022-04-29_03h04.20.843,classification_task,2021.2.3,Win32,59.92329818,600e3038c619716c21784ae5,626b377229c10585ec392f89,626b38d99f3f5c490a3661af,,,,,,,,,,,,,,,,,,,,,,,l,1,"[""0.072"",""0.110"",""0.216"",""0.792""]","[1,1,0,1]",0,43,43,43,1,1,0,,,0,FALSE,0.6273,,,,,,,,,,,,,,,,,,,,,,,,,,,,,,
,,001,2022-04-29_03h04.20.843,classification_task,2021.2.3,Win32,59.92329818,600e3038c619716c21784ae5,626b377229c10585ec392f89,626b38d99f3f5c490a3661af,,,,,,,,,,,,,,,,,,,,,,,a,1,"[""0.176"",""0.239"",""0.592"",""0.892""]","[1,0,1,1]",0,44,44,44,1,0,1,,,0,FALSE,1.1956,,,,,,,,,,,,,,,,,,,,,,,,,,,,,,
,,001,2022-04-29_03h04.20.843,classification_task,2021.2.3,Win32,59.92329818,600e3038c619716c21784ae5,626b377229c10585ec392f89,626b38d99f3f5c490a3661af,,,,,,,,,,,,,,,,,,,,,,,l,0,"[""0.848"",""0.397"",""0.935"",""0.974""]","[0,1,1,1]",0,45,45,45,1,0,0,,,0,FALSE,0.7791,,,,,,,,,,,,,,,,,,,,,,,,,,,,,,
,,001,2022-04-29_03h04.20.843,classification_task,2021.2.3,Win32,59.92329818,600e3038c619716c21784ae5,626b377229c10585ec392f89,626b38d99f3f5c490a3661af,,,,,,,,,,,,,,,,,,,,,,,l,1,"[""0.506"",""0.332"",""0.635"",""0.704""]","[0,1,1,1]",0,46,46,46,1,1,1,,,0,FALSE,0.4457,,,,,,,,,,,,,,,,,,,,,,,,,,,,,,
,,001,2022-04-29_03h04.20.843,classification_task,2021.2.3,Win32,59.92329818,600e3038c619716c21784ae5,626b377229c10585ec392f89,626b38d99f3f5c490a3661af,,,,,,,,,,,,,,,,,,,,,,,l,1,"[""0.072"",""0.241"",""0.473"",""0.792""]","[1,0,1,1]",0,47,47,47,1,1,0,,,0,FALSE,1.8307,,,,,,,,,,,,,,,,,,,,,,,,,,,,,,
,,001,2022-04-29_03h04.20.843,classification_task,2021.2.3,Win32,59.92329818,600e3038c619716c21784ae5,626b377229c10585ec392f89,626b38d99f3f5c490a3661af,,,,,,,,,,,,,,,,,,,,,,,a,1,"[""0.222"",""0.547"",""0.592"",""0.892""]","[0,1,1,1]",0,48,48,48,1,0,1,,,0,FALSE,0.6629,,,,,,,,,,,,,,,,,,,,,,,,,,,,,,
,,001,2022-04-29_03h04.20.843,classification_task,2021.2.3,Win32,59.92329818,600e3038c619716c21784ae5,626b377229c10585ec392f89,626b38d99f3f5c490a3661af,,,,,,,,,,,,,,,,,,,,,,,a,1,"[""0.293"",""0.397"",""0.212"",""0.974""]","[1,1,0,1]",0,49,49,49,1,0,0,,,0,FALSE,1.1783,,,,,,,,,,,,,,,,,,,,,,,,,,,,,,
,,001,2022-04-29_03h04.20.843,classification_task,2021.2.3,Win32,59.92329818,600e3038c619716c21784ae5,626b377229c10585ec392f89,626b38d99f3f5c490a3661af,,,,,,,,,,,,,,,,,,,,,,,l,1,"[""0.848"",""0.110"",""0.473"",""0.792""]","[0,1,1,1]",0,50,50,50,1,1,0,,,0,FALSE,1.5849,,,,,,,,,,,,,,,,,,,,,,,,,,,,,,
,,001,2022-04-29_03h04.20.843,classification_task,2021.2.3,Win32,59.92329818,600e3038c619716c21784ae5,626b377229c10585ec392f89,626b38d99f3f5c490a3661af,,,,,,,,,,,,,,,,,,,,,,,l,1,"[""0.072"",""0.110"",""0.239"",""0.792""]","[1,1,0,1]",0,51,51,51,1,1,0,,,0,FALSE,0.4363,,,,,,,,,,,,,,,,,,,,,,,,,,,,,,
,,001,2022-04-29_03h04.20.843,classification_task,2021.2.3,Win32,59.92329818,600e3038c619716c21784ae5,626b377229c10585ec392f89,626b38d99f3f5c490a3661af,,,,,,,,,,,,,,,,,,,,,,,a,1,"[""0.212"",""0.397"",""0.935"",""0.974""]","[0,1,1,1]",0,52,52,52,1,0,0,,,0,FALSE,1.7187,,,,,,,,,,,,,,,,,,,,,,,,,,,,,,
,,001,2022-04-29_03h04.20.843,classification_task,2021.2.3,Win32,59.92329818,600e3038c619716c21784ae5,626b377229c10585ec392f89,626b38d99f3f5c490a3661af,,,,,,,,,,,,,,,,,,,,,,,a,1,"[""0.176"",""0.848"",""0.592"",""0.892""]","[1,0,1,1]",0,53,53,53,1,0,1,,,0,FALSE,0.6627,,,,,,,,,,,,,,,,,,,,,,,,,,,,,,
,,001,2022-04-29_03h04.20.843,classification_task,2021.2.3,Win32,59.92329818,600e3038c619716c21784ae5,626b377229c10585ec392f89,626b38d99f3f5c490a3661af,,,,,,,,,,,,,,,,,,,,,,,l,0,"[""0.176"",""0.547"",""0.241"",""0.892""]","[1,1,0,1]",0,54,54,54,1,0,1,,,0,FALSE,1.0068,,,,,,,,,,,,,,,,,,,,,,,,,,,,,,
,,001,2022-04-29_03h04.20.843,classification_task,2021.2.3,Win32,59.92329818,600e3038c619716c21784ae5,626b377229c10585ec392f89,626b38d99f3f5c490a3661af,,,,,,,,,,,,,,,,,,,,,,,l,0,"[""0.176"",""0.547"",""0.592"",""0.222""]","[1,1,1,0]",0,55,55,55,1,0,1,,,0,FALSE,0.5324,,,,,,,,,,,,,,,,,,,,,,,,,,,,,,
,,001,2022-04-29_03h04.20.843,classification_task,2021.2.3,Win32,59.92329818,600e3038c619716c21784ae5,626b377229c10585ec392f89,626b38d99f3f5c490a3661af,,,,,,,,,,,,,,,,,,,,,,,l,0,"[""0.293"",""0.237"",""0.935"",""0.974""]","[1,0,1,1]",0,56,56,56,1,0,0,,,0,FALSE,0.3284,,,,,,,,,,,,,,,,,,,,,,,,,,,,,,
,,001,2022-04-29_03h04.20.843,classification_task,2021.2.3,Win32,59.92329818,600e3038c619716c21784ae5,626b377229c10585ec392f89,626b38d99f3f5c490a3661af,,,,,,,,,,,,,,,,,,,,,,,l,0,"[""0.293"",""0.397"",""0.935"",""0.856""]","[1,1,1,0]",0,57,57,57,1,0,0,,,0,FALSE,0.5007,,,,,,,,,,,,,,,,,,,,,,,,,,,,,,
,,001,2022-04-29_03h04.20.843,classification_task,2021.2.3,Win32,59.92329818,600e3038c619716c21784ae5,626b377229c10585ec392f89,626b38d99f3f5c490a3661af,,,,,,,,,,,,,,,,,,,,,,,a,0,"[""0.037"",""0.332"",""0.635"",""0.848""]","[1,1,1,0]",0,58,58,58,1,1,1,,,0,FALSE,0.127,,,,,,,,,,,,,,,,,,,,,,,,,,,,,,
,,001,2022-04-29_03h04.20.843,classification_task,2021.2.3,Win32,59.92329818,600e3038c619716c21784ae5,626b377229c10585ec392f89,626b38d99f3f5c490a3661af,,,,,,,,,,,,,,,,,,,,,,,l,1,"[""0.037"",""0.853"",""0.635"",""0.704""]","[1,0,1,1]",0,59,59,59,1,1,1,,,0,FALSE,0.1151,,,,,,,,,,,,,,,,,,,,,,,,,,,,,,
,,001,2022-04-29_03h04.20.843,classification_task,2021.2.3,Win32,59.92329818,600e3038c619716c21784ae5,626b377229c10585ec392f89,626b38d99f3f5c490a3661af,,,,,,,,,,,,,,,,,,,,,,,l,1,"[""0.072"",""0.110"",""0.473"",""0.241""]","[1,1,1,0]",0,60,60,60,1,1,0,,,0,FALSE,0.4121,,,,,,,,,,,,,,,,,,,,,,,,,,,,,,
,,001,2022-04-29_03h04.20.843,classification_task,2021.2.3,Win32,59.92329818,600e3038c619716c21784ae5,626b377229c10585ec392f89,626b38d99f3f5c490a3661af,,,,,,,,,,,,,,,,,,,,,,,a,0,"[""0.072"",""0.751"",""0.473"",""0.792""]","[1,0,1,1]",0,61,61,61,1,1,0,,,0,FALSE,1.3358,,,,,,,,,,,,,,,,,,,,,,,,,,,,,,
,,001,2022-04-29_03h04.20.843,classification_task,2021.2.3,Win32,59.92329818,600e3038c619716c21784ae5,626b377229c10585ec392f89,626b38d99f3f5c490a3661af,,,,,,,,,,,,,,,,,,,,,,,l,1,"[""0.037"",""0.332"",""0.848"",""0.704""]","[1,1,0,1]",0,62,62,62,1,1,1,,,0,FALSE,0.363,,,,,,,,,,,,,,,,,,,,,,,,,,,,,,
,,001,2022-04-29_03h04.20.843,classification_task,2021.2.3,Win32,59.92329818,600e3038c619716c21784ae5,626b377229c10585ec392f89,626b38d99f3f5c490a3661af,,,,,,,,,,,,,,,,,,,,,,,a,0,"[""0.848"",""0.332"",""0.635"",""0.704""]","[0,1,1,1]",0,63,63,63,1,1,1,,,0,FALSE,0.6984,,,,,,,,,,,,,,,,,,,,,,,,,,,,,,
,,001,2022-04-29_03h04.20.843,classification_task,2021.2.3,Win32,59.92329818,600e3038c619716c21784ae5,626b377229c10585ec392f89,626b38d99f3f5c490a3661af,,,,,,,,,,,,,,,,,,,,,,,,,,,,,,,,,,,,,,,0, ,,0,5.146972369,121.3212,0,1,1,1,1,2,2,,,,,,,,,,,,,,,,,
,,001,2022-04-29_03h04.20.843,classification_task,2021.2.3,Win32,59.92329818,600e3038c619716c21784ae5,626b377229c10585ec392f89,626b38d99f3f5c490a3661af,,,,,,,,,,,,,,,,,,,,,,,,,,,,,,,,,,,,,,,1,  ,,0,5.881834215,123.2293,0,1,1,1,1,2,2,,,,,,,,,,,,,,,,,
,,001,2022-04-29_03h04.20.843,classification_task,2021.2.3,Win32,59.92329818,600e3038c619716c21784ae5,626b377229c10585ec392f89,626b38d99f3f5c490a3661af,,,,,,,,,,,,,,,,,,,,,,,,,,,,,,,,,,,,,,,2,  ,,0,4.559082892,125.5825,0,1,1,1,1,2,2,,,,,,,,,,,,,,,,,
,,001,2022-04-29_03h04.20.843,classification_task,2021.2.3,Win32,59.92329818,600e3038c619716c21784ae5,626b377229c10585ec392f89,626b38d99f3f5c490a3661af,,,,,,,,,,,,,,,,,,,,,,,,,,,,,,,,,,,,,,,,,,,,,0,1,1,1,1,,2,,,,,,,,,,,,,,,,,
,,001,2022-04-29_03h04.20.843,classification_task,2021.2.3,Win32,59.92329818,600e3038c619716c21784ae5,626b377229c10585ec392f89,626b38d99f3f5c490a3661af,,,,,,,,,,,,,,,,,,,,,space,8.9022,l,0,"[""0.293"",""0.506"",""0.935"",""0.974""]","[1,0,1,1]",0,0,0,0,1,0,0,,,0,FALSE,4.1341,,,,,,,,,,,,,,,,,,,,,,,,,,,,,,
,,001,2022-04-29_03h04.20.843,classification_task,2021.2.3,Win32,59.92329818,600e3038c619716c21784ae5,626b377229c10585ec392f89,626b38d99f3f5c490a3661af,,,,,,,,,,,,,,,,,,,,,,,a,0,"[""0.237"",""0.332"",""0.635"",""0.704""]","[0,1,1,1]",0,1,1,1,1,1,1,,,0,FALSE,1.9972,,,,,,,,,,,,,,,,,,,,,,,,,,,,,,
,,001,2022-04-29_03h04.20.843,classification_task,2021.2.3,Win32,59.92329818,600e3038c619716c21784ae5,626b377229c10585ec392f89,626b38d99f3f5c490a3661af,,,,,,,,,,,,,,,,,,,,,,,a,1,"[""0.176"",""0.239"",""0.592"",""0.892""]","[1,0,1,1]",0,2,2,2,1,0,1,,,0,FALSE,1.6879,,,,,,,,,,,,,,,,,,,,,,,,,,,,,,
,,001,2022-04-29_03h04.20.843,classification_task,2021.2.3,Win32,59.92329818,600e3038c619716c21784ae5,626b377229c10585ec392f89,626b38d99f3f5c490a3661af,,,,,,,,,,,,,,,,,,,,,,,l,1,"[""0.037"",""0.332"",""0.853"",""0.704""]","[1,1,0,1]",0,3,3,3,1,1,1,,,0,FALSE,0.8331,,,,,,,,,,,,,,,,,,,,,,,,,,,,,,
,,001,2022-04-29_03h04.20.843,classification_task,2021.2.3,Win32,59.92329818,600e3038c619716c21784ae5,626b377229c10585ec392f89,626b38d99f3f5c490a3661af,,,,,,,,,,,,,,,,,,,,,,,a,1,"[""0.293"",""0.397"",""0.935"",""0.239""]","[1,1,1,0]",0,4,4,4,1,0,0,,,0,FALSE,2.3359,,,,,,,,,,,,,,,,,,,,,,,,,,,,,,
,,001,2022-04-29_03h04.20.843,classification_task,2021.2.3,Win32,59.92329818,600e3038c619716c21784ae5,626b377229c10585ec392f89,626b38d99f3f5c490a3661af,,,,,,,,,,,,,,,,,,,,,,,a,0,"[""0.213"",""0.110"",""0.473"",""0.792""]","[0,1,1,1]",0,5,5,5,1,1,0,,,0,FALSE,0.8762,,,,,,,,,,,,,,,,,,,,,,,,,,,,,,
,,001,2022-04-29_03h04.20.843,classification_task,2021.2.3,Win32,59.92329818,600e3038c619716c21784ae5,626b377229c10585ec392f89,626b38d99f3f5c490a3661af,,,,,,,,,,,,,,,,,,,,,,,l,1,"[""0.037"",""0.750"",""0.635"",""0.704""]","[1,0,1,1]",0,6,6,6,1,1,1,,,0,FALSE,1.0006,,,,,,,,,,,,,,,,,,,,,,,,,,,,,,
,,001,2022-04-29_03h04.20.843,classification_task,2021.2.3,Win32,59.92329818,600e3038c619716c21784ae5,626b377229c10585ec392f89,626b38d99f3f5c490a3661af,,,,,,,,,,,,,,,,,,,,,,,l,0,"[""0.237"",""0.547"",""0.592"",""0.892""]","[0,1,1,1]",0,7,7,7,1,0,1,,,0,FALSE,0.7883,,,,,,,,,,,,,,,,,,,,,,,,,,,,,,
,,001,2022-04-29_03h04.20.843,classification_task,2021.2.3,Win32,59.92329818,600e3038c619716c21784ae5,626b377229c10585ec392f89,626b38d99f3f5c490a3661af,,,,,,,,,,,,,,,,,,,,,,,l,0,"[""0.239"",""0.397"",""0.935"",""0.974""]","[0,1,1,1]",0,8,8,8,1,0,0,,,0,FALSE,1.5022,,,,,,,,,,,,,,,,,,,,,,,,,,,,,,
,,001,2022-04-29_03h04.20.843,classification_task,2021.2.3,Win32,59.92329818,600e3038c619716c21784ae5,626b377229c10585ec392f89,626b38d99f3f5c490a3661af,,,,,,,,,,,,,,,,,,,,,,,a,1,"[""0.176"",""0.547"",""0.592"",""0.439""]","[1,1,1,0]",0,9,9,9,1,0,1,,,0,FALSE,1.2671,,,,,,,,,,,,,,,,,,,,,,,,,,,,,,
,,001,2022-04-29_03h04.20.843,classification_task,2021.2.3,Win32,59.92329818,600e3038c619716c21784ae5,626b377229c10585ec392f89,626b38d99f3f5c490a3661af,,,,,,,,,,,,,,,,,,,,,,,a,1,"[""0.293"",""0.397"",""0.216"",""0.974""]","[1,1,0,1]",0,10,10,10,1,0,0,,,0,FALSE,0.5331,,,,,,,,,,,,,,,,,,,,,,,,,,,,,,
,,001,2022-04-29_03h04.20.843,classification_task,2021.2.3,Win32,59.92329818,600e3038c619716c21784ae5,626b377229c10585ec392f89,626b38d99f3f5c490a3661af,,,,,,,,,,,,,,,,,,,,,,,a,0,"[""0.037"",""0.332"",""0.635"",""0.239""]","[1,1,1,0]",0,11,11,11,1,1,1,,,0,FALSE,0.8323,,,,,,,,,,,,,,,,,,,,,,,,,,,,,,
,,001,2022-04-29_03h04.20.843,classification_task,2021.2.3,Win32,59.92329818,600e3038c619716c21784ae5,626b377229c10585ec392f89,626b38d99f3f5c490a3661af,,,,,,,,,,,,,,,,,,,,,,,l,1,"[""0.072"",""0.750"",""0.473"",""0.792""]","[1,0,1,1]",0,12,12,12,1,1,0,,,0,FALSE,0.8345,,,,,,,,,,,,,,,,,,,,,,,,,,,,,,
,,001,2022-04-29_03h04.20.843,classification_task,2021.2.3,Win32,59.92329818,600e3038c619716c21784ae5,626b377229c10585ec392f89,626b38d99f3f5c490a3661af,,,,,,,,,,,,,,,,,,,,,,,l,0,"[""0.176"",""0.547"",""0.750"",""0.892""]","[1,1,0,1]",0,13,13,13,1,0,1,,,0,FALSE,0.8844,,,,,,,,,,,,,,,,,,,,,,,,,,,,,,
,,001,2022-04-29_03h04.20.843,classification_task,2021.2.3,Win32,59.92329818,600e3038c619716c21784ae5,626b377229c10585ec392f89,626b38d99f3f5c490a3661af,,,,,,,,,,,,,,,,,,,,,,,a,0,"[""0.072"",""0.110"",""0.473"",""0.222""]","[1,1,1,0]",0,14,14,14,1,1,0,,,0,FALSE,0.4866,,,,,,,,,,,,,,,,,,,,,,,,,,,,,,
,,001,2022-04-29_03h04.20.843,classification_task,2021.2.3,Win32,59.92329818,600e3038c619716c21784ae5,626b377229c10585ec392f89,626b38d99f3f5c490a3661af,,,,,,,,,,,,,,,,,,,,,,,l,1,"[""0.072"",""0.110"",""0.839"",""0.792""]","[1,1,0,1]",0,15,15,15,1,1,0,,,0,FALSE,1.2519,,,,,,,,,,,,,,,,,,,,,,,,,,,,,,
,,001,2022-04-29_03h04.20.843,classification_task,2021.2.3,Win32,59.92329818,600e3038c619716c21784ae5,626b377229c10585ec392f89,626b38d99f3f5c490a3661af,,,,,,,,,,,,,,,,,,,,,,,l,0,"[""0.222"",""0.547"",""0.592"",""0.892""]","[0,1,1,1]",0,16,16,16,1,0,1,,,0,FALSE,1.0334,,,,,,,,,,,,,,,,,,,,,,,,,,,,,,
,,001,2022-04-29_03h04.20.843,classification_task,2021.2.3,Win32,59.92329818,600e3038c619716c21784ae5,626b377229c10585ec392f89,626b38d99f3f5c490a3661af,,,,,,,,,,,,,,,,,,,,,,,a,0,"[""0.072"",""0.110"",""0.473"",""0.222""]","[1,1,1,0]",0,17,17,17,1,1,0,,,0,FALSE,0.4694,,,,,,,,,,,,,,,,,,,,,,,,,,,,,,
,,001,2022-04-29_03h04.20.843,classification_task,2021.2.3,Win32,59.92329818,600e3038c619716c21784ae5,626b377229c10585ec392f89,626b38d99f3f5c490a3661af,,,,,,,,,,,,,,,,,,,,,,,l,0,"[""0.293"",""0.853"",""0.935"",""0.974""]","[1,0,1,1]",0,18,18,18,1,0,0,,,0,FALSE,0.6842,,,,,,,,,,,,,,,,,,,,,,,,,,,,,,
,,001,2022-04-29_03h04.20.843,classification_task,2021.2.3,Win32,59.92329818,600e3038c619716c21784ae5,626b377229c10585ec392f89,626b38d99f3f5c490a3661af,,,,,,,,,,,,,,,,,,,,,,,l,1,"[""0.751"",""0.110"",""0.473"",""0.792""]","[0,1,1,1]",0,19,19,19,1,1,0,,,0,FALSE,0.7673,,,,,,,,,,,,,,,,,,,,,,,,,,,,,,
,,001,2022-04-29_03h04.20.843,classification_task,2021.2.3,Win32,59.92329818,600e3038c619716c21784ae5,626b377229c10585ec392f89,626b38d99f3f5c490a3661af,,,,,,,,,,,,,,,,,,,,,,,a,1,"[""0.176"",""0.547"",""0.439"",""0.892""]","[1,1,0,1]",0,20,20,20,1,0,1,,,0,FALSE,0.8834,,,,,,,,,,,,,,,,,,,,,,,,,,,,,,
,,001,2022-04-29_03h04.20.843,classification_task,2021.2.3,Win32,59.92329818,600e3038c619716c21784ae5,626b377229c10585ec392f89,626b38d99f3f5c490a3661af,,,,,,,,,,,,,,,,,,,,,,,a,0,"[""0.241"",""0.332"",""0.635"",""0.704""]","[0,1,1,1]",0,21,21,21,1,1,1,,,0,FALSE,0.8331,,,,,,,,,,,,,,,,,,,,,,,,,,,,,,
,,001,2022-04-29_03h04.20.843,classification_task,2021.2.3,Win32,59.92329818,600e3038c619716c21784ae5,626b377229c10585ec392f89,626b38d99f3f5c490a3661af,,,,,,,,,,,,,,,,,,,,,,,a,1,"[""0.176"",""0.547"",""0.592"",""0.237""]","[1,1,1,0]",0,22,22,22,1,0,1,,,0,FALSE,0.7537,,,,,,,,,,,,,,,,,,,,,,,,,,,,,,
,,001,2022-04-29_03h04.20.843,classification_task,2021.2.3,Win32,59.92329818,600e3038c619716c21784ae5,626b377229c10585ec392f89,626b38d99f3f5c490a3661af,,,,,,,,,,,,,,,,,,,,,,,l,1,"[""0.037"",""0.332"",""0.856"",""0.704""]","[1,1,0,1]",0,23,23,23,1,1,1,,,0,FALSE,1.1071,,,,,,,,,,,,,,,,,,,,,,,,,,,,,,
,,001,2022-04-29_03h04.20.843,classification_task,2021.2.3,Win32,59.92329818,600e3038c619716c21784ae5,626b377229c10585ec392f89,626b38d99f3f5c490a3661af,,,,,,,,,,,,,,,,,,,,,,,a,1,"[""0.293"",""0.397"",""0.751"",""0.974""]","[1,1,0,1]",0,24,24,24,1,0,0,,,0,FALSE,0.9,,,,,,,,,,,,,,,,,,,,,,,,,,,,,,
,,001,2022-04-29_03h04.20.843,classification_task,2021.2.3,Win32,59.92329818,600e3038c619716c21784ae5,626b377229c10585ec392f89,626b38d99f3f5c490a3661af,,,,,,,,,,,,,,,,,,,,,,,l,1,"[""0.037"",""0.856"",""0.635"",""0.704""]","[1,0,1,1]",0,25,25,25,1,1,1,,,0,FALSE,0.7003,,,,,,,,,,,,,,,,,,,,,,,,,,,,,,
,,001,2022-04-29_03h04.20.843,classification_task,2021.2.3,Win32,59.92329818,600e3038c619716c21784ae5,626b377229c10585ec392f89,626b38d99f3f5c490a3661af,,,,,,,,,,,,,,,,,,,,,,,a,1,"[""0.176"",""0.241"",""0.592"",""0.892""]","[1,0,1,1]",0,26,26,26,1,0,1,,,0,FALSE,0.566,,,,,,,,,,,,,,,,,,,,,,,,,,,,,,
,,001,2022-04-29_03h04.20.843,classification_task,2021.2.3,Win32,59.92329818,600e3038c619716c21784ae5,626b377229c10585ec392f89,626b38d99f3f5c490a3661af,,,,,,,,,,,,,,,,,,,,,,,l,1,"[""0.072"",""0.751"",""0.473"",""0.792""]","[1,0,1,1]",0,27,27,27,1,1,0,,,0,FALSE,1.2184,,,,,,,,,,,,,,,,,,,,,,,,,,,,,,
,,001,2022-04-29_03h04.20.843,classification_task,2021.2.3,Win32,59.92329818,600e3038c619716c21784ae5,626b377229c10585ec392f89,626b38d99f3f5c490a3661af,,,,,,,,,,,,,,,,,,,,,,,a,0,"[""0.072"",""0.110"",""0.213"",""0.792""]","[1,1,0,1]",0,28,28,28,1,1,0,,,0,FALSE,0.632,,,,,,,,,,,,,,,,,,,,,,,,,,,,,,
,,001,2022-04-29_03h04.20.843,classification_task,2021.2.3,Win32,59.92329818,600e3038c619716c21784ae5,626b377229c10585ec392f89,626b38d99f3f5c490a3661af,,,,,,,,,,,,,,,,,,,,,,,a,1,"[""0.293"",""0.397"",""0.935"",""0.237""]","[1,1,1,0]",0,29,29,29,1,0,0,,,0,FALSE,0.5826,,,,,,,,,,,,,,,,,,,,,,,,,,,,,,
,,001,2022-04-29_03h04.20.843,classification_task,2021.2.3,Win32,59.92329818,600e3038c619716c21784ae5,626b377229c10585ec392f89,626b38d99f3f5c490a3661af,,,,,,,,,,,,,,,,,,,,,,,a,0,"[""0.037"",""0.332"",""0.635"",""0.439""]","[1,1,1,0]",0,30,30,30,1,1,1,,,0,FALSE,0.9056,,,,,,,,,,,,,,,,,,,,,,,,,,,,,,
,,001,2022-04-29_03h04.20.843,classification_task,2021.2.3,Win32,59.92329818,600e3038c619716c21784ae5,626b377229c10585ec392f89,626b38d99f3f5c490a3661af,,,,,,,,,,,,,,,,,,,,,,,l,0,"[""0.212"",""0.397"",""0.935"",""0.974""]","[0,1,1,1]",0,31,31,31,1,0,0,,,0,FALSE,0.6216,,,,,,,,,,,,,,,,,,,,,,,,,,,,,,
,,001,2022-04-29_03h04.20.843,classification_task,2021.2.3,Win32,59.92329818,600e3038c619716c21784ae5,626b377229c10585ec392f89,626b38d99f3f5c490a3661af,,,,,,,,,,,,,,,,,,,,,,,l,0,"[""0.176"",""0.547"",""0.744"",""0.892""]","[1,1,0,1]",0,32,32,32,1,0,1,,,0,FALSE,0.9997,,,,,,,,,,,,,,,,,,,,,,,,,,,,,,
,,001,2022-04-29_03h04.20.843,classification_task,2021.2.3,Win32,59.92329818,600e3038c619716c21784ae5,626b377229c10585ec392f89,626b38d99f3f5c490a3661af,,,,,,,,,,,,,,,,,,,,,,,a,0,"[""0.037"",""0.332"",""0.635"",""0.848""]","[1,1,1,0]",0,33,33,33,1,1,1,,,0,FALSE,1.0389,,,,,,,,,,,,,,,,,,,,,,,,,,,,,,
,,001,2022-04-29_03h04.20.843,classification_task,2021.2.3,Win32,59.92329818,600e3038c619716c21784ae5,626b377229c10585ec392f89,626b38d99f3f5c490a3661af,,,,,,,,,,,,,,,,,,,,,,,l,0,"[""0.293"",""0.506"",""0.935"",""0.974""]","[1,0,1,1]",0,34,34,34,1,0,0,,,0,FALSE,0.7333,,,,,,,,,,,,,,,,,,,,,,,,,,,,,,
,,001,2022-04-29_03h04.20.843,classification_task,2021.2.3,Win32,59.92329818,600e3038c619716c21784ae5,626b377229c10585ec392f89,626b38d99f3f5c490a3661af,,,,,,,,,,,,,,,,,,,,,,,a,0,"[""0.072"",""0.110"",""0.473"",""0.239""]","[1,1,1,0]",0,35,35,35,1,1,0,,,0,FALSE,0.7003,,,,,,,,,,,,,,,,,,,,,,,,,,,,,,
,,001,2022-04-29_03h04.20.843,classification_task,2021.2.3,Win32,59.92329818,600e3038c619716c21784ae5,626b377229c10585ec392f89,626b38d99f3f5c490a3661af,,,,,,,,,,,,,,,,,,,,,,,l,0,"[""0.853"",""0.397"",""0.935"",""0.974""]","[0,1,1,1]",0,36,36,36,1,0,0,,,0,FALSE,0.6336,,,,,,,,,,,,,,,,,,,,,,,,,,,,,,
,,001,2022-04-29_03h04.20.843,classification_task,2021.2.3,Win32,59.92329818,600e3038c619716c21784ae5,626b377229c10585ec392f89,626b38d99f3f5c490a3661af,,,,,,,,,,,,,,,,,,,,,,,a,1,"[""0.293"",""0.397"",""0.241"",""0.974""]","[1,1,0,1]",0,37,37,37,1,0,0,,,0,FALSE,0.5827,,,,,,,,,,,,,,,,,,,,,,,,,,,,,,
,,001,2022-04-29_03h04.20.843,classification_task,2021.2.3,Win32,59.92329818,600e3038c619716c21784ae5,626b377229c10585ec392f89,626b38d99f3f5c490a3661af,,,,,,,,,,,,,,,,,,,,,,,a,1,"[""0.293"",""0.397"",""0.935"",""0.222""]","[1,1,1,0]",0,38,38,38,1,0,0,,,0,FALSE,0.6491,,,,,,,,,,,,,,,,,,,,,,,,,,,,,,
,,001,2022-04-29_03h04.20.843,classification_task,2021.2.3,Win32,59.92329818,600e3038c619716c21784ae5,626b377229c10585ec392f89,626b38d99f3f5c490a3661af,,,,,,,,,,,,,,,,,,,,,,,a,0,"[""0.237"",""0.332"",""0.635"",""0.704""]","[0,1,1,1]",0,39,39,39,1,1,1,,,0,FALSE,0.7998,,,,,,,,,,,,,,,,,,,,,,,,,,,,,,
,,001,2022-04-29_03h04.20.843,classification_task,2021.2.3,Win32,59.92329818,600e3038c619716c21784ae5,626b377229c10585ec392f89,626b38d99f3f5c490a3661af,,,,,,,,,,,,,,,,,,,,,,,a,0,"[""0.037"",""0.332"",""0.237"",""0.704""]","[1,1,0,1]",0,40,40,40,1,1,1,,,0,FALSE,0.984,,,,,,,,,,,,,,,,,,,,,,,,,,,,,,
,,001,2022-04-29_03h04.20.843,classification_task,2021.2.3,Win32,59.92329818,600e3038c619716c21784ae5,626b377229c10585ec392f89,626b38d99f3f5c490a3661af,,,,,,,,,,,,,,,,,,,,,,,l,1,"[""0.037"",""0.241"",""0.635"",""0.704""]","[1,0,1,1]",0,41,41,41,1,1,1,,,0,FALSE,3.5574,,,,,,,,,,,,,,,,,,,,,,,,,,,,,,
,,001,2022-04-29_03h04.20.843,classification_task,2021.2.3,Win32,59.92329818,600e3038c619716c21784ae5,626b377229c10585ec392f89,626b38d99f3f5c490a3661af,,,,,,,,,,,,,,,,,,,,,,,l,0,"[""0.176"",""0.856"",""0.592"",""0.892""]","[1,0,1,1]",0,42,42,42,1,0,1,,,0,FALSE,0.6932,,,,,,,,,,,,,,,,,,,,,,,,,,,,,,
,,001,2022-04-29_03h04.20.843,classification_task,2021.2.3,Win32,59.92329818,600e3038c619716c21784ae5,626b377229c10585ec392f89,626b38d99f3f5c490a3661af,,,,,,,,,,,,,,,,,,,,,,,a,0,"[""0.072"",""0.110"",""0.848"",""0.792""]","[1,1,0,1]",0,43,43,43,1,1,0,,,0,FALSE,0.6668,,,,,,,,,,,,,,,,,,,,,,,,,,,,,,
,,001,2022-04-29_03h04.20.843,classification_task,2021.2.3,Win32,59.92329818,600e3038c619716c21784ae5,626b377229c10585ec392f89,626b38d99f3f5c490a3661af,,,,,,,,,,,,,,,,,,,,,,,l,0,"[""0.744"",""0.547"",""0.592"",""0.892""]","[0,1,1,1]",0,44,44,44,1,0,1,,,0,FALSE,0.7001,,,,,,,,,,,,,,,,,,,,,,,,,,,,,,
,,001,2022-04-29_03h04.20.843,classification_task,2021.2.3,Win32,59.92329818,600e3038c619716c21784ae5,626b377229c10585ec392f89,626b38d99f3f5c490a3661af,,,,,,,,,,,,,,,,,,,,,,,l,0,"[""0.176"",""0.547"",""0.592"",""0.744""]","[1,1,1,0]",0,45,45,45,1,0,1,,,0,FALSE,0.6498,,,,,,,,,,,,,,,,,,,,,,,,,,,,,,
,,001,2022-04-29_03h04.20.843,classification_task,2021.2.3,Win32,59.92329818,600e3038c619716c21784ae5,626b377229c10585ec392f89,626b38d99f3f5c490a3661af,,,,,,,,,,,,,,,,,,,,,,,l,1,"[""0.839"",""0.110"",""0.473"",""0.792""]","[0,1,1,1]",0,46,46,46,1,1,0,,,0,FALSE,0.7832,,,,,,,,,,,,,,,,,,,,,,,,,,,,,,
,,001,2022-04-29_03h04.20.843,classification_task,2021.2.3,Win32,59.92329818,600e3038c619716c21784ae5,626b377229c10585ec392f89,626b38d99f3f5c490a3661af,,,,,,,,,,,,,,,,,,,,,,,a,0,"[""0.072"",""0.239"",""0.473"",""0.792""]","[1,0,1,1]",0,47,47,47,1,1,0,,,0,FALSE,0.5994,,,,,,,,,,,,,,,,,,,,,,,,,,,,,,
,,001,2022-04-29_03h04.20.843,classification_task,2021.2.3,Win32,59.92329818,600e3038c619716c21784ae5,626b377229c10585ec392f89,626b38d99f3f5c490a3661af,,,,,,,,,,,,,,,,,,,,,,,l,1,"[""0.506"",""0.332"",""0.635"",""0.704""]","[0,1,1,1]",0,48,48,48,1,1,1,,,0,FALSE,0.6838,,,,,,,,,,,,,,,,,,,,,,,,,,,,,,
,,001,2022-04-29_03h04.20.843,classification_task,2021.2.3,Win32,59.92329818,600e3038c619716c21784ae5,626b377229c10585ec392f89,626b38d99f3f5c490a3661af,,,,,,,,,,,,,,,,,,,,,,,a,0,"[""0.072"",""0.110"",""0.744"",""0.792""]","[1,1,0,1]",0,49,49,49,1,1,0,,,0,FALSE,0.5885,,,,,,,,,,,,,,,,,,,,,,,,,,,,,,
,,001,2022-04-29_03h04.20.843,classification_task,2021.2.3,Win32,59.92329818,600e3038c619716c21784ae5,626b377229c10585ec392f89,626b38d99f3f5c490a3661af,,,,,,,,,,,,,,,,,,,,,,,a,0,"[""0.072"",""0.212"",""0.473"",""0.792""]","[1,0,1,1]",0,50,50,50,1,1,0,,,0,FALSE,1.2231,,,,,,,,,,,,,,,,,,,,,,,,,,,,,,
,,001,2022-04-29_03h04.20.843,classification_task,2021.2.3,Win32,59.92329818,600e3038c619716c21784ae5,626b377229c10585ec392f89,626b38d99f3f5c490a3661af,,,,,,,,,,,,,,,,,,,,,,,l,0,"[""0.212"",""0.547"",""0.592"",""0.892""]","[0,1,1,1]",0,51,51,51,1,0,1,,,0,FALSE,0.7733,,,,,,,,,,,,,,,,,,,,,,,,,,,,,,
,,001,2022-04-29_03h04.20.843,classification_task,2021.2.3,Win32,59.92329818,600e3038c619716c21784ae5,626b377229c10585ec392f89,626b38d99f3f5c490a3661af,,,,,,,,,,,,,,,,,,,,,,,l,0,"[""0.176"",""0.506"",""0.592"",""0.892""]","[1,0,1,1]",0,52,52,52,1,0,1,,,0,FALSE,0.6998,,,,,,,,,,,,,,,,,,,,,,,,,,,,,,
,,001,2022-04-29_03h04.20.843,classification_task,2021.2.3,Win32,59.92329818,600e3038c619716c21784ae5,626b377229c10585ec392f89,626b38d99f3f5c490a3661af,,,,,,,,,,,,,,,,,,,,,,,a,1,"[""0.293"",""0.397"",""0.935"",""0.212""]","[1,1,1,0]",0,53,53,53,1,0,0,,,0,FALSE,0.6829,,,,,,,,,,,,,,,,,,,,,,,,,,,,,,
,,001,2022-04-29_03h04.20.843,classification_task,2021.2.3,Win32,59.92329818,600e3038c619716c21784ae5,626b377229c10585ec392f89,626b38d99f3f5c490a3661af,,,,,,,,,,,,,,,,,,,,,,,l,0,"[""0.222"",""0.397"",""0.935"",""0.974""]","[0,1,1,1]",0,54,54,54,1,0,0,,,0,FALSE,0.7004,,,,,,,,,,,,,,,,,,,,,,,,,,,,,,
,,001,2022-04-29_03h04.20.843,classification_task,2021.2.3,Win32,59.92329818,600e3038c619716c21784ae5,626b377229c10585ec392f89,626b38d99f3f5c490a3661af,,,,,,,,,,,,,,,,,,,,,,,a,1,"[""0.176"",""0.547"",""0.506"",""0.892""]","[1,1,0,1]",0,55,55,55,1,0,1,,,0,FALSE,0.75,,,,,,,,,,,,,,,,,,,,,,,,,,,,,,
,,001,2022-04-29_03h04.20.843,classification_task,2021.2.3,Win32,59.92329818,600e3038c619716c21784ae5,626b377229c10585ec392f89,626b38d99f3f5c490a3661af,,,,,,,,,,,,,,,,,,,,,,,a,0,"[""0.037"",""0.332"",""0.635"",""0.744""]","[1,1,1,0]",0,56,56,56,1,1,1,,,0,FALSE,0.8208,,,,,,,,,,,,,,,,,,,,,,,,,,,,,,
,,001,2022-04-29_03h04.20.843,classification_task,2021.2.3,Win32,59.92329818,600e3038c619716c21784ae5,626b377229c10585ec392f89,626b38d99f3f5c490a3661af,,,,,,,,,,,,,,,,,,,,,,,a,1,"[""0.293"",""0.222"",""0.935"",""0.974""]","[1,0,1,1]",0,57,57,57,1,0,0,,,0,FALSE,1.6017,,,,,,,,,,,,,,,,,,,,,,,,,,,,,,
,,001,2022-04-29_03h04.20.843,classification_task,2021.2.3,Win32,59.92329818,600e3038c619716c21784ae5,626b377229c10585ec392f89,626b38d99f3f5c490a3661af,,,,,,,,,,,,,,,,,,,,,,,l,0,"[""0.293"",""0.397"",""0.750"",""0.974""]","[1,1,0,1]",0,58,58,58,1,0,0,,,0,FALSE,0.8332,,,,,,,,,,,,,,,,,,,,,,,,,,,,,,
,,001,2022-04-29_03h04.20.843,classification_task,2021.2.3,Win32,59.92329818,600e3038c619716c21784ae5,626b377229c10585ec392f89,626b38d99f3f5c490a3661af,,,,,,,,,,,,,,,,,,,,,,,a,0,"[""0.072"",""0.110"",""0.473"",""0.216""]","[1,1,1,0]",0,59,59,59,1,1,0,,,0,FALSE,0.6653,,,,,,,,,,,,,,,,,,,,,,,,,,,,,,
,,001,2022-04-29_03h04.20.843,classification_task,2021.2.3,Win32,59.92329818,600e3038c619716c21784ae5,626b377229c10585ec392f89,626b38d99f3f5c490a3661af,,,,,,,,,,,,,,,,,,,,,,,l,1,"[""0.037"",""0.848"",""0.635"",""0.704""]","[1,0,1,1]",0,60,60,60,1,1,1,,,0,FALSE,0.8215,,,,,,,,,,,,,,,,,,,,,,,,,,,,,,
,,001,2022-04-29_03h04.20.843,classification_task,2021.2.3,Win32,59.92329818,600e3038c619716c21784ae5,626b377229c10585ec392f89,626b38d99f3f5c490a3661af,,,,,,,,,,,,,,,,,,,,,,,a,0,"[""0.037"",""0.332"",""0.213"",""0.704""]","[1,1,0,1]",0,61,61,61,1,1,1,,,0,FALSE,0.8493,,,,,,,,,,,,,,,,,,,,,,,,,,,,,,
,,001,2022-04-29_03h04.20.843,classification_task,2021.2.3,Win32,59.92329818,600e3038c619716c21784ae5,626b377229c10585ec392f89,626b38d99f3f5c490a3661af,,,,,,,,,,,,,,,,,,,,,,,a,1,"[""0.176"",""0.547"",""0.592"",""0.212""]","[1,1,1,0]",0,62,62,62,1,0,1,,,0,FALSE,0.8703,,,,,,,,,,,,,,,,,,,,,,,,,,,,,,
,,001,2022-04-29_03h04.20.843,classification_task,2021.2.3,Win32,59.92329818,600e3038c619716c21784ae5,626b377229c10585ec392f89,626b38d99f3f5c490a3661af,,,,,,,,,,,,,,,,,,,,,,,a,0,"[""0.237"",""0.110"",""0.473"",""0.792""]","[0,1,1,1]",0,63,63,63,1,1,0,,,0,FALSE,1.0346,,,,,,,,,,,,,,,,,,,,,,,,,,,,,,
,,001,2022-04-29_03h04.20.843,classification_task,2021.2.3,Win32,59.92329818,600e3038c619716c21784ae5,626b377229c10585ec392f89,626b38d99f3f5c490a3661af,,,,,,,,,,,,,,,,,,,,,,,,,,,,,,,,,,,,,,,0, ,,0,5.205761317,143.2948,0,2,2,2,1,2,3,,,,,,,,,,,,,,,,,
,,001,2022-04-29_03h04.20.843,classification_task,2021.2.3,Win32,59.92329818,600e3038c619716c21784ae5,626b377229c10585ec392f89,626b38d99f3f5c490a3661af,,,,,,,,,,,,,,,,,,,,,,,,,,,,,,,,,,,,,,,1,  ,,0,6.38154027,145.5009,0,2,2,2,1,2,3,,,,,,,,,,,,,,,,,
,,001,2022-04-29_03h04.20.843,classification_task,2021.2.3,Win32,59.92329818,600e3038c619716c21784ae5,626b377229c10585ec392f89,626b38d99f3f5c490a3661af,,,,,,,,,,,,,,,,,,,,,,,,,,,,,,,,,,,,,,,2,  ,,0,5.529100529,148.0527,0,2,2,2,1,2,3,,,,,,,,,,,,,,,,,
,,001,2022-04-29_03h04.20.843,classification_task,2021.2.3,Win32,59.92329818,600e3038c619716c21784ae5,626b377229c10585ec392f89,626b38d99f3f5c490a3661af,,,,,,,,,,,,,,,,,,,,,,,,,,,,,,,,,,,,,,,,,,,,,0,2,2,2,1,,3,,,,,,,,,,,,,,,,,
,,001,2022-04-29_03h04.20.843,classification_task,2021.2.3,Win32,59.92329818,600e3038c619716c21784ae5,626b377229c10585ec392f89,626b38d99f3f5c490a3661af,,,,,,,,,,,,,,,,,,,,,,,,,,,,,,,,,,,,,,,,,,,,,,,,,,,,,I believe the aid is a competent performer,,0.7,0,4,768.4238,0,0,0,0,1,0,,,,
,,001,2022-04-29_03h04.20.843,classification_task,2021.2.3,Win32,59.92329818,600e3038c619716c21784ae5,626b377229c10585ec392f89,626b38d99f3f5c490a3661af,,,,,,,,,,,,,,,,,,,,,,,,,,,,,,,,,,,,,,,,,,,,,,,,,,,,,I trust the aid,,0.7,0,4,769.9038,0,0,0,0,1,0,,,,
,,001,2022-04-29_03h04.20.843,classification_task,2021.2.3,Win32,59.92329818,600e3038c619716c21784ae5,626b377229c10585ec392f89,626b38d99f3f5c490a3661af,,,,,,,,,,,,,,,,,,,,,,,,,,,,,,,,,,,,,,,,,,,,,,,,,,,,,I have confidence in the advice given by the aid,,0.7,0,3,772.9945,0,0,0,0,1,0,,,,
,,001,2022-04-29_03h04.20.843,classification_task,2021.2.3,Win32,59.92329818,600e3038c619716c21784ae5,626b377229c10585ec392f89,626b38d99f3f5c490a3661af,,,,,,,,,,,,,,,,,,,,,,,,,,,,,,,,,,,,,,,,,,,,,,,,,,,,,I can depend on the aid,,0.7,0,4,774.2376,0,0,0,0,1,0,,,,
,,001,2022-04-29_03h04.20.843,classification_task,2021.2.3,Win32,59.92329818,600e3038c619716c21784ae5,626b377229c10585ec392f89,626b38d99f3f5c490a3661af,,,,,,,,,,,,,,,,,,,,,,,,,,,,,,,,,,,,,,,,,,,,,,,,,,,,,I can rely on the aid to behave in consistent ways,,0.7,0,3,781.7223,0,0,0,0,1,0,,,,
,,001,2022-04-29_03h04.20.843,classification_task,2021.2.3,Win32,59.92329818,600e3038c619716c21784ae5,626b377229c10585ec392f89,626b38d99f3f5c490a3661af,,,,,,,,,,,,,,,,,,,,,,,,,,,,,,,,,,,,,,,,,,,,,,,,,,,,,I can rely on the aid to do its best every time I take its advice,,0.7,0,4,781.0793,0,0,0,0,1,0,,,,
,,001,2022-04-29_03h04.20.843,classification_task,2021.2.3,Win32,59.92329818,600e3038c619716c21784ae5,626b377229c10585ec392f89,626b38d99f3f5c490a3661af,,,,,,,,,,,,,,,,,,,,,,,,,,,,,,,,,,,,,,,,,,,,,,,,,,,,,"On trials you completed with assistance from the aid, how frequently did you think the aid was correct?",,0.7,0,75,,0,0,0,0,1,0,,,,
,,001,2022-04-29_03h04.20.843,classification_task,2021.2.3,Win32,59.92329818,600e3038c619716c21784ae5,626b377229c10585ec392f89,626b38d99f3f5c490a3661af,,,,,,,,,,,,,,,,,,,,,,,,,,,,,,,,,,,,,,,,,,,,,,,,,,,,,"On trials you completed without the aid, how frequently did you think you were correct?",,0.7,0,63,,0,0,0,0,1,0,,,,
,,001,2022-04-29_03h04.20.843,classification_task,2021.2.3,Win32,59.92329818,600e3038c619716c21784ae5,626b377229c10585ec392f89,626b38d99f3f5c490a3661af,,,,,,,,,,,,,,,,,,,,,,,,,,,,,,,,,,,,,,,,,,,,,,,,,,,,,,,,,,,0,0,0,0,1,,,,,
,,001,2022-04-29_03h04.20.843,classification_task,2021.2.3,Win32,59.92329818,600e3038c619716c21784ae5,626b377229c10585ec392f89,626b38d99f3f5c490a3661af,,,,,,,,,,,,,,,,,,,,,,,,,,,,,,,,,,,,,,,,,,,,,,,,,,,,,,,,,,,,,,,,,space,13.39,827.9765,
,,001,2022-04-29_03h04.20.843,classification_task,2021.2.3,Win32,59.92329818,600e3038c619716c21784ae5,626b377229c10585ec392f89,626b38d99f3f5c490a3661af,,,,,,,,,,,,,,,,,,,,,,,,,,,,,,,,,,,,,,,,,,,,,,,,,,,,,,,,,,,,,,,,,,,,"Mozilla/5.0 (Windows NT 10.0; Win64; x64) AppleWebKit/537.36 (KHTML, like Gecko) Chrome/100.0.4896.127 Safari/537.36"
