usingWebGL,participant,session,date,expName,psychopyVersion,OS,frameRate,PROLIFIC_PID,STUDY_ID,SESSION_ID,signatures_friend,signatures_foe,band_ranges_top,band_ranges_bottom,formitemText,formtype,formundefined,formitemWidth,formindex,formresponse,formrt,key_resp_2.keys,key_resp_2.rt,tute_resp.keys,tute_resp.rt,tutorial.thisRepN,tutorial.thisTrialN,tutorial.thisN,tutorial.thisIndex,tutorial.ran,key_resp_4.keys,key_resp_4.rt,key_resp.keys,key_resp.corr,key_resp.rt,lines_presented,is_signal_presented,trials.thisRepN,trials.thisTrialN,trials.thisN,trials.thisIndex,trials.ran,vessel,active_band,lines,is_signal,supported_pos,catch_trial,debrief_formindex,debrief_formitemText,debrief_formtype,debrief_formitemWidth,debrief_formresponse,debrief_formrt,phases.thisRepN,phases.thisTrialN,phases.thisN,phases.thisIndex,phases.ran,phases.order,phase,key_resp_3.keys,key_resp_3.rt,trustitemText,trusttype,trustitemWidth,trustindex,trustresponse,trustrt,support_status.thisRepN,support_status.thisTrialN,support_status.thisN,support_status.thisIndex,support_status.ran,support_status.order,key_resp_5.keys,key_resp_5.rt,globalClockTime,userAgent
TRUE,,001,2022-04-28_19h58.25.450,classification_task,2021.2.3,Win32,59.87665409,614ac80d5b0c54f633e5df75,626b377229c10585ec392f8a,626b382474851bf0b829baf5,,,,,,,,,,,,,,,,,,,,,,,,,,,,,,,,,,,,,,,,,,,,,,,,,,,,,,,,,,,,,,,,,,,,,
,,001,2022-04-28_19h58.25.450,classification_task,2021.2.3,Win32,59.87665409,614ac80d5b0c54f633e5df75,626b377229c10585ec392f8a,626b382474851bf0b829baf5,"[[""0.161"",""0.427"",""0.648"",""0.967""],[""0.249"",""0.349"",""0.860"",""0.927""]]","[[""0.106"",""0.293"",""0.525"",""0.688""],[""0.028"",""0.064"",""0.470"",""0.770""]]","[1,10]","[100,1000]",Video game experience,,,0.7,0,,,,,,,,,,,,,,,,,,,,,,,,,,,,,,,,,,,,,,,,,,,,,,,,,,,,,,,,,,,,
,,001,2022-04-28_19h58.25.450,classification_task,2021.2.3,Win32,59.87665409,614ac80d5b0c54f633e5df75,626b377229c10585ec392f8a,626b382474851bf0b829baf5,,,,,Approximately how many hours did you spend playing video games in the last week?,,,0.7,0,9,,,,,,,,,,,,,,,,,,,,,,,,,,,,,,,,,,,,,,,,,,,,,,,,,,,,,,,,,,,
,,001,2022-04-28_19h58.25.450,classification_task,2021.2.3,Win32,59.87665409,614ac80d5b0c54f633e5df75,626b377229c10585ec392f8a,626b382474851bf0b829baf5,,,,,"Which game did you play the most this year? (Enter ""None"" if you didn't play any)",,,0.7,0,Minecraft,,,,,,,,,,,,,,,,,,,,,,,,,,,,,,,,,,,,,,,,,,,,,,,,,,,,,,,,,,,
,,001,2022-04-28_19h58.25.450,classification_task,2021.2.3,Win32,59.87665409,614ac80d5b0c54f633e5df75,626b377229c10585ec392f8a,626b382474851bf0b829baf5,,,,,Visual perception,,,0.7,0,,,,,,,,,,,,,,,,,,,,,,,,,,,,,,,,,,,,,,,,,,,,,,,,,,,,,,,,,,,,
,,001,2022-04-28_19h58.25.450,classification_task,2021.2.3,Win32,59.87665409,614ac80d5b0c54f633e5df75,626b377229c10585ec392f8a,626b382474851bf0b829baf5,,,,,Do you have any form of color blindness?,,,0.7,0,No,25.0197,,,,,,,,,,,,,,,,,,,,,,,,,,,,,,,,,,,,,,,,,,,,,,,,,,,,,,,,,,
,,001,2022-04-28_19h58.25.450,classification_task,2021.2.3,Win32,59.87665409,614ac80d5b0c54f633e5df75,626b377229c10585ec392f8a,626b382474851bf0b829baf5,,,,,Do you use software to change the colour temperature of your screen (e.g. f.lux)?,,,0.7,0,No,29.364,,,,,,,,,,,,,,,,,,,,,,,,,,,,,,,,,,,,,,,,,,,,,,,,,,,,,,,,,,
,,001,2022-04-28_19h58.25.450,classification_task,2021.2.3,Win32,59.87665409,614ac80d5b0c54f633e5df75,626b377229c10585ec392f8a,626b382474851bf0b829baf5,,,,,,,,,,,,space,25.256,space,10.9122,0,0,0,0,1,,,,,,,,,,,,,,,,,,,,,,,,,,,,,,,,,,,,,,,,,,,,,,,,,
,,001,2022-04-28_19h58.25.450,classification_task,2021.2.3,Win32,59.87665409,614ac80d5b0c54f633e5df75,626b377229c10585ec392f8a,626b382474851bf0b829baf5,,,,,,,,,,,,,,space,11.2136,1,0,1,0,1,,,,,,,,,,,,,,,,,,,,,,,,,,,,,,,,,,,,,,,,,,,,,,,,,
,,001,2022-04-28_19h58.25.450,classification_task,2021.2.3,Win32,59.87665409,614ac80d5b0c54f633e5df75,626b377229c10585ec392f8a,626b382474851bf0b829baf5,,,,,,,,,,,,,,space,0.2654,2,0,2,0,1,,,,,,,,,,,,,,,,,,,,,,,,,,,,,,,,,,,,,,,,,,,,,,,,,
,,001,2022-04-28_19h58.25.450,classification_task,2021.2.3,Win32,59.87665409,614ac80d5b0c54f633e5df75,626b377229c10585ec392f8a,626b382474851bf0b829baf5,,,,,,,,,,,,,,space,10.9203,3,0,3,0,1,,,,,,,,,,,,,,,,,,,,,,,,,,,,,,,,,,,,,,,,,,,,,,,,,
,,001,2022-04-28_19h58.25.450,classification_task,2021.2.3,Win32,59.87665409,614ac80d5b0c54f633e5df75,626b377229c10585ec392f8a,626b382474851bf0b829baf5,,,,,,,,,,,,,,space,21.7443,4,0,4,0,1,,,,,,,,,,,,,,,,,,,,,,,,,,,,,,,,,,,,,,,,,,,,,,,,,
,,001,2022-04-28_19h58.25.450,classification_task,2021.2.3,Win32,59.87665409,614ac80d5b0c54f633e5df75,626b377229c10585ec392f8a,626b382474851bf0b829baf5,,,,,,,,,,,,,,,,,,,,,space,1.8261,l,0,0.4395,"[""0.249"",""0.349"",""0.583"",""0.927""]","[1,1,0,1]",0,0,0,0,1,0,1,,,0,FALSE,,,,,,,,,,,,,,,,,,,,,,,,,,,,,,,
,,001,2022-04-28_19h58.25.450,classification_task,2021.2.3,Win32,59.87665409,614ac80d5b0c54f633e5df75,626b377229c10585ec392f8a,626b382474851bf0b829baf5,,,,,,,,,,,,,,,,,,,,,,,a,0,0.6093,"[""0.106"",""0.293"",""0.525"",""0.568""]","[1,1,1,0]",0,1,1,1,1,1,0,,,0,FALSE,,,,,,,,,,,,,,,,,,,,,,,,,,,,,,,
,,001,2022-04-28_19h58.25.450,classification_task,2021.2.3,Win32,59.87665409,614ac80d5b0c54f633e5df75,626b377229c10585ec392f8a,626b382474851bf0b829baf5,,,,,,,,,,,,,,,,,,,,,,,a,0,1.2422,"[""0.597"",""0.064"",""0.470"",""0.770""]","[0,1,1,1]",0,2,2,2,1,1,1,,,0,FALSE,,,,,,,,,,,,,,,,,,,,,,,,,,,,,,,
,,001,2022-04-28_19h58.25.450,classification_task,2021.2.3,Win32,59.87665409,614ac80d5b0c54f633e5df75,626b377229c10585ec392f8a,626b382474851bf0b829baf5,,,,,,,,,,,,,,,,,,,,,,,a,0,0.8963,"[""0.028"",""0.808"",""0.470"",""0.770""]","[1,0,1,1]",0,3,3,3,1,1,1,,,0,FALSE,,,,,,,,,,,,,,,,,,,,,,,,,,,,,,,
,,001,2022-04-28_19h58.25.450,classification_task,2021.2.3,Win32,59.87665409,614ac80d5b0c54f633e5df75,626b377229c10585ec392f8a,626b382474851bf0b829baf5,,,,,,,,,,,,,,,,,,,,,,,l,0,0.7243,"[""0.161"",""0.208"",""0.648"",""0.967""]","[1,0,1,1]",0,4,4,4,1,0,0,,,0,FALSE,,,,,,,,,,,,,,,,,,,,,,,,,,,,,,,
,,001,2022-04-28_19h58.25.450,classification_task,2021.2.3,Win32,59.87665409,614ac80d5b0c54f633e5df75,626b377229c10585ec392f8a,626b382474851bf0b829baf5,,,,,,,,,,,,,,,,,,,,,,,a,1,0.5394,"[""0.603"",""0.349"",""0.860"",""0.927""]","[0,1,1,1]",0,5,5,5,1,0,1,,,0,FALSE,,,,,,,,,,,,,,,,,,,,,,,,,,,,,,,
,,001,2022-04-28_19h58.25.450,classification_task,2021.2.3,Win32,59.87665409,614ac80d5b0c54f633e5df75,626b377229c10585ec392f8a,626b382474851bf0b829baf5,,,,,,,,,,,,,,,,,,,,,,,a,1,0.7396,"[""0.804"",""0.427"",""0.648"",""0.967""]","[0,1,1,1]",0,6,6,6,1,0,0,,,0,FALSE,,,,,,,,,,,,,,,,,,,,,,,,,,,,,,,
,,001,2022-04-28_19h58.25.450,classification_task,2021.2.3,Win32,59.87665409,614ac80d5b0c54f633e5df75,626b377229c10585ec392f8a,626b382474851bf0b829baf5,,,,,,,,,,,,,,,,,,,,,,,l,0,0.9942,"[""0.161"",""0.427"",""0.648"",""0.208""]","[1,1,1,0]",0,7,7,7,1,0,0,,,0,FALSE,,,,,,,,,,,,,,,,,,,,,,,,,,,,,,,
,,001,2022-04-28_19h58.25.450,classification_task,2021.2.3,Win32,59.87665409,614ac80d5b0c54f633e5df75,626b377229c10585ec392f8a,626b382474851bf0b829baf5,,,,,,,,,,,,,,,,,,,,,,,l,1,0.6461,"[""0.028"",""0.064"",""0.470"",""0.597""]","[1,1,1,0]",0,8,8,8,1,1,1,,,0,FALSE,,,,,,,,,,,,,,,,,,,,,,,,,,,,,,,
,,001,2022-04-28_19h58.25.450,classification_task,2021.2.3,Win32,59.87665409,614ac80d5b0c54f633e5df75,626b377229c10585ec392f8a,626b382474851bf0b829baf5,,,,,,,,,,,,,,,,,,,,,,,l,1,0.5648,"[""0.028"",""0.064"",""0.599"",""0.770""]","[1,1,0,1]",0,9,9,9,1,1,1,,,0,FALSE,,,,,,,,,,,,,,,,,,,,,,,,,,,,,,,
,,001,2022-04-28_19h58.25.450,classification_task,2021.2.3,Win32,59.87665409,614ac80d5b0c54f633e5df75,626b377229c10585ec392f8a,626b382474851bf0b829baf5,,,,,,,,,,,,,,,,,,,,,,,a,0,0.4956,"[""0.597"",""0.293"",""0.525"",""0.688""]","[0,1,1,1]",0,10,10,10,1,1,0,,,0,FALSE,,,,,,,,,,,,,,,,,,,,,,,,,,,,,,,
,,001,2022-04-28_19h58.25.450,classification_task,2021.2.3,Win32,59.87665409,614ac80d5b0c54f633e5df75,626b377229c10585ec392f8a,626b382474851bf0b829baf5,,,,,,,,,,,,,,,,,,,,,,,l,0,0.7506,"[""0.161"",""0.427"",""0.736"",""0.967""]","[1,1,0,1]",0,11,11,11,1,0,0,,,0,FALSE,,,,,,,,,,,,,,,,,,,,,,,,,,,,,,,
,,001,2022-04-28_19h58.25.450,classification_task,2021.2.3,Win32,59.87665409,614ac80d5b0c54f633e5df75,626b377229c10585ec392f8a,626b382474851bf0b829baf5,,,,,,,,,,,,,,,,,,,,,,,l,0,0.7893,"[""0.249"",""0.349"",""0.860"",""0.603""]","[1,1,1,0]",0,12,12,12,1,0,1,,,0,FALSE,,,,,,,,,,,,,,,,,,,,,,,,,,,,,,,
,,001,2022-04-28_19h58.25.450,classification_task,2021.2.3,Win32,59.87665409,614ac80d5b0c54f633e5df75,626b377229c10585ec392f8a,626b382474851bf0b829baf5,,,,,,,,,,,,,,,,,,,,,,,a,0,0.857,"[""0.106"",""0.293"",""0.804"",""0.688""]","[1,1,0,1]",0,13,13,13,1,1,0,,,0,FALSE,,,,,,,,,,,,,,,,,,,,,,,,,,,,,,,
,,001,2022-04-28_19h58.25.450,classification_task,2021.2.3,Win32,59.87665409,614ac80d5b0c54f633e5df75,626b377229c10585ec392f8a,626b382474851bf0b829baf5,,,,,,,,,,,,,,,,,,,,,,,a,0,0.4863,"[""0.106"",""0.208"",""0.525"",""0.688""]","[1,0,1,1]",0,14,14,14,1,1,0,,,0,FALSE,,,,,,,,,,,,,,,,,,,,,,,,,,,,,,,
,,001,2022-04-28_19h58.25.450,classification_task,2021.2.3,Win32,59.87665409,614ac80d5b0c54f633e5df75,626b377229c10585ec392f8a,626b382474851bf0b829baf5,,,,,,,,,,,,,,,,,,,,,,,l,0,1.308,"[""0.249"",""0.808"",""0.860"",""0.927""]","[1,0,1,1]",0,15,15,15,1,0,1,,,0,FALSE,,,,,,,,,,,,,,,,,,,,,,,,,,,,,,,
,,001,2022-04-28_19h58.25.450,classification_task,2021.2.3,Win32,59.87665409,614ac80d5b0c54f633e5df75,626b377229c10585ec392f8a,626b382474851bf0b829baf5,,,,,,,,,,,,,,,,,,,,,,,a,1,1.1609,"[""0.249"",""0.349"",""0.860"",""0.820""]","[1,1,1,0]",0,16,16,16,1,0,1,,,0,FALSE,,,,,,,,,,,,,,,,,,,,,,,,,,,,,,,
,,001,2022-04-28_19h58.25.450,classification_task,2021.2.3,Win32,59.87665409,614ac80d5b0c54f633e5df75,626b377229c10585ec392f8a,626b382474851bf0b829baf5,,,,,,,,,,,,,,,,,,,,,,,l,1,0.9286,"[""0.106"",""0.293"",""0.525"",""0.804""]","[1,1,1,0]",0,17,17,17,1,1,0,,,0,FALSE,,,,,,,,,,,,,,,,,,,,,,,,,,,,,,,
,,001,2022-04-28_19h58.25.450,classification_task,2021.2.3,Win32,59.87665409,614ac80d5b0c54f633e5df75,626b377229c10585ec392f8a,626b382474851bf0b829baf5,,,,,,,,,,,,,,,,,,,,,,,l,0,0.6783,"[""0.249"",""0.599"",""0.860"",""0.927""]","[1,0,1,1]",0,18,18,18,1,0,1,,,0,FALSE,,,,,,,,,,,,,,,,,,,,,,,,,,,,,,,
,,001,2022-04-28_19h58.25.450,classification_task,2021.2.3,Win32,59.87665409,614ac80d5b0c54f633e5df75,626b377229c10585ec392f8a,626b382474851bf0b829baf5,,,,,,,,,,,,,,,,,,,,,,,a,0,0.6134,"[""0.028"",""0.804"",""0.470"",""0.770""]","[1,0,1,1]",0,19,19,19,1,1,1,,,0,FALSE,,,,,,,,,,,,,,,,,,,,,,,,,,,,,,,
,,001,2022-04-28_19h58.25.450,classification_task,2021.2.3,Win32,59.87665409,614ac80d5b0c54f633e5df75,626b377229c10585ec392f8a,626b382474851bf0b829baf5,,,,,,,,,,,,,,,,,,,,,,,a,0,0.713,"[""0.028"",""0.064"",""0.470"",""0.568""]","[1,1,1,0]",0,20,20,20,1,1,1,,,0,FALSE,,,,,,,,,,,,,,,,,,,,,,,,,,,,,,,
,,001,2022-04-28_19h58.25.450,classification_task,2021.2.3,Win32,59.87665409,614ac80d5b0c54f633e5df75,626b377229c10585ec392f8a,626b382474851bf0b829baf5,,,,,,,,,,,,,,,,,,,,,,,a,1,1.0443,"[""0.161"",""0.427"",""0.736"",""0.967""]","[1,1,0,1]",0,21,21,21,1,0,0,,,0,FALSE,,,,,,,,,,,,,,,,,,,,,,,,,,,,,,,
,,001,2022-04-28_19h58.25.450,classification_task,2021.2.3,Win32,59.87665409,614ac80d5b0c54f633e5df75,626b377229c10585ec392f8a,626b382474851bf0b829baf5,,,,,,,,,,,,,,,,,,,,,,,l,1,0.7945,"[""0.028"",""0.064"",""0.804"",""0.770""]","[1,1,0,1]",0,22,22,22,1,1,1,,,0,FALSE,,,,,,,,,,,,,,,,,,,,,,,,,,,,,,,
,,001,2022-04-28_19h58.25.450,classification_task,2021.2.3,Win32,59.87665409,614ac80d5b0c54f633e5df75,626b377229c10585ec392f8a,626b382474851bf0b829baf5,,,,,,,,,,,,,,,,,,,,,,,l,0,0.6456,"[""0.161"",""0.427"",""0.648"",""0.610""]","[1,1,1,0]",0,23,23,23,1,0,0,,,0,FALSE,,,,,,,,,,,,,,,,,,,,,,,,,,,,,,,
,,001,2022-04-28_19h58.25.450,classification_task,2021.2.3,Win32,59.87665409,614ac80d5b0c54f633e5df75,626b377229c10585ec392f8a,626b382474851bf0b829baf5,,,,,,,,,,,,,,,,,,,,,,,a,0,0.6785,"[""0.599"",""0.064"",""0.470"",""0.770""]","[0,1,1,1]",0,24,24,24,1,1,1,,,0,FALSE,,,,,,,,,,,,,,,,,,,,,,,,,,,,,,,
,,001,2022-04-28_19h58.25.450,classification_task,2021.2.3,Win32,59.87665409,614ac80d5b0c54f633e5df75,626b377229c10585ec392f8a,626b382474851bf0b829baf5,,,,,,,,,,,,,,,,,,,,,,,l,1,0.6652,"[""0.804"",""0.293"",""0.525"",""0.688""]","[0,1,1,1]",0,25,25,25,1,1,0,,,0,FALSE,,,,,,,,,,,,,,,,,,,,,,,,,,,,,,,
,,001,2022-04-28_19h58.25.450,classification_task,2021.2.3,Win32,59.87665409,614ac80d5b0c54f633e5df75,626b377229c10585ec392f8a,626b382474851bf0b829baf5,,,,,,,,,,,,,,,,,,,,,,,l,0,2.4455,"[""0.161"",""0.610"",""0.648"",""0.967""]","[1,0,1,1]",0,26,26,26,1,0,0,,,0,FALSE,,,,,,,,,,,,,,,,,,,,,,,,,,,,,,,
,,001,2022-04-28_19h58.25.450,classification_task,2021.2.3,Win32,59.87665409,614ac80d5b0c54f633e5df75,626b377229c10585ec392f8a,626b382474851bf0b829baf5,,,,,,,,,,,,,,,,,,,,,,,a,1,0.6308,"[""0.731"",""0.349"",""0.860"",""0.927""]","[0,1,1,1]",0,27,27,27,1,0,1,,,0,FALSE,,,,,,,,,,,,,,,,,,,,,,,,,,,,,,,
,,001,2022-04-28_19h58.25.450,classification_task,2021.2.3,Win32,59.87665409,614ac80d5b0c54f633e5df75,626b377229c10585ec392f8a,626b382474851bf0b829baf5,,,,,,,,,,,,,,,,,,,,,,,a,0,5.4467,"[""0.106"",""0.293"",""0.566"",""0.688""]","[1,1,0,1]",0,28,28,28,1,1,0,,,0,FALSE,,,,,,,,,,,,,,,,,,,,,,,,,,,,,,,
,,001,2022-04-28_19h58.25.450,classification_task,2021.2.3,Win32,59.87665409,614ac80d5b0c54f633e5df75,626b377229c10585ec392f8a,626b382474851bf0b829baf5,,,,,,,,,,,,,,,,,,,,,,,a,1,3.8439,"[""0.731"",""0.427"",""0.648"",""0.967""]","[0,1,1,1]",0,29,29,29,1,0,0,,,0,FALSE,,,,,,,,,,,,,,,,,,,,,,,,,,,,,,,
,,001,2022-04-28_19h58.25.450,classification_task,2021.2.3,Win32,59.87665409,614ac80d5b0c54f633e5df75,626b377229c10585ec392f8a,626b382474851bf0b829baf5,,,,,,,,,,,,,,,,,,,,,,,l,1,3.0145,"[""0.106"",""0.597"",""0.525"",""0.688""]","[1,0,1,1]",0,30,30,30,1,1,0,,,0,FALSE,,,,,,,,,,,,,,,,,,,,,,,,,,,,,,,
,,001,2022-04-28_19h58.25.450,classification_task,2021.2.3,Win32,59.87665409,614ac80d5b0c54f633e5df75,626b377229c10585ec392f8a,626b382474851bf0b829baf5,,,,,,,,,,,,,,,,,,,,,,,a,1,6.9529,"[""0.249"",""0.349"",""0.599"",""0.927""]","[1,1,0,1]",0,31,31,31,1,0,1,,,0,FALSE,,,,,,,,,,,,,,,,,,,,,,,,,,,,,,,
,,001,2022-04-28_19h58.25.450,classification_task,2021.2.3,Win32,59.87665409,614ac80d5b0c54f633e5df75,626b377229c10585ec392f8a,626b382474851bf0b829baf5,,,,,,,,,,,,,,,,,,,,,,,a,0,2.5607,"[""0.568"",""0.293"",""0.525"",""0.688""]","[0,1,1,1]",0,32,32,32,1,1,0,,,0,FALSE,,,,,,,,,,,,,,,,,,,,,,,,,,,,,,,
,,001,2022-04-28_19h58.25.450,classification_task,2021.2.3,Win32,59.87665409,614ac80d5b0c54f633e5df75,626b377229c10585ec392f8a,626b382474851bf0b829baf5,,,,,,,,,,,,,,,,,,,,,,,l,1,0.5935,"[""0.028"",""0.064"",""0.470"",""0.610""]","[1,1,1,0]",0,33,33,33,1,1,1,,,0,FALSE,,,,,,,,,,,,,,,,,,,,,,,,,,,,,,,
,,001,2022-04-28_19h58.25.450,classification_task,2021.2.3,Win32,59.87665409,614ac80d5b0c54f633e5df75,626b377229c10585ec392f8a,626b382474851bf0b829baf5,,,,,,,,,,,,,,,,,,,,,,,a,0,0.2973,"[""0.804"",""0.064"",""0.470"",""0.770""]","[0,1,1,1]",0,34,34,34,1,1,1,,,0,FALSE,,,,,,,,,,,,,,,,,,,,,,,,,,,,,,,
,,001,2022-04-28_19h58.25.450,classification_task,2021.2.3,Win32,59.87665409,614ac80d5b0c54f633e5df75,626b377229c10585ec392f8a,626b382474851bf0b829baf5,,,,,,,,,,,,,,,,,,,,,,,l,0,0.2351,"[""0.249"",""0.804"",""0.860"",""0.927""]","[1,0,1,1]",0,35,35,35,1,0,1,,,0,FALSE,,,,,,,,,,,,,,,,,,,,,,,,,,,,,,,
,,001,2022-04-28_19h58.25.450,classification_task,2021.2.3,Win32,59.87665409,614ac80d5b0c54f633e5df75,626b377229c10585ec392f8a,626b382474851bf0b829baf5,,,,,,,,,,,,,,,,,,,,,,,l,0,0.2129,"[""0.804"",""0.427"",""0.648"",""0.967""]","[0,1,1,1]",0,36,36,36,1,0,0,,,0,FALSE,,,,,,,,,,,,,,,,,,,,,,,,,,,,,,,
,,001,2022-04-28_19h58.25.450,classification_task,2021.2.3,Win32,59.87665409,614ac80d5b0c54f633e5df75,626b377229c10585ec392f8a,626b382474851bf0b829baf5,,,,,,,,,,,,,,,,,,,,,,,l,1,0.1162,"[""0.028"",""0.208"",""0.470"",""0.770""]","[1,0,1,1]",0,37,37,37,1,1,1,,,0,FALSE,,,,,,,,,,,,,,,,,,,,,,,,,,,,,,,
,,001,2022-04-28_19h58.25.450,classification_task,2021.2.3,Win32,59.87665409,614ac80d5b0c54f633e5df75,626b377229c10585ec392f8a,626b382474851bf0b829baf5,,,,,,,,,,,,,,,,,,,,,,,a,0,0.2053,"[""0.028"",""0.064"",""0.199"",""0.770""]","[1,1,0,1]",0,38,38,38,1,1,1,,,0,FALSE,,,,,,,,,,,,,,,,,,,,,,,,,,,,,,,
,,001,2022-04-28_19h58.25.450,classification_task,2021.2.3,Win32,59.87665409,614ac80d5b0c54f633e5df75,626b377229c10585ec392f8a,626b382474851bf0b829baf5,,,,,,,,,,,,,,,,,,,,,,,l,0,0.0341,"[""0.161"",""0.583"",""0.648"",""0.967""]","[1,0,1,1]",0,39,39,39,1,0,0,,,0,FALSE,,,,,,,,,,,,,,,,,,,,,,,,,,,,,,,
,,001,2022-04-28_19h58.25.450,classification_task,2021.2.3,Win32,59.87665409,614ac80d5b0c54f633e5df75,626b377229c10585ec392f8a,626b382474851bf0b829baf5,,,,,,,,,,,,,,,,,,,,,,,l,0,0.0656,"[""0.249"",""0.349"",""0.860"",""0.199""]","[1,1,1,0]",0,40,40,40,1,0,1,,,0,FALSE,,,,,,,,,,,,,,,,,,,,,,,,,,,,,,,
,,001,2022-04-28_19h58.25.450,classification_task,2021.2.3,Win32,59.87665409,614ac80d5b0c54f633e5df75,626b377229c10585ec392f8a,626b382474851bf0b829baf5,,,,,,,,,,,,,,,,,,,,,,,a,1,0.0647,"[""0.599"",""0.349"",""0.860"",""0.927""]","[0,1,1,1]",0,41,41,41,1,0,1,,,0,FALSE,,,,,,,,,,,,,,,,,,,,,,,,,,,,,,,
,,001,2022-04-28_19h58.25.450,classification_task,2021.2.3,Win32,59.87665409,614ac80d5b0c54f633e5df75,626b377229c10585ec392f8a,626b382474851bf0b829baf5,,,,,,,,,,,,,,,,,,,,,,,a,0,0.0817,"[""0.106"",""0.293"",""0.804"",""0.688""]","[1,1,0,1]",0,42,42,42,1,1,0,,,0,FALSE,,,,,,,,,,,,,,,,,,,,,,,,,,,,,,,
,,001,2022-04-28_19h58.25.450,classification_task,2021.2.3,Win32,59.87665409,614ac80d5b0c54f633e5df75,626b377229c10585ec392f8a,626b382474851bf0b829baf5,,,,,,,,,,,,,,,,,,,,,,,a,1,0.2631,"[""0.249"",""0.349"",""0.599"",""0.927""]","[1,1,0,1]",0,43,43,43,1,0,1,,,0,FALSE,,,,,,,,,,,,,,,,,,,,,,,,,,,,,,,
,,001,2022-04-28_19h58.25.450,classification_task,2021.2.3,Win32,59.87665409,614ac80d5b0c54f633e5df75,626b377229c10585ec392f8a,626b382474851bf0b829baf5,,,,,,,,,,,,,,,,,,,,,,,a,1,0.0343,"[""0.161"",""0.427"",""0.648"",""0.199""]","[1,1,1,0]",0,44,44,44,1,0,0,,,0,FALSE,,,,,,,,,,,,,,,,,,,,,,,,,,,,,,,
,,001,2022-04-28_19h58.25.450,classification_task,2021.2.3,Win32,59.87665409,614ac80d5b0c54f633e5df75,626b377229c10585ec392f8a,626b382474851bf0b829baf5,,,,,,,,,,,,,,,,,,,,,,,l,0,0.0496,"[""0.161"",""0.427"",""0.808"",""0.967""]","[1,1,0,1]",0,45,45,45,1,0,0,,,0,FALSE,,,,,,,,,,,,,,,,,,,,,,,,,,,,,,,
,,001,2022-04-28_19h58.25.450,classification_task,2021.2.3,Win32,59.87665409,614ac80d5b0c54f633e5df75,626b377229c10585ec392f8a,626b382474851bf0b829baf5,,,,,,,,,,,,,,,,,,,,,,,l,1,0.001,"[""0.106"",""0.597"",""0.525"",""0.688""]","[1,0,1,1]",0,46,46,46,1,1,0,,,0,FALSE,,,,,,,,,,,,,,,,,,,,,,,,,,,,,,,
,,001,2022-04-28_19h58.25.450,classification_task,2021.2.3,Win32,59.87665409,614ac80d5b0c54f633e5df75,626b377229c10585ec392f8a,626b382474851bf0b829baf5,,,,,,,,,,,,,,,,,,,,,,,a,0,0.0492,"[""0.106"",""0.293"",""0.525"",""0.603""]","[1,1,1,0]",0,47,47,47,1,1,0,,,0,FALSE,,,,,,,,,,,,,,,,,,,,,,,,,,,,,,,
,,001,2022-04-28_19h58.25.450,classification_task,2021.2.3,Win32,59.87665409,614ac80d5b0c54f633e5df75,626b377229c10585ec392f8a,626b382474851bf0b829baf5,,,,,,,,,,,,,,,,,,,,,,,l,1,0.0983,"[""0.028"",""0.064"",""0.470"",""0.583""]","[1,1,1,0]",0,48,48,48,1,1,1,,,0,FALSE,,,,,,,,,,,,,,,,,,,,,,,,,,,,,,,
,,001,2022-04-28_19h58.25.450,classification_task,2021.2.3,Win32,59.87665409,614ac80d5b0c54f633e5df75,626b377229c10585ec392f8a,626b382474851bf0b829baf5,,,,,,,,,,,,,,,,,,,,,,,l,0,0.2652,"[""0.249"",""0.349"",""0.860"",""0.599""]","[1,1,1,0]",0,49,49,49,1,0,1,,,0,FALSE,,,,,,,,,,,,,,,,,,,,,,,,,,,,,,,
,,001,2022-04-28_19h58.25.450,classification_task,2021.2.3,Win32,59.87665409,614ac80d5b0c54f633e5df75,626b377229c10585ec392f8a,626b382474851bf0b829baf5,,,,,,,,,,,,,,,,,,,,,,,a,0,0.1805,"[""0.028"",""0.064"",""0.804"",""0.770""]","[1,1,0,1]",0,50,50,50,1,1,1,,,0,FALSE,,,,,,,,,,,,,,,,,,,,,,,,,,,,,,,
,,001,2022-04-28_19h58.25.450,classification_task,2021.2.3,Win32,59.87665409,614ac80d5b0c54f633e5df75,626b377229c10585ec392f8a,626b382474851bf0b829baf5,,,,,,,,,,,,,,,,,,,,,,,a,0,0.034,"[""0.820"",""0.293"",""0.525"",""0.688""]","[0,1,1,1]",0,51,51,51,1,1,0,,,0,FALSE,,,,,,,,,,,,,,,,,,,,,,,,,,,,,,,
,,001,2022-04-28_19h58.25.450,classification_task,2021.2.3,Win32,59.87665409,614ac80d5b0c54f633e5df75,626b377229c10585ec392f8a,626b382474851bf0b829baf5,,,,,,,,,,,,,,,,,,,,,,,l,0,0.1151,"[""0.161"",""0.427"",""0.648"",""0.808""]","[1,1,1,0]",0,52,52,52,1,0,0,,,0,FALSE,,,,,,,,,,,,,,,,,,,,,,,,,,,,,,,
,,001,2022-04-28_19h58.25.450,classification_task,2021.2.3,Win32,59.87665409,614ac80d5b0c54f633e5df75,626b377229c10585ec392f8a,626b382474851bf0b829baf5,,,,,,,,,,,,,,,,,,,,,,,a,1,0.1479,"[""0.249"",""0.349"",""0.208"",""0.927""]","[1,1,0,1]",0,53,53,53,1,0,1,,,0,FALSE,,,,,,,,,,,,,,,,,,,,,,,,,,,,,,,
,,001,2022-04-28_19h58.25.450,classification_task,2021.2.3,Win32,59.87665409,614ac80d5b0c54f633e5df75,626b377229c10585ec392f8a,626b382474851bf0b829baf5,,,,,,,,,,,,,,,,,,,,,,,l,1,0.2982,"[""0.106"",""0.293"",""0.525"",""0.566""]","[1,1,1,0]",0,54,54,54,1,1,0,,,0,FALSE,,,,,,,,,,,,,,,,,,,,,,,,,,,,,,,
,,001,2022-04-28_19h58.25.450,classification_task,2021.2.3,Win32,59.87665409,614ac80d5b0c54f633e5df75,626b377229c10585ec392f8a,626b382474851bf0b829baf5,,,,,,,,,,,,,,,,,,,,,,,a,1,1.0139,"[""0.804"",""0.427"",""0.648"",""0.967""]","[0,1,1,1]",0,55,55,55,1,0,0,,,0,FALSE,,,,,,,,,,,,,,,,,,,,,,,,,,,,,,,
,,001,2022-04-28_19h58.25.450,classification_task,2021.2.3,Win32,59.87665409,614ac80d5b0c54f633e5df75,626b377229c10585ec392f8a,626b382474851bf0b829baf5,,,,,,,,,,,,,,,,,,,,,,,l,1,0.6306,"[""0.106"",""0.804"",""0.525"",""0.688""]","[1,0,1,1]",0,56,56,56,1,1,0,,,0,FALSE,,,,,,,,,,,,,,,,,,,,,,,,,,,,,,,
,,001,2022-04-28_19h58.25.450,classification_task,2021.2.3,Win32,59.87665409,614ac80d5b0c54f633e5df75,626b377229c10585ec392f8a,626b382474851bf0b829baf5,,,,,,,,,,,,,,,,,,,,,,,a,1,0.4968,"[""0.161"",""0.566"",""0.648"",""0.967""]","[1,0,1,1]",0,57,57,57,1,0,0,,,0,FALSE,,,,,,,,,,,,,,,,,,,,,,,,,,,,,,,
,,001,2022-04-28_19h58.25.450,classification_task,2021.2.3,Win32,59.87665409,614ac80d5b0c54f633e5df75,626b377229c10585ec392f8a,626b382474851bf0b829baf5,,,,,,,,,,,,,,,,,,,,,,,l,1,0.9293,"[""0.583"",""0.064"",""0.470"",""0.770""]","[0,1,1,1]",0,58,58,58,1,1,1,,,0,FALSE,,,,,,,,,,,,,,,,,,,,,,,,,,,,,,,
,,001,2022-04-28_19h58.25.450,classification_task,2021.2.3,Win32,59.87665409,614ac80d5b0c54f633e5df75,626b377229c10585ec392f8a,626b382474851bf0b829baf5,,,,,,,,,,,,,,,,,,,,,,,a,0,0.4635,"[""0.106"",""0.293"",""0.583"",""0.688""]","[1,1,0,1]",0,59,59,59,1,1,0,,,0,FALSE,,,,,,,,,,,,,,,,,,,,,,,,,,,,,,,
,,001,2022-04-28_19h58.25.450,classification_task,2021.2.3,Win32,59.87665409,614ac80d5b0c54f633e5df75,626b377229c10585ec392f8a,626b382474851bf0b829baf5,,,,,,,,,,,,,,,,,,,,,,,l,1,0.581,"[""0.028"",""0.599"",""0.470"",""0.770""]","[1,0,1,1]",0,60,60,60,1,1,1,,,0,FALSE,,,,,,,,,,,,,,,,,,,,,,,,,,,,,,,
,,001,2022-04-28_19h58.25.450,classification_task,2021.2.3,Win32,59.87665409,614ac80d5b0c54f633e5df75,626b377229c10585ec392f8a,626b382474851bf0b829baf5,,,,,,,,,,,,,,,,,,,,,,,l,0,0.3492,"[""0.249"",""0.568"",""0.860"",""0.927""]","[1,0,1,1]",0,61,61,61,1,0,1,,,0,FALSE,,,,,,,,,,,,,,,,,,,,,,,,,,,,,,,
,,001,2022-04-28_19h58.25.450,classification_task,2021.2.3,Win32,59.87665409,614ac80d5b0c54f633e5df75,626b377229c10585ec392f8a,626b382474851bf0b829baf5,,,,,,,,,,,,,,,,,,,,,,,l,0,0.7137,"[""0.161"",""0.427"",""0.566"",""0.967""]","[1,1,0,1]",0,62,62,62,1,0,0,,,0,FALSE,,,,,,,,,,,,,,,,,,,,,,,,,,,,,,,
,,001,2022-04-28_19h58.25.450,classification_task,2021.2.3,Win32,59.87665409,614ac80d5b0c54f633e5df75,626b377229c10585ec392f8a,626b382474851bf0b829baf5,,,,,,,,,,,,,,,,,,,,,,,l,0,0.1968,"[""0.820"",""0.349"",""0.860"",""0.927""]","[0,1,1,1]",0,63,63,63,1,0,1,,,0,FALSE,,,,,,,,,,,,,,,,,,,,,,,,,,,,,,,
,,001,2022-04-28_19h58.25.450,classification_task,2021.2.3,Win32,59.87665409,614ac80d5b0c54f633e5df75,626b377229c10585ec392f8a,626b382474851bf0b829baf5,,,,,,,,,,,,,,,,,,,,,,,,,,,,,,,,,,,,,,,0, ,,0,,,0,0,0,0,1,2,1,,,,,,,,,,,,,,,,,,
,,001,2022-04-28_19h58.25.450,classification_task,2021.2.3,Win32,59.87665409,614ac80d5b0c54f633e5df75,626b377229c10585ec392f8a,626b382474851bf0b829baf5,,,,,,,,,,,,,,,,,,,,,,,,,,,,,,,,,,,,,,,1,  ,,0,,,0,0,0,0,1,2,1,,,,,,,,,,,,,,,,,,
,,001,2022-04-28_19h58.25.450,classification_task,2021.2.3,Win32,59.87665409,614ac80d5b0c54f633e5df75,626b377229c10585ec392f8a,626b382474851bf0b829baf5,,,,,,,,,,,,,,,,,,,,,,,,,,,,,,,,,,,,,,,2,  ,,0,,,0,0,0,0,1,2,1,,,,,,,,,,,,,,,,,,
,,001,2022-04-28_19h58.25.450,classification_task,2021.2.3,Win32,59.87665409,614ac80d5b0c54f633e5df75,626b377229c10585ec392f8a,626b382474851bf0b829baf5,,,,,,,,,,,,,,,,,,,,,,,,,,,,,,,,,,,,,,,,,,,,,0,0,0,0,1,,1,,,,,,,,,,,,,,,,,,
,,001,2022-04-28_19h58.25.450,classification_task,2021.2.3,Win32,59.87665409,614ac80d5b0c54f633e5df75,626b377229c10585ec392f8a,626b382474851bf0b829baf5,,,,,,,,,,,,,,,,,,,,,space,2.7289,a,0,2.9418,"[""0.028"",""0.064"",""0.808"",""0.770""]","[1,1,0,1]",0,0,0,0,1,1,1,,,0,FALSE,,,,,,,,,,,,,,,,,,,,,,,,,,,,,,,
,,001,2022-04-28_19h58.25.450,classification_task,2021.2.3,Win32,59.87665409,614ac80d5b0c54f633e5df75,626b377229c10585ec392f8a,626b382474851bf0b829baf5,,,,,,,,,,,,,,,,,,,,,,,a,0,0.8191,"[""0.566"",""0.293"",""0.525"",""0.688""]","[0,1,1,1]",0,1,1,1,1,1,0,,,0,FALSE,,,,,,,,,,,,,,,,,,,,,,,,,,,,,,,
,,001,2022-04-28_19h58.25.450,classification_task,2021.2.3,Win32,59.87665409,614ac80d5b0c54f633e5df75,626b377229c10585ec392f8a,626b382474851bf0b829baf5,,,,,,,,,,,,,,,,,,,,,,,l,0,2.2335,"[""0.804"",""0.427"",""0.648"",""0.967""]","[0,1,1,1]",0,2,2,2,1,0,0,,,0,FALSE,,,,,,,,,,,,,,,,,,,,,,,,,,,,,,,
,,001,2022-04-28_19h58.25.450,classification_task,2021.2.3,Win32,59.87665409,614ac80d5b0c54f633e5df75,626b377229c10585ec392f8a,626b382474851bf0b829baf5,,,,,,,,,,,,,,,,,,,,,,,l,1,1.3945,"[""0.106"",""0.566"",""0.525"",""0.688""]","[1,0,1,1]",0,3,3,3,1,1,0,,,0,FALSE,,,,,,,,,,,,,,,,,,,,,,,,,,,,,,,
,,001,2022-04-28_19h58.25.450,classification_task,2021.2.3,Win32,59.87665409,614ac80d5b0c54f633e5df75,626b377229c10585ec392f8a,626b382474851bf0b829baf5,,,,,,,,,,,,,,,,,,,,,,,a,1,0.864,"[""0.804"",""0.349"",""0.860"",""0.927""]","[0,1,1,1]",0,4,4,4,1,0,1,,,0,FALSE,,,,,,,,,,,,,,,,,,,,,,,,,,,,,,,
,,001,2022-04-28_19h58.25.450,classification_task,2021.2.3,Win32,59.87665409,614ac80d5b0c54f633e5df75,626b377229c10585ec392f8a,626b382474851bf0b829baf5,,,,,,,,,,,,,,,,,,,,,,,l,1,0.5629,"[""0.106"",""0.293"",""0.597"",""0.688""]","[1,1,0,1]",0,5,5,5,1,1,0,,,0,FALSE,,,,,,,,,,,,,,,,,,,,,,,,,,,,,,,
,,001,2022-04-28_19h58.25.450,classification_task,2021.2.3,Win32,59.87665409,614ac80d5b0c54f633e5df75,626b377229c10585ec392f8a,626b382474851bf0b829baf5,,,,,,,,,,,,,,,,,,,,,,,a,1,2.0466,"[""0.161"",""0.427"",""0.808"",""0.967""]","[1,1,0,1]",0,6,6,6,1,0,0,,,0,FALSE,,,,,,,,,,,,,,,,,,,,,,,,,,,,,,,
,,001,2022-04-28_19h58.25.450,classification_task,2021.2.3,Win32,59.87665409,614ac80d5b0c54f633e5df75,626b377229c10585ec392f8a,626b382474851bf0b829baf5,,,,,,,,,,,,,,,,,,,,,,,a,0,1.38,"[""0.028"",""0.064"",""0.470"",""0.599""]","[1,1,1,0]",0,7,7,7,1,1,1,,,0,FALSE,,,,,,,,,,,,,,,,,,,,,,,,,,,,,,,
,,001,2022-04-28_19h58.25.450,classification_task,2021.2.3,Win32,59.87665409,614ac80d5b0c54f633e5df75,626b377229c10585ec392f8a,626b382474851bf0b829baf5,,,,,,,,,,,,,,,,,,,,,,,l,1,0.3135,"[""0.106"",""0.293"",""0.525"",""0.599""]","[1,1,1,0]",0,8,8,8,1,1,0,,,0,FALSE,,,,,,,,,,,,,,,,,,,,,,,,,,,,,,,
,,001,2022-04-28_19h58.25.450,classification_task,2021.2.3,Win32,59.87665409,614ac80d5b0c54f633e5df75,626b377229c10585ec392f8a,626b382474851bf0b829baf5,,,,,,,,,,,,,,,,,,,,,,,l,0,0.43,"[""0.161"",""0.427"",""0.648"",""0.804""]","[1,1,1,0]",0,9,9,9,1,0,0,,,0,FALSE,,,,,,,,,,,,,,,,,,,,,,,,,,,,,,,
,,001,2022-04-28_19h58.25.450,classification_task,2021.2.3,Win32,59.87665409,614ac80d5b0c54f633e5df75,626b377229c10585ec392f8a,626b382474851bf0b829baf5,,,,,,,,,,,,,,,,,,,,,,,a,1,0.3159,"[""0.249"",""0.349"",""0.731"",""0.927""]","[1,1,0,1]",0,10,10,10,1,0,1,,,0,FALSE,,,,,,,,,,,,,,,,,,,,,,,,,,,,,,,
,,001,2022-04-28_19h58.25.450,classification_task,2021.2.3,Win32,59.87665409,614ac80d5b0c54f633e5df75,626b377229c10585ec392f8a,626b382474851bf0b829baf5,,,,,,,,,,,,,,,,,,,,,,,l,1,0.2314,"[""0.199"",""0.064"",""0.470"",""0.770""]","[0,1,1,1]",0,11,11,11,1,1,1,,,0,FALSE,,,,,,,,,,,,,,,,,,,,,,,,,,,,,,,
,,001,2022-04-28_19h58.25.450,classification_task,2021.2.3,Win32,59.87665409,614ac80d5b0c54f633e5df75,626b377229c10585ec392f8a,626b382474851bf0b829baf5,,,,,,,,,,,,,,,,,,,,,,,a,1,0.6623,"[""0.249"",""0.804"",""0.860"",""0.927""]","[1,0,1,1]",0,12,12,12,1,0,1,,,0,FALSE,,,,,,,,,,,,,,,,,,,,,,,,,,,,,,,
,,001,2022-04-28_19h58.25.450,classification_task,2021.2.3,Win32,59.87665409,614ac80d5b0c54f633e5df75,626b377229c10585ec392f8a,626b382474851bf0b829baf5,,,,,,,,,,,,,,,,,,,,,,,l,0,0.3144,"[""0.161"",""0.804"",""0.648"",""0.967""]","[1,0,1,1]",0,13,13,13,1,0,0,,,0,FALSE,,,,,,,,,,,,,,,,,,,,,,,,,,,,,,,
,,001,2022-04-28_19h58.25.450,classification_task,2021.2.3,Win32,59.87665409,614ac80d5b0c54f633e5df75,626b377229c10585ec392f8a,626b382474851bf0b829baf5,,,,,,,,,,,,,,,,,,,,,,,a,1,0.4319,"[""0.249"",""0.349"",""0.860"",""0.199""]","[1,1,1,0]",0,14,14,14,1,0,1,,,0,FALSE,,,,,,,,,,,,,,,,,,,,,,,,,,,,,,,
,,001,2022-04-28_19h58.25.450,classification_task,2021.2.3,Win32,59.87665409,614ac80d5b0c54f633e5df75,626b377229c10585ec392f8a,626b382474851bf0b829baf5,,,,,,,,,,,,,,,,,,,,,,,l,1,0.2819,"[""0.028"",""0.610"",""0.470"",""0.770""]","[1,0,1,1]",0,15,15,15,1,1,1,,,0,FALSE,,,,,,,,,,,,,,,,,,,,,,,,,,,,,,,
,,001,2022-04-28_19h58.25.450,classification_task,2021.2.3,Win32,59.87665409,614ac80d5b0c54f633e5df75,626b377229c10585ec392f8a,626b382474851bf0b829baf5,,,,,,,,,,,,,,,,,,,,,,,a,0,0.2803,"[""0.106"",""0.293"",""0.731"",""0.688""]","[1,1,0,1]",0,16,16,16,1,1,0,,,0,FALSE,,,,,,,,,,,,,,,,,,,,,,,,,,,,,,,
,,001,2022-04-28_19h58.25.450,classification_task,2021.2.3,Win32,59.87665409,614ac80d5b0c54f633e5df75,626b377229c10585ec392f8a,626b382474851bf0b829baf5,,,,,,,,,,,,,,,,,,,,,,,l,1,0.1158,"[""0.106"",""0.804"",""0.525"",""0.688""]","[1,0,1,1]",0,17,17,17,1,1,0,,,0,FALSE,,,,,,,,,,,,,,,,,,,,,,,,,,,,,,,
,,001,2022-04-28_19h58.25.450,classification_task,2021.2.3,Win32,59.87665409,614ac80d5b0c54f633e5df75,626b377229c10585ec392f8a,626b382474851bf0b829baf5,,,,,,,,,,,,,,,,,,,,,,,a,1,0.3968,"[""0.249"",""0.199"",""0.860"",""0.927""]","[1,0,1,1]",0,18,18,18,1,0,1,,,0,FALSE,,,,,,,,,,,,,,,,,,,,,,,,,,,,,,,
,,001,2022-04-28_19h58.25.450,classification_task,2021.2.3,Win32,59.87665409,614ac80d5b0c54f633e5df75,626b377229c10585ec392f8a,626b382474851bf0b829baf5,,,,,,,,,,,,,,,,,,,,,,,l,0,0.198,"[""0.610"",""0.427"",""0.648"",""0.967""]","[0,1,1,1]",0,19,19,19,1,0,0,,,0,FALSE,,,,,,,,,,,,,,,,,,,,,,,,,,,,,,,
,,001,2022-04-28_19h58.25.450,classification_task,2021.2.3,Win32,59.87665409,614ac80d5b0c54f633e5df75,626b377229c10585ec392f8a,626b382474851bf0b829baf5,,,,,,,,,,,,,,,,,,,,,,,a,0,0.3474,"[""0.199"",""0.064"",""0.470"",""0.770""]","[0,1,1,1]",0,20,20,20,1,1,1,,,0,FALSE,,,,,,,,,,,,,,,,,,,,,,,,,,,,,,,
,,001,2022-04-28_19h58.25.450,classification_task,2021.2.3,Win32,59.87665409,614ac80d5b0c54f633e5df75,626b377229c10585ec392f8a,626b382474851bf0b829baf5,,,,,,,,,,,,,,,,,,,,,,,l,1,0.4467,"[""0.106"",""0.293"",""0.525"",""0.583""]","[1,1,1,0]",0,21,21,21,1,1,0,,,0,FALSE,,,,,,,,,,,,,,,,,,,,,,,,,,,,,,,
,,001,2022-04-28_19h58.25.450,classification_task,2021.2.3,Win32,59.87665409,614ac80d5b0c54f633e5df75,626b377229c10585ec392f8a,626b382474851bf0b829baf5,,,,,,,,,,,,,,,,,,,,,,,l,0,0.4802,"[""0.249"",""0.349"",""0.804"",""0.927""]","[1,1,0,1]",0,22,22,22,1,0,1,,,0,FALSE,,,,,,,,,,,,,,,,,,,,,,,,,,,,,,,
,,001,2022-04-28_19h58.25.450,classification_task,2021.2.3,Win32,59.87665409,614ac80d5b0c54f633e5df75,626b377229c10585ec392f8a,626b382474851bf0b829baf5,,,,,,,,,,,,,,,,,,,,,,,a,0,0.7985,"[""0.028"",""0.064"",""0.470"",""0.566""]","[1,1,1,0]",0,23,23,23,1,1,1,,,0,FALSE,,,,,,,,,,,,,,,,,,,,,,,,,,,,,,,
,,001,2022-04-28_19h58.25.450,classification_task,2021.2.3,Win32,59.87665409,614ac80d5b0c54f633e5df75,626b377229c10585ec392f8a,626b382474851bf0b829baf5,,,,,,,,,,,,,,,,,,,,,,,l,1,0.614,"[""0.804"",""0.293"",""0.525"",""0.688""]","[0,1,1,1]",0,24,24,24,1,1,0,,,0,FALSE,,,,,,,,,,,,,,,,,,,,,,,,,,,,,,,
,,001,2022-04-28_19h58.25.450,classification_task,2021.2.3,Win32,59.87665409,614ac80d5b0c54f633e5df75,626b377229c10585ec392f8a,626b382474851bf0b829baf5,,,,,,,,,,,,,,,,,,,,,,,l,0,0.3647,"[""0.161"",""0.427"",""0.648"",""0.603""]","[1,1,1,0]",0,25,25,25,1,0,0,,,0,FALSE,,,,,,,,,,,,,,,,,,,,,,,,,,,,,,,
,,001,2022-04-28_19h58.25.450,classification_task,2021.2.3,Win32,59.87665409,614ac80d5b0c54f633e5df75,626b377229c10585ec392f8a,626b382474851bf0b829baf5,,,,,,,,,,,,,,,,,,,,,,,a,1,0.6304,"[""0.804"",""0.349"",""0.860"",""0.927""]","[0,1,1,1]",0,26,26,26,1,0,1,,,0,FALSE,,,,,,,,,,,,,,,,,,,,,,,,,,,,,,,
,,001,2022-04-28_19h58.25.450,classification_task,2021.2.3,Win32,59.87665409,614ac80d5b0c54f633e5df75,626b377229c10585ec392f8a,626b382474851bf0b829baf5,,,,,,,,,,,,,,,,,,,,,,,l,0,0.5468,"[""0.161"",""0.427"",""0.597"",""0.967""]","[1,1,0,1]",0,27,27,27,1,0,0,,,0,FALSE,,,,,,,,,,,,,,,,,,,,,,,,,,,,,,,
,,001,2022-04-28_19h58.25.450,classification_task,2021.2.3,Win32,59.87665409,614ac80d5b0c54f633e5df75,626b377229c10585ec392f8a,626b382474851bf0b829baf5,,,,,,,,,,,,,,,,,,,,,,,a,1,0.2806,"[""0.249"",""0.349"",""0.860"",""0.804""]","[1,1,1,0]",0,28,28,28,1,0,1,,,0,FALSE,,,,,,,,,,,,,,,,,,,,,,,,,,,,,,,
,,001,2022-04-28_19h58.25.450,classification_task,2021.2.3,Win32,59.87665409,614ac80d5b0c54f633e5df75,626b377229c10585ec392f8a,626b382474851bf0b829baf5,,,,,,,,,,,,,,,,,,,,,,,a,0,0.2801,"[""0.028"",""0.804"",""0.470"",""0.770""]","[1,0,1,1]",0,29,29,29,1,1,1,,,0,FALSE,,,,,,,,,,,,,,,,,,,,,,,,,,,,,,,
,,001,2022-04-28_19h58.25.450,classification_task,2021.2.3,Win32,59.87665409,614ac80d5b0c54f633e5df75,626b377229c10585ec392f8a,626b382474851bf0b829baf5,,,,,,,,,,,,,,,,,,,,,,,l,1,0.7334,"[""0.028"",""0.064"",""0.208"",""0.770""]","[1,1,0,1]",0,30,30,30,1,1,1,,,0,FALSE,,,,,,,,,,,,,,,,,,,,,,,,,,,,,,,
,,001,2022-04-28_19h58.25.450,classification_task,2021.2.3,Win32,59.87665409,614ac80d5b0c54f633e5df75,626b377229c10585ec392f8a,626b382474851bf0b829baf5,,,,,,,,,,,,,,,,,,,,,,,a,1,1.3639,"[""0.161"",""0.603"",""0.648"",""0.967""]","[1,0,1,1]",0,31,31,31,1,0,0,,,0,FALSE,,,,,,,,,,,,,,,,,,,,,,,,,,,,,,,
,,001,2022-04-28_19h58.25.450,classification_task,2021.2.3,Win32,59.87665409,614ac80d5b0c54f633e5df75,626b377229c10585ec392f8a,626b382474851bf0b829baf5,,,,,,,,,,,,,,,,,,,,,,,a,0,0.7297,"[""0.028"",""0.064"",""0.470"",""0.568""]","[1,1,1,0]",0,32,32,32,1,1,1,,,0,FALSE,,,,,,,,,,,,,,,,,,,,,,,,,,,,,,,
,,001,2022-04-28_19h58.25.450,classification_task,2021.2.3,Win32,59.87665409,614ac80d5b0c54f633e5df75,626b377229c10585ec392f8a,626b382474851bf0b829baf5,,,,,,,,,,,,,,,,,,,,,,,l,0,1.047,"[""0.249"",""0.349"",""0.860"",""0.804""]","[1,1,1,0]",0,33,33,33,1,0,1,,,0,FALSE,,,,,,,,,,,,,,,,,,,,,,,,,,,,,,,
,,001,2022-04-28_19h58.25.450,classification_task,2021.2.3,Win32,59.87665409,614ac80d5b0c54f633e5df75,626b377229c10585ec392f8a,626b382474851bf0b829baf5,,,,,,,,,,,,,,,,,,,,,,,a,1,0.6806,"[""0.249"",""0.610"",""0.860"",""0.927""]","[1,0,1,1]",0,34,34,34,1,0,1,,,0,FALSE,,,,,,,,,,,,,,,,,,,,,,,,,,,,,,,
,,001,2022-04-28_19h58.25.450,classification_task,2021.2.3,Win32,59.87665409,614ac80d5b0c54f633e5df75,626b377229c10585ec392f8a,626b382474851bf0b829baf5,,,,,,,,,,,,,,,,,,,,,,,l,0,0.6143,"[""0.804"",""0.349"",""0.860"",""0.927""]","[0,1,1,1]",0,35,35,35,1,0,1,,,0,FALSE,,,,,,,,,,,,,,,,,,,,,,,,,,,,,,,
,,001,2022-04-28_19h58.25.450,classification_task,2021.2.3,Win32,59.87665409,614ac80d5b0c54f633e5df75,626b377229c10585ec392f8a,626b382474851bf0b829baf5,,,,,,,,,,,,,,,,,,,,,,,a,0,0.0483,"[""0.731"",""0.293"",""0.525"",""0.688""]","[0,1,1,1]",0,36,36,36,1,1,0,,,0,FALSE,,,,,,,,,,,,,,,,,,,,,,,,,,,,,,,
,,001,2022-04-28_19h58.25.450,classification_task,2021.2.3,Win32,59.87665409,614ac80d5b0c54f633e5df75,626b377229c10585ec392f8a,626b382474851bf0b829baf5,,,,,,,,,,,,,,,,,,,,,,,l,0,0.0495,"[""0.161"",""0.427"",""0.648"",""0.820""]","[1,1,1,0]",0,37,37,37,1,0,0,,,0,FALSE,,,,,,,,,,,,,,,,,,,,,,,,,,,,,,,
,,001,2022-04-28_19h58.25.450,classification_task,2021.2.3,Win32,59.87665409,614ac80d5b0c54f633e5df75,626b377229c10585ec392f8a,626b382474851bf0b829baf5,,,,,,,,,,,,,,,,,,,,,,,a,0,0.3135,"[""0.106"",""0.293"",""0.568"",""0.688""]","[1,1,0,1]",0,38,38,38,1,1,0,,,0,FALSE,,,,,,,,,,,,,,,,,,,,,,,,,,,,,,,
,,001,2022-04-28_19h58.25.450,classification_task,2021.2.3,Win32,59.87665409,614ac80d5b0c54f633e5df75,626b377229c10585ec392f8a,626b382474851bf0b829baf5,,,,,,,,,,,,,,,,,,,,,,,l,1,0.1473,"[""0.028"",""0.603"",""0.470"",""0.770""]","[1,0,1,1]",0,39,39,39,1,1,1,,,0,FALSE,,,,,,,,,,,,,,,,,,,,,,,,,,,,,,,
,,001,2022-04-28_19h58.25.450,classification_task,2021.2.3,Win32,59.87665409,614ac80d5b0c54f633e5df75,626b377229c10585ec392f8a,626b382474851bf0b829baf5,,,,,,,,,,,,,,,,,,,,,,,l,0,0.6144,"[""0.161"",""0.199"",""0.648"",""0.967""]","[1,0,1,1]",0,40,40,40,1,0,0,,,0,FALSE,,,,,,,,,,,,,,,,,,,,,,,,,,,,,,,
,,001,2022-04-28_19h58.25.450,classification_task,2021.2.3,Win32,59.87665409,614ac80d5b0c54f633e5df75,626b377229c10585ec392f8a,626b382474851bf0b829baf5,,,,,,,,,,,,,,,,,,,,,,,l,0,1.9981,"[""0.249"",""0.349"",""0.804"",""0.927""]","[1,1,0,1]",0,41,41,41,1,0,1,,,0,FALSE,,,,,,,,,,,,,,,,,,,,,,,,,,,,,,,
,,001,2022-04-28_19h58.25.450,classification_task,2021.2.3,Win32,59.87665409,614ac80d5b0c54f633e5df75,626b377229c10585ec392f8a,626b382474851bf0b829baf5,,,,,,,,,,,,,,,,,,,,,,,a,0,2.03,"[""0.208"",""0.064"",""0.470"",""0.770""]","[0,1,1,1]",0,42,42,42,1,1,1,,,0,FALSE,,,,,,,,,,,,,,,,,,,,,,,,,,,,,,,
,,001,2022-04-28_19h58.25.450,classification_task,2021.2.3,Win32,59.87665409,614ac80d5b0c54f633e5df75,626b377229c10585ec392f8a,626b382474851bf0b829baf5,,,,,,,,,,,,,,,,,,,,,,,l,1,0.5269,"[""0.028"",""0.064"",""0.804"",""0.770""]","[1,1,0,1]",0,43,43,43,1,1,1,,,0,FALSE,,,,,,,,,,,,,,,,,,,,,,,,,,,,,,,
,,001,2022-04-28_19h58.25.450,classification_task,2021.2.3,Win32,59.87665409,614ac80d5b0c54f633e5df75,626b377229c10585ec392f8a,626b382474851bf0b829baf5,,,,,,,,,,,,,,,,,,,,,,,l,1,0.3832,"[""0.106"",""0.808"",""0.525"",""0.688""]","[1,0,1,1]",0,44,44,44,1,1,0,,,0,FALSE,,,,,,,,,,,,,,,,,,,,,,,,,,,,,,,
,,001,2022-04-28_19h58.25.450,classification_task,2021.2.3,Win32,59.87665409,614ac80d5b0c54f633e5df75,626b377229c10585ec392f8a,626b382474851bf0b829baf5,,,,,,,,,,,,,,,,,,,,,,,l,0,0.3467,"[""0.599"",""0.427"",""0.648"",""0.967""]","[0,1,1,1]",0,45,45,45,1,0,0,,,0,FALSE,,,,,,,,,,,,,,,,,,,,,,,,,,,,,,,
,,001,2022-04-28_19h58.25.450,classification_task,2021.2.3,Win32,59.87665409,614ac80d5b0c54f633e5df75,626b377229c10585ec392f8a,626b382474851bf0b829baf5,,,,,,,,,,,,,,,,,,,,,,,l,1,0.0989,"[""0.106"",""0.293"",""0.525"",""0.804""]","[1,1,1,0]",0,46,46,46,1,1,0,,,0,FALSE,,,,,,,,,,,,,,,,,,,,,,,,,,,,,,,
,,001,2022-04-28_19h58.25.450,classification_task,2021.2.3,Win32,59.87665409,614ac80d5b0c54f633e5df75,626b377229c10585ec392f8a,626b382474851bf0b829baf5,,,,,,,,,,,,,,,,,,,,,,,a,1,0.3816,"[""0.161"",""0.427"",""0.208"",""0.967""]","[1,1,0,1]",0,47,47,47,1,0,0,,,0,FALSE,,,,,,,,,,,,,,,,,,,,,,,,,,,,,,,
,,001,2022-04-28_19h58.25.450,classification_task,2021.2.3,Win32,59.87665409,614ac80d5b0c54f633e5df75,626b377229c10585ec392f8a,626b382474851bf0b829baf5,,,,,,,,,,,,,,,,,,,,,,,a,0,0.3311,"[""0.808"",""0.293"",""0.525"",""0.688""]","[0,1,1,1]",0,48,48,48,1,1,0,,,0,FALSE,,,,,,,,,,,,,,,,,,,,,,,,,,,,,,,
,,001,2022-04-28_19h58.25.450,classification_task,2021.2.3,Win32,59.87665409,614ac80d5b0c54f633e5df75,626b377229c10585ec392f8a,626b382474851bf0b829baf5,,,,,,,,,,,,,,,,,,,,,,,a,1,2.698,"[""0.249"",""0.349"",""0.860"",""0.568""]","[1,1,1,0]",0,49,49,49,1,0,1,,,0,FALSE,,,,,,,,,,,,,,,,,,,,,,,,,,,,,,,
,,001,2022-04-28_19h58.25.450,classification_task,2021.2.3,Win32,59.87665409,614ac80d5b0c54f633e5df75,626b377229c10585ec392f8a,626b382474851bf0b829baf5,,,,,,,,,,,,,,,,,,,,,,,a,0,0.5772,"[""0.028"",""0.064"",""0.820"",""0.770""]","[1,1,0,1]",0,50,50,50,1,1,1,,,0,FALSE,,,,,,,,,,,,,,,,,,,,,,,,,,,,,,,
,,001,2022-04-28_19h58.25.450,classification_task,2021.2.3,Win32,59.87665409,614ac80d5b0c54f633e5df75,626b377229c10585ec392f8a,626b382474851bf0b829baf5,,,,,,,,,,,,,,,,,,,,,,,l,1,0.5632,"[""0.808"",""0.064"",""0.470"",""0.770""]","[0,1,1,1]",0,51,51,51,1,1,1,,,0,FALSE,,,,,,,,,,,,,,,,,,,,,,,,,,,,,,,
,,001,2022-04-28_19h58.25.450,classification_task,2021.2.3,Win32,59.87665409,614ac80d5b0c54f633e5df75,626b377229c10585ec392f8a,626b382474851bf0b829baf5,,,,,,,,,,,,,,,,,,,,,,,a,1,0.5964,"[""0.161"",""0.804"",""0.648"",""0.967""]","[1,0,1,1]",0,52,52,52,1,0,0,,,0,FALSE,,,,,,,,,,,,,,,,,,,,,,,,,,,,,,,
,,001,2022-04-28_19h58.25.450,classification_task,2021.2.3,Win32,59.87665409,614ac80d5b0c54f633e5df75,626b377229c10585ec392f8a,626b382474851bf0b829baf5,,,,,,,,,,,,,,,,,,,,,,,l,0,0.6806,"[""0.820"",""0.427"",""0.648"",""0.967""]","[0,1,1,1]",0,53,53,53,1,0,0,,,0,FALSE,,,,,,,,,,,,,,,,,,,,,,,,,,,,,,,
,,001,2022-04-28_19h58.25.450,classification_task,2021.2.3,Win32,59.87665409,614ac80d5b0c54f633e5df75,626b377229c10585ec392f8a,626b382474851bf0b829baf5,,,,,,,,,,,,,,,,,,,,,,,a,1,0.5298,"[""0.161"",""0.427"",""0.648"",""0.597""]","[1,1,1,0]",0,54,54,54,1,0,0,,,0,FALSE,,,,,,,,,,,,,,,,,,,,,,,,,,,,,,,
,,001,2022-04-28_19h58.25.450,classification_task,2021.2.3,Win32,59.87665409,614ac80d5b0c54f633e5df75,626b377229c10585ec392f8a,626b382474851bf0b829baf5,,,,,,,,,,,,,,,,,,,,,,,l,0,3.3964,"[""0.249"",""0.731"",""0.860"",""0.927""]","[1,0,1,1]",0,55,55,55,1,0,1,,,0,FALSE,,,,,,,,,,,,,,,,,,,,,,,,,,,,,,,
,,001,2022-04-28_19h58.25.450,classification_task,2021.2.3,Win32,59.87665409,614ac80d5b0c54f633e5df75,626b377229c10585ec392f8a,626b382474851bf0b829baf5,,,,,,,,,,,,,,,,,,,,,,,a,0,0.9449,"[""0.028"",""0.808"",""0.470"",""0.770""]","[1,0,1,1]",0,56,56,56,1,1,1,,,0,FALSE,,,,,,,,,,,,,,,,,,,,,,,,,,,,,,,
,,001,2022-04-28_19h58.25.450,classification_task,2021.2.3,Win32,59.87665409,614ac80d5b0c54f633e5df75,626b377229c10585ec392f8a,626b382474851bf0b829baf5,,,,,,,,,,,,,,,,,,,,,,,l,0,0.5308,"[""0.161"",""0.427"",""0.597"",""0.967""]","[1,1,0,1]",0,57,57,57,1,0,0,,,0,FALSE,,,,,,,,,,,,,,,,,,,,,,,,,,,,,,,
,,001,2022-04-28_19h58.25.450,classification_task,2021.2.3,Win32,59.87665409,614ac80d5b0c54f633e5df75,626b377229c10585ec392f8a,626b382474851bf0b829baf5,,,,,,,,,,,,,,,,,,,,,,,a,1,0.3806,"[""0.249"",""0.349"",""0.808"",""0.927""]","[1,1,0,1]",0,58,58,58,1,0,1,,,0,FALSE,,,,,,,,,,,,,,,,,,,,,,,,,,,,,,,
,,001,2022-04-28_19h58.25.450,classification_task,2021.2.3,Win32,59.87665409,614ac80d5b0c54f633e5df75,626b377229c10585ec392f8a,626b382474851bf0b829baf5,,,,,,,,,,,,,,,,,,,,,,,a,0,0.3806,"[""0.106"",""0.293"",""0.525"",""0.568""]","[1,1,1,0]",0,59,59,59,1,1,0,,,0,FALSE,,,,,,,,,,,,,,,,,,,,,,,,,,,,,,,
,,001,2022-04-28_19h58.25.450,classification_task,2021.2.3,Win32,59.87665409,614ac80d5b0c54f633e5df75,626b377229c10585ec392f8a,626b382474851bf0b829baf5,,,,,,,,,,,,,,,,,,,,,,,a,1,0.5137,"[""0.804"",""0.349"",""0.860"",""0.927""]","[0,1,1,1]",0,60,60,60,1,0,1,,,0,FALSE,,,,,,,,,,,,,,,,,,,,,,,,,,,,,,,
,,001,2022-04-28_19h58.25.450,classification_task,2021.2.3,Win32,59.87665409,614ac80d5b0c54f633e5df75,626b377229c10585ec392f8a,626b382474851bf0b829baf5,,,,,,,,,,,,,,,,,,,,,,,l,1,0.2979,"[""0.106"",""0.199"",""0.525"",""0.688""]","[1,0,1,1]",0,61,61,61,1,1,0,,,0,FALSE,,,,,,,,,,,,,,,,,,,,,,,,,,,,,,,
,,001,2022-04-28_19h58.25.450,classification_task,2021.2.3,Win32,59.87665409,614ac80d5b0c54f633e5df75,626b377229c10585ec392f8a,626b382474851bf0b829baf5,,,,,,,,,,,,,,,,,,,,,,,l,1,0.0169,"[""0.028"",""0.064"",""0.470"",""0.610""]","[1,1,1,0]",0,62,62,62,1,1,1,,,0,FALSE,,,,,,,,,,,,,,,,,,,,,,,,,,,,,,,
,,001,2022-04-28_19h58.25.450,classification_task,2021.2.3,Win32,59.87665409,614ac80d5b0c54f633e5df75,626b377229c10585ec392f8a,626b382474851bf0b829baf5,,,,,,,,,,,,,,,,,,,,,,,a,0,0.164,"[""0.106"",""0.293"",""0.804"",""0.688""]","[1,1,0,1]",0,63,63,63,1,1,0,,,0,FALSE,,,,,,,,,,,,,,,,,,,,,,,,,,,,,,,
,,001,2022-04-28_19h58.25.450,classification_task,2021.2.3,Win32,59.87665409,614ac80d5b0c54f633e5df75,626b377229c10585ec392f8a,626b382474851bf0b829baf5,,,,,,,,,,,,,,,,,,,,,,,,,,,,,,,,,,,,,,,0, ,,0,,,0,1,1,1,1,2,2,,,,,,,,,,,,,,,,,,
,,001,2022-04-28_19h58.25.450,classification_task,2021.2.3,Win32,59.87665409,614ac80d5b0c54f633e5df75,626b377229c10585ec392f8a,626b382474851bf0b829baf5,,,,,,,,,,,,,,,,,,,,,,,,,,,,,,,,,,,,,,,1,  ,,0,,,0,1,1,1,1,2,2,,,,,,,,,,,,,,,,,,
,,001,2022-04-28_19h58.25.450,classification_task,2021.2.3,Win32,59.87665409,614ac80d5b0c54f633e5df75,626b377229c10585ec392f8a,626b382474851bf0b829baf5,,,,,,,,,,,,,,,,,,,,,,,,,,,,,,,,,,,,,,,2,  ,,0,,,0,1,1,1,1,2,2,,,,,,,,,,,,,,,,,,
,,001,2022-04-28_19h58.25.450,classification_task,2021.2.3,Win32,59.87665409,614ac80d5b0c54f633e5df75,626b377229c10585ec392f8a,626b382474851bf0b829baf5,,,,,,,,,,,,,,,,,,,,,,,,,,,,,,,,,,,,,,,,,,,,,0,1,1,1,1,,2,,,,,,,,,,,,,,,,,,
,,001,2022-04-28_19h58.25.450,classification_task,2021.2.3,Win32,59.87665409,614ac80d5b0c54f633e5df75,626b377229c10585ec392f8a,626b382474851bf0b829baf5,,,,,,,,,,,,,,,,,,,,,space,2.0162,l,1,0.4483,"[""0.820"",""0.293"",""0.525"",""0.688""]","[0,1,1,1]",0,0,0,0,1,1,0,,,0,FALSE,,,,,,,,,,,,,,,,,,,,,,,,,,,,,,,
,,001,2022-04-28_19h58.25.450,classification_task,2021.2.3,Win32,59.87665409,614ac80d5b0c54f633e5df75,626b377229c10585ec392f8a,626b382474851bf0b829baf5,,,,,,,,,,,,,,,,,,,,,,,a,0,0.6632,"[""0.028"",""0.804"",""0.470"",""0.770""]","[1,0,1,1]",0,1,1,1,1,1,1,,,0,FALSE,,,,,,,,,,,,,,,,,,,,,,,,,,,,,,,
,,001,2022-04-28_19h58.25.450,classification_task,2021.2.3,Win32,59.87665409,614ac80d5b0c54f633e5df75,626b377229c10585ec392f8a,626b382474851bf0b829baf5,,,,,,,,,,,,,,,,,,,,,,,l,1,1.2973,"[""0.106"",""0.293"",""0.525"",""0.820""]","[1,1,1,0]",0,2,2,2,1,1,0,,,0,FALSE,,,,,,,,,,,,,,,,,,,,,,,,,,,,,,,
,,001,2022-04-28_19h58.25.450,classification_task,2021.2.3,Win32,59.87665409,614ac80d5b0c54f633e5df75,626b377229c10585ec392f8a,626b382474851bf0b829baf5,,,,,,,,,,,,,,,,,,,,,,,l,1,0.8965,"[""0.106"",""0.293"",""0.804"",""0.688""]","[1,1,0,1]",0,3,3,3,1,1,0,,,0,FALSE,,,,,,,,,,,,,,,,,,,,,,,,,,,,,,,
,,001,2022-04-28_19h58.25.450,classification_task,2021.2.3,Win32,59.87665409,614ac80d5b0c54f633e5df75,626b377229c10585ec392f8a,626b382474851bf0b829baf5,,,,,,,,,,,,,,,,,,,,,,,a,1,0.8305,"[""0.161"",""0.566"",""0.648"",""0.967""]","[1,0,1,1]",0,4,4,4,1,0,0,,,0,FALSE,,,,,,,,,,,,,,,,,,,,,,,,,,,,,,,
,,001,2022-04-28_19h58.25.450,classification_task,2021.2.3,Win32,59.87665409,614ac80d5b0c54f633e5df75,626b377229c10585ec392f8a,626b382474851bf0b829baf5,,,,,,,,,,,,,,,,,,,,,,,a,1,0.797,"[""0.161"",""0.427"",""0.648"",""0.808""]","[1,1,1,0]",0,5,5,5,1,0,0,,,0,FALSE,,,,,,,,,,,,,,,,,,,,,,,,,,,,,,,
,,001,2022-04-28_19h58.25.450,classification_task,2021.2.3,Win32,59.87665409,614ac80d5b0c54f633e5df75,626b377229c10585ec392f8a,626b382474851bf0b829baf5,,,,,,,,,,,,,,,,,,,,,,,l,0,1.5821,"[""0.249"",""0.208"",""0.860"",""0.927""]","[1,0,1,1]",0,6,6,6,1,0,1,,,0,FALSE,,,,,,,,,,,,,,,,,,,,,,,,,,,,,,,
,,001,2022-04-28_19h58.25.450,classification_task,2021.2.3,Win32,59.87665409,614ac80d5b0c54f633e5df75,626b377229c10585ec392f8a,626b382474851bf0b829baf5,,,,,,,,,,,,,,,,,,,,,,,a,1,0.5163,"[""0.249"",""0.349"",""0.208"",""0.927""]","[1,1,0,1]",0,7,7,7,1,0,1,,,0,FALSE,,,,,,,,,,,,,,,,,,,,,,,,,,,,,,,
,,001,2022-04-28_19h58.25.450,classification_task,2021.2.3,Win32,59.87665409,614ac80d5b0c54f633e5df75,626b377229c10585ec392f8a,626b382474851bf0b829baf5,,,,,,,,,,,,,,,,,,,,,,,l,0,1.5008,"[""0.804"",""0.427"",""0.648"",""0.967""]","[0,1,1,1]",0,8,8,8,1,0,0,,,0,FALSE,,,,,,,,,,,,,,,,,,,,,,,,,,,,,,,
,,001,2022-04-28_19h58.25.450,classification_task,2021.2.3,Win32,59.87665409,614ac80d5b0c54f633e5df75,626b377229c10585ec392f8a,626b382474851bf0b829baf5,,,,,,,,,,,,,,,,,,,,,,,a,1,1.5435,"[""0.249"",""0.349"",""0.860"",""0.736""]","[1,1,1,0]",0,9,9,9,1,0,1,,,0,FALSE,,,,,,,,,,,,,,,,,,,,,,,,,,,,,,,
,,001,2022-04-28_19h58.25.450,classification_task,2021.2.3,Win32,59.87665409,614ac80d5b0c54f633e5df75,626b377229c10585ec392f8a,626b382474851bf0b829baf5,,,,,,,,,,,,,,,,,,,,,,,a,1,1.362,"[""0.161"",""0.427"",""0.804"",""0.967""]","[1,1,0,1]",0,10,10,10,1,0,0,,,0,FALSE,,,,,,,,,,,,,,,,,,,,,,,,,,,,,,,
,,001,2022-04-28_19h58.25.450,classification_task,2021.2.3,Win32,59.87665409,614ac80d5b0c54f633e5df75,626b377229c10585ec392f8a,626b382474851bf0b829baf5,,,,,,,,,,,,,,,,,,,,,,,l,0,0.9965,"[""0.820"",""0.349"",""0.860"",""0.927""]","[0,1,1,1]",0,11,11,11,1,0,1,,,0,FALSE,,,,,,,,,,,,,,,,,,,,,,,,,,,,,,,
,,001,2022-04-28_19h58.25.450,classification_task,2021.2.3,Win32,59.87665409,614ac80d5b0c54f633e5df75,626b377229c10585ec392f8a,626b382474851bf0b829baf5,,,,,,,,,,,,,,,,,,,,,,,a,0,1.5122,"[""0.736"",""0.064"",""0.470"",""0.770""]","[0,1,1,1]",0,12,12,12,1,1,1,,,0,FALSE,,,,,,,,,,,,,,,,,,,,,,,,,,,,,,,
,,001,2022-04-28_19h58.25.450,classification_task,2021.2.3,Win32,59.87665409,614ac80d5b0c54f633e5df75,626b377229c10585ec392f8a,626b382474851bf0b829baf5,,,,,,,,,,,,,,,,,,,,,,,l,1,0.5634,"[""0.028"",""0.064"",""0.599"",""0.770""]","[1,1,0,1]",0,13,13,13,1,1,1,,,0,FALSE,,,,,,,,,,,,,,,,,,,,,,,,,,,,,,,
,,001,2022-04-28_19h58.25.450,classification_task,2021.2.3,Win32,59.87665409,614ac80d5b0c54f633e5df75,626b377229c10585ec392f8a,626b382474851bf0b829baf5,,,,,,,,,,,,,,,,,,,,,,,a,0,0.279,"[""0.028"",""0.064"",""0.470"",""0.597""]","[1,1,1,0]",0,14,14,14,1,1,1,,,0,FALSE,,,,,,,,,,,,,,,,,,,,,,,,,,,,,,,
,,001,2022-04-28_19h58.25.450,classification_task,2021.2.3,Win32,59.87665409,614ac80d5b0c54f633e5df75,626b377229c10585ec392f8a,626b382474851bf0b829baf5,,,,,,,,,,,,,,,,,,,,,,,l,1,0.1974,"[""0.106"",""0.583"",""0.525"",""0.688""]","[1,0,1,1]",0,15,15,15,1,1,0,,,0,FALSE,,,,,,,,,,,,,,,,,,,,,,,,,,,,,,,
,,001,2022-04-28_19h58.25.450,classification_task,2021.2.3,Win32,59.87665409,614ac80d5b0c54f633e5df75,626b377229c10585ec392f8a,626b382474851bf0b829baf5,,,,,,,,,,,,,,,,,,,,,,,a,0,0.9023,"[""0.028"",""0.064"",""0.470"",""0.568""]","[1,1,1,0]",0,16,16,16,1,1,1,,,0,FALSE,,,,,,,,,,,,,,,,,,,,,,,,,,,,,,,
,,001,2022-04-28_19h58.25.450,classification_task,2021.2.3,Win32,59.87665409,614ac80d5b0c54f633e5df75,626b377229c10585ec392f8a,626b382474851bf0b829baf5,,,,,,,,,,,,,,,,,,,,,,,l,0,2.0945,"[""0.208"",""0.427"",""0.648"",""0.967""]","[0,1,1,1]",0,17,17,17,1,0,0,,,0,FALSE,,,,,,,,,,,,,,,,,,,,,,,,,,,,,,,
,,001,2022-04-28_19h58.25.450,classification_task,2021.2.3,Win32,59.87665409,614ac80d5b0c54f633e5df75,626b377229c10585ec392f8a,626b382474851bf0b829baf5,,,,,,,,,,,,,,,,,,,,,,,l,1,0.8869,"[""0.106"",""0.293"",""0.525"",""0.599""]","[1,1,1,0]",0,18,18,18,1,1,0,,,0,FALSE,,,,,,,,,,,,,,,,,,,,,,,,,,,,,,,
,,001,2022-04-28_19h58.25.450,classification_task,2021.2.3,Win32,59.87665409,614ac80d5b0c54f633e5df75,626b377229c10585ec392f8a,626b382474851bf0b829baf5,,,,,,,,,,,,,,,,,,,,,,,a,1,0.846,"[""0.249"",""0.820"",""0.860"",""0.927""]","[1,0,1,1]",0,19,19,19,1,0,1,,,0,FALSE,,,,,,,,,,,,,,,,,,,,,,,,,,,,,,,
,,001,2022-04-28_19h58.25.450,classification_task,2021.2.3,Win32,59.87665409,614ac80d5b0c54f633e5df75,626b377229c10585ec392f8a,626b382474851bf0b829baf5,,,,,,,,,,,,,,,,,,,,,,,a,0,1.1816,"[""0.028"",""0.064"",""0.208"",""0.770""]","[1,1,0,1]",0,20,20,20,1,1,1,,,0,FALSE,,,,,,,,,,,,,,,,,,,,,,,,,,,,,,,
,,001,2022-04-28_19h58.25.450,classification_task,2021.2.3,Win32,59.87665409,614ac80d5b0c54f633e5df75,626b377229c10585ec392f8a,626b382474851bf0b829baf5,,,,,,,,,,,,,,,,,,,,,,,l,0,0.7471,"[""0.249"",""0.349"",""0.860"",""0.566""]","[1,1,1,0]",0,21,21,21,1,0,1,,,0,FALSE,,,,,,,,,,,,,,,,,,,,,,,,,,,,,,,
,,001,2022-04-28_19h58.25.450,classification_task,2021.2.3,Win32,59.87665409,614ac80d5b0c54f633e5df75,626b377229c10585ec392f8a,626b382474851bf0b829baf5,,,,,,,,,,,,,,,,,,,,,,,a,1,1.212,"[""0.161"",""0.427"",""0.648"",""0.736""]","[1,1,1,0]",0,22,22,22,1,0,0,,,0,FALSE,,,,,,,,,,,,,,,,,,,,,,,,,,,,,,,
,,001,2022-04-28_19h58.25.450,classification_task,2021.2.3,Win32,59.87665409,614ac80d5b0c54f633e5df75,626b377229c10585ec392f8a,626b382474851bf0b829baf5,,,,,,,,,,,,,,,,,,,,,,,l,1,1.1118,"[""0.820"",""0.064"",""0.470"",""0.770""]","[0,1,1,1]",0,23,23,23,1,1,1,,,0,FALSE,,,,,,,,,,,,,,,,,,,,,,,,,,,,,,,
,,001,2022-04-28_19h58.25.450,classification_task,2021.2.3,Win32,59.87665409,614ac80d5b0c54f633e5df75,626b377229c10585ec392f8a,626b382474851bf0b829baf5,,,,,,,,,,,,,,,,,,,,,,,a,1,1.5132,"[""0.161"",""0.427"",""0.804"",""0.967""]","[1,1,0,1]",0,24,24,24,1,0,0,,,0,FALSE,,,,,,,,,,,,,,,,,,,,,,,,,,,,,,,
,,001,2022-04-28_19h58.25.450,classification_task,2021.2.3,Win32,59.87665409,614ac80d5b0c54f633e5df75,626b377229c10585ec392f8a,626b382474851bf0b829baf5,,,,,,,,,,,,,,,,,,,,,,,l,1,1.2954,"[""0.804"",""0.293"",""0.525"",""0.688""]","[0,1,1,1]",0,25,25,25,1,1,0,,,0,FALSE,,,,,,,,,,,,,,,,,,,,,,,,,,,,,,,
,,001,2022-04-28_19h58.25.450,classification_task,2021.2.3,Win32,59.87665409,614ac80d5b0c54f633e5df75,626b377229c10585ec392f8a,626b382474851bf0b829baf5,,,,,,,,,,,,,,,,,,,,,,,l,1,1.1278,"[""0.106"",""0.293"",""0.597"",""0.688""]","[1,1,0,1]",0,26,26,26,1,1,0,,,0,FALSE,,,,,,,,,,,,,,,,,,,,,,,,,,,,,,,
,,001,2022-04-28_19h58.25.450,classification_task,2021.2.3,Win32,59.87665409,614ac80d5b0c54f633e5df75,626b377229c10585ec392f8a,626b382474851bf0b829baf5,,,,,,,,,,,,,,,,,,,,,,,l,0,0.831,"[""0.731"",""0.349"",""0.860"",""0.927""]","[0,1,1,1]",0,27,27,27,1,0,1,,,0,FALSE,,,,,,,,,,,,,,,,,,,,,,,,,,,,,,,
,,001,2022-04-28_19h58.25.450,classification_task,2021.2.3,Win32,59.87665409,614ac80d5b0c54f633e5df75,626b377229c10585ec392f8a,626b382474851bf0b829baf5,,,,,,,,,,,,,,,,,,,,,,,l,1,1.0134,"[""0.106"",""0.566"",""0.525"",""0.688""]","[1,0,1,1]",0,28,28,28,1,1,0,,,0,FALSE,,,,,,,,,,,,,,,,,,,,,,,,,,,,,,,
,,001,2022-04-28_19h58.25.450,classification_task,2021.2.3,Win32,59.87665409,614ac80d5b0c54f633e5df75,626b377229c10585ec392f8a,626b382474851bf0b829baf5,,,,,,,,,,,,,,,,,,,,,,,a,1,0.9466,"[""0.161"",""0.208"",""0.648"",""0.967""]","[1,0,1,1]",0,29,29,29,1,0,0,,,0,FALSE,,,,,,,,,,,,,,,,,,,,,,,,,,,,,,,
,,001,2022-04-28_19h58.25.450,classification_task,2021.2.3,Win32,59.87665409,614ac80d5b0c54f633e5df75,626b377229c10585ec392f8a,626b382474851bf0b829baf5,,,,,,,,,,,,,,,,,,,,,,,l,1,1.8796,"[""0.028"",""0.804"",""0.470"",""0.770""]","[1,0,1,1]",0,30,30,30,1,1,1,,,0,FALSE,,,,,,,,,,,,,,,,,,,,,,,,,,,,,,,
,,001,2022-04-28_19h58.25.450,classification_task,2021.2.3,Win32,59.87665409,614ac80d5b0c54f633e5df75,626b377229c10585ec392f8a,626b382474851bf0b829baf5,,,,,,,,,,,,,,,,,,,,,,,a,1,0.947,"[""0.249"",""0.349"",""0.199"",""0.927""]","[1,1,0,1]",0,31,31,31,1,0,1,,,0,FALSE,,,,,,,,,,,,,,,,,,,,,,,,,,,,,,,
,,001,2022-04-28_19h58.25.450,classification_task,2021.2.3,Win32,59.87665409,614ac80d5b0c54f633e5df75,626b377229c10585ec392f8a,626b382474851bf0b829baf5,,,,,,,,,,,,,,,,,,,,,,,l,0,0.5803,"[""0.161"",""0.427"",""0.599"",""0.967""]","[1,1,0,1]",0,32,32,32,1,0,0,,,0,FALSE,,,,,,,,,,,,,,,,,,,,,,,,,,,,,,,
,,001,2022-04-28_19h58.25.450,classification_task,2021.2.3,Win32,59.87665409,614ac80d5b0c54f633e5df75,626b377229c10585ec392f8a,626b382474851bf0b829baf5,,,,,,,,,,,,,,,,,,,,,,,a,1,0.697,"[""0.161"",""0.427"",""0.648"",""0.808""]","[1,1,1,0]",0,33,33,33,1,0,0,,,0,FALSE,,,,,,,,,,,,,,,,,,,,,,,,,,,,,,,
,,001,2022-04-28_19h58.25.450,classification_task,2021.2.3,Win32,59.87665409,614ac80d5b0c54f633e5df75,626b377229c10585ec392f8a,626b382474851bf0b829baf5,,,,,,,,,,,,,,,,,,,,,,,a,0,1.4986,"[""0.028"",""0.064"",""0.470"",""0.603""]","[1,1,1,0]",0,34,34,34,1,1,1,,,0,FALSE,,,,,,,,,,,,,,,,,,,,,,,,,,,,,,,
,,001,2022-04-28_19h58.25.450,classification_task,2021.2.3,Win32,59.87665409,614ac80d5b0c54f633e5df75,626b377229c10585ec392f8a,626b382474851bf0b829baf5,,,,,,,,,,,,,,,,,,,,,,,l,0,1.2635,"[""0.597"",""0.427"",""0.648"",""0.967""]","[0,1,1,1]",0,35,35,35,1,0,0,,,0,FALSE,,,,,,,,,,,,,,,,,,,,,,,,,,,,,,,
,,001,2022-04-28_19h58.25.450,classification_task,2021.2.3,Win32,59.87665409,614ac80d5b0c54f633e5df75,626b377229c10585ec392f8a,626b382474851bf0b829baf5,,,,,,,,,,,,,,,,,,,,,,,a,0,1.6642,"[""0.028"",""0.064"",""0.610"",""0.770""]","[1,1,0,1]",0,36,36,36,1,1,1,,,0,FALSE,,,,,,,,,,,,,,,,,,,,,,,,,,,,,,,
,,001,2022-04-28_19h58.25.450,classification_task,2021.2.3,Win32,59.87665409,614ac80d5b0c54f633e5df75,626b377229c10585ec392f8a,626b382474851bf0b829baf5,,,,,,,,,,,,,,,,,,,,,,,l,1,0.8815,"[""0.804"",""0.293"",""0.525"",""0.688""]","[0,1,1,1]",0,37,37,37,1,1,0,,,0,FALSE,,,,,,,,,,,,,,,,,,,,,,,,,,,,,,,
,,001,2022-04-28_19h58.25.450,classification_task,2021.2.3,Win32,59.87665409,614ac80d5b0c54f633e5df75,626b377229c10585ec392f8a,626b382474851bf0b829baf5,,,,,,,,,,,,,,,,,,,,,,,a,1,2.2622,"[""0.804"",""0.349"",""0.860"",""0.927""]","[0,1,1,1]",0,38,38,38,1,0,1,,,0,FALSE,,,,,,,,,,,,,,,,,,,,,,,,,,,,,,,
,,001,2022-04-28_19h58.25.450,classification_task,2021.2.3,Win32,59.87665409,614ac80d5b0c54f633e5df75,626b377229c10585ec392f8a,626b382474851bf0b829baf5,,,,,,,,,,,,,,,,,,,,,,,l,1,0.4472,"[""0.106"",""0.293"",""0.525"",""0.603""]","[1,1,1,0]",0,39,39,39,1,1,0,,,0,FALSE,,,,,,,,,,,,,,,,,,,,,,,,,,,,,,,
,,001,2022-04-28_19h58.25.450,classification_task,2021.2.3,Win32,59.87665409,614ac80d5b0c54f633e5df75,626b377229c10585ec392f8a,626b382474851bf0b829baf5,,,,,,,,,,,,,,,,,,,,,,,l,1,0.6972,"[""0.106"",""0.804"",""0.525"",""0.688""]","[1,0,1,1]",0,40,40,40,1,1,0,,,0,FALSE,,,,,,,,,,,,,,,,,,,,,,,,,,,,,,,
,,001,2022-04-28_19h58.25.450,classification_task,2021.2.3,Win32,59.87665409,614ac80d5b0c54f633e5df75,626b377229c10585ec392f8a,626b382474851bf0b829baf5,,,,,,,,,,,,,,,,,,,,,,,a,0,0.9142,"[""0.208"",""0.064"",""0.470"",""0.770""]","[0,1,1,1]",0,41,41,41,1,1,1,,,0,FALSE,,,,,,,,,,,,,,,,,,,,,,,,,,,,,,,
,,001,2022-04-28_19h58.25.450,classification_task,2021.2.3,Win32,59.87665409,614ac80d5b0c54f633e5df75,626b377229c10585ec392f8a,626b382474851bf0b829baf5,,,,,,,,,,,,,,,,,,,,,,,a,1,1.0977,"[""0.249"",""0.349"",""0.860"",""0.583""]","[1,1,1,0]",0,42,42,42,1,0,1,,,0,FALSE,,,,,,,,,,,,,,,,,,,,,,,,,,,,,,,
,,001,2022-04-28_19h58.25.450,classification_task,2021.2.3,Win32,59.87665409,614ac80d5b0c54f633e5df75,626b377229c10585ec392f8a,626b382474851bf0b829baf5,,,,,,,,,,,,,,,,,,,,,,,l,1,0.6311,"[""0.028"",""0.610"",""0.470"",""0.770""]","[1,0,1,1]",0,43,43,43,1,1,1,,,0,FALSE,,,,,,,,,,,,,,,,,,,,,,,,,,,,,,,
,,001,2022-04-28_19h58.25.450,classification_task,2021.2.3,Win32,59.87665409,614ac80d5b0c54f633e5df75,626b377229c10585ec392f8a,626b382474851bf0b829baf5,,,,,,,,,,,,,,,,,,,,,,,l,0,0.5296,"[""0.249"",""0.349"",""0.597"",""0.927""]","[1,1,0,1]",0,44,44,44,1,0,1,,,0,FALSE,,,,,,,,,,,,,,,,,,,,,,,,,,,,,,,
,,001,2022-04-28_19h58.25.450,classification_task,2021.2.3,Win32,59.87665409,614ac80d5b0c54f633e5df75,626b377229c10585ec392f8a,626b382474851bf0b829baf5,,,,,,,,,,,,,,,,,,,,,,,a,1,0.3317,"[""0.161"",""0.599"",""0.648"",""0.967""]","[1,0,1,1]",0,45,45,45,1,0,0,,,0,FALSE,,,,,,,,,,,,,,,,,,,,,,,,,,,,,,,
,,001,2022-04-28_19h58.25.450,classification_task,2021.2.3,Win32,59.87665409,614ac80d5b0c54f633e5df75,626b377229c10585ec392f8a,626b382474851bf0b829baf5,,,,,,,,,,,,,,,,,,,,,,,l,0,0.5805,"[""0.249"",""0.199"",""0.860"",""0.927""]","[1,0,1,1]",0,46,46,46,1,0,1,,,0,FALSE,,,,,,,,,,,,,,,,,,,,,,,,,,,,,,,
,,001,2022-04-28_19h58.25.450,classification_task,2021.2.3,Win32,59.87665409,614ac80d5b0c54f633e5df75,626b377229c10585ec392f8a,626b382474851bf0b829baf5,,,,,,,,,,,,,,,,,,,,,,,l,1,0.8295,"[""0.106"",""0.293"",""0.583"",""0.688""]","[1,1,0,1]",0,47,47,47,1,1,0,,,0,FALSE,,,,,,,,,,,,,,,,,,,,,,,,,,,,,,,
,,001,2022-04-28_19h58.25.450,classification_task,2021.2.3,Win32,59.87665409,614ac80d5b0c54f633e5df75,626b377229c10585ec392f8a,626b382474851bf0b829baf5,,,,,,,,,,,,,,,,,,,,,,,a,1,1.0642,"[""0.583"",""0.427"",""0.648"",""0.967""]","[0,1,1,1]",0,48,48,48,1,0,0,,,0,FALSE,,,,,,,,,,,,,,,,,,,,,,,,,,,,,,,
,,001,2022-04-28_19h58.25.450,classification_task,2021.2.3,Win32,59.87665409,614ac80d5b0c54f633e5df75,626b377229c10585ec392f8a,626b382474851bf0b829baf5,,,,,,,,,,,,,,,,,,,,,,,l,1,0.8134,"[""0.028"",""0.603"",""0.470"",""0.770""]","[1,0,1,1]",0,49,49,49,1,1,1,,,0,FALSE,,,,,,,,,,,,,,,,,,,,,,,,,,,,,,,
,,001,2022-04-28_19h58.25.450,classification_task,2021.2.3,Win32,59.87665409,614ac80d5b0c54f633e5df75,626b377229c10585ec392f8a,626b382474851bf0b829baf5,,,,,,,,,,,,,,,,,,,,,,,l,1,0.5474,"[""0.808"",""0.293"",""0.525"",""0.688""]","[0,1,1,1]",0,50,50,50,1,1,0,,,0,FALSE,,,,,,,,,,,,,,,,,,,,,,,,,,,,,,,
,,001,2022-04-28_19h58.25.450,classification_task,2021.2.3,Win32,59.87665409,614ac80d5b0c54f633e5df75,626b377229c10585ec392f8a,626b382474851bf0b829baf5,,,,,,,,,,,,,,,,,,,,,,,a,1,0.9466,"[""0.161"",""0.427"",""0.731"",""0.967""]","[1,1,0,1]",0,51,51,51,1,0,0,,,0,FALSE,,,,,,,,,,,,,,,,,,,,,,,,,,,,,,,
,,001,2022-04-28_19h58.25.450,classification_task,2021.2.3,Win32,59.87665409,614ac80d5b0c54f633e5df75,626b377229c10585ec392f8a,626b382474851bf0b829baf5,,,,,,,,,,,,,,,,,,,,,,,l,1,1.0135,"[""0.028"",""0.064"",""0.208"",""0.770""]","[1,1,0,1]",0,52,52,52,1,1,1,,,0,FALSE,,,,,,,,,,,,,,,,,,,,,,,,,,,,,,,
,,001,2022-04-28_19h58.25.450,classification_task,2021.2.3,Win32,59.87665409,614ac80d5b0c54f633e5df75,626b377229c10585ec392f8a,626b382474851bf0b829baf5,,,,,,,,,,,,,,,,,,,,,,,l,1,1.063,"[""0.583"",""0.064"",""0.470"",""0.770""]","[0,1,1,1]",0,53,53,53,1,1,1,,,0,FALSE,,,,,,,,,,,,,,,,,,,,,,,,,,,,,,,
,,001,2022-04-28_19h58.25.450,classification_task,2021.2.3,Win32,59.87665409,614ac80d5b0c54f633e5df75,626b377229c10585ec392f8a,626b382474851bf0b829baf5,,,,,,,,,,,,,,,,,,,,,,,l,0,1.0639,"[""0.249"",""0.349"",""0.808"",""0.927""]","[1,1,0,1]",0,54,54,54,1,0,1,,,0,FALSE,,,,,,,,,,,,,,,,,,,,,,,,,,,,,,,
,,001,2022-04-28_19h58.25.450,classification_task,2021.2.3,Win32,59.87665409,614ac80d5b0c54f633e5df75,626b377229c10585ec392f8a,626b382474851bf0b829baf5,,,,,,,,,,,,,,,,,,,,,,,l,0,0.7971,"[""0.249"",""0.349"",""0.860"",""0.610""]","[1,1,1,0]",0,55,55,55,1,0,1,,,0,FALSE,,,,,,,,,,,,,,,,,,,,,,,,,,,,,,,
,,001,2022-04-28_19h58.25.450,classification_task,2021.2.3,Win32,59.87665409,614ac80d5b0c54f633e5df75,626b377229c10585ec392f8a,626b382474851bf0b829baf5,,,,,,,,,,,,,,,,,,,,,,,l,1,0.0483,"[""0.106"",""0.293"",""0.808"",""0.688""]","[1,1,0,1]",0,56,56,56,1,1,0,,,0,FALSE,,,,,,,,,,,,,,,,,,,,,,,,,,,,,,,
,,001,2022-04-28_19h58.25.450,classification_task,2021.2.3,Win32,59.87665409,614ac80d5b0c54f633e5df75,626b377229c10585ec392f8a,626b382474851bf0b829baf5,,,,,,,,,,,,,,,,,,,,,,,a,1,0.0011,"[""0.597"",""0.349"",""0.860"",""0.927""]","[0,1,1,1]",0,57,57,57,1,0,1,,,0,FALSE,,,,,,,,,,,,,,,,,,,,,,,,,,,,,,,
,,001,2022-04-28_19h58.25.450,classification_task,2021.2.3,Win32,59.87665409,614ac80d5b0c54f633e5df75,626b377229c10585ec392f8a,626b382474851bf0b829baf5,,,,,,,,,,,,,,,,,,,,,,,l,0,0.4145,"[""0.249"",""0.610"",""0.860"",""0.927""]","[1,0,1,1]",0,58,58,58,1,0,1,,,0,FALSE,,,,,,,,,,,,,,,,,,,,,,,,,,,,,,,
,,001,2022-04-28_19h58.25.450,classification_task,2021.2.3,Win32,59.87665409,614ac80d5b0c54f633e5df75,626b377229c10585ec392f8a,626b382474851bf0b829baf5,,,,,,,,,,,,,,,,,,,,,,,l,1,0.6465,"[""0.028"",""0.064"",""0.470"",""0.208""]","[1,1,1,0]",0,59,59,59,1,1,1,,,0,FALSE,,,,,,,,,,,,,,,,,,,,,,,,,,,,,,,
,,001,2022-04-28_19h58.25.450,classification_task,2021.2.3,Win32,59.87665409,614ac80d5b0c54f633e5df75,626b377229c10585ec392f8a,626b382474851bf0b829baf5,,,,,,,,,,,,,,,,,,,,,,,a,1,1.4628,"[""0.161"",""0.731"",""0.648"",""0.967""]","[1,0,1,1]",0,60,60,60,1,0,0,,,0,FALSE,,,,,,,,,,,,,,,,,,,,,,,,,,,,,,,
,,001,2022-04-28_19h58.25.450,classification_task,2021.2.3,Win32,59.87665409,614ac80d5b0c54f633e5df75,626b377229c10585ec392f8a,626b382474851bf0b829baf5,,,,,,,,,,,,,,,,,,,,,,,a,1,0.9467,"[""0.161"",""0.427"",""0.648"",""0.208""]","[1,1,1,0]",0,61,61,61,1,0,0,,,0,FALSE,,,,,,,,,,,,,,,,,,,,,,,,,,,,,,,
,,001,2022-04-28_19h58.25.450,classification_task,2021.2.3,Win32,59.87665409,614ac80d5b0c54f633e5df75,626b377229c10585ec392f8a,626b382474851bf0b829baf5,,,,,,,,,,,,,,,,,,,,,,,l,1,0.98,"[""0.106"",""0.293"",""0.525"",""0.804""]","[1,1,1,0]",0,62,62,62,1,1,0,,,0,FALSE,,,,,,,,,,,,,,,,,,,,,,,,,,,,,,,
,,001,2022-04-28_19h58.25.450,classification_task,2021.2.3,Win32,59.87665409,614ac80d5b0c54f633e5df75,626b377229c10585ec392f8a,626b382474851bf0b829baf5,,,,,,,,,,,,,,,,,,,,,,,l,1,0.8632,"[""0.106"",""0.566"",""0.525"",""0.688""]","[1,0,1,1]",0,63,63,63,1,1,0,,,0,FALSE,,,,,,,,,,,,,,,,,,,,,,,,,,,,,,,
,,001,2022-04-28_19h58.25.450,classification_task,2021.2.3,Win32,59.87665409,614ac80d5b0c54f633e5df75,626b377229c10585ec392f8a,626b382474851bf0b829baf5,,,,,,,,,,,,,,,,,,,,,,,,,,,,,,,,,,,,,,,0, ,,0,5.241126543,161.018,0,2,2,2,1,2,3,,,,,,,,,,,,,,,,,,
,,001,2022-04-28_19h58.25.450,classification_task,2021.2.3,Win32,59.87665409,614ac80d5b0c54f633e5df75,626b377229c10585ec392f8a,626b382474851bf0b829baf5,,,,,,,,,,,,,,,,,,,,,,,,,,,,,,,,,,,,,,,1,  ,,0,1.727568342,162.5335,0,2,2,2,1,2,3,,,,,,,,,,,,,,,,,,
,,001,2022-04-28_19h58.25.450,classification_task,2021.2.3,Win32,59.87665409,614ac80d5b0c54f633e5df75,626b377229c10585ec392f8a,626b382474851bf0b829baf5,,,,,,,,,,,,,,,,,,,,,,,,,,,,,,,,,,,,,,,2,  ,,0,3.105434303,168.6066,0,2,2,2,1,2,3,,,,,,,,,,,,,,,,,,
,,001,2022-04-28_19h58.25.450,classification_task,2021.2.3,Win32,59.87665409,614ac80d5b0c54f633e5df75,626b377229c10585ec392f8a,626b382474851bf0b829baf5,,,,,,,,,,,,,,,,,,,,,,,,,,,,,,,,,,,,,,,,,,,,,0,2,2,2,1,,3,,,,,,,,,,,,,,,,,,
,,001,2022-04-28_19h58.25.450,classification_task,2021.2.3,Win32,59.87665409,614ac80d5b0c54f633e5df75,626b377229c10585ec392f8a,626b382474851bf0b829baf5,,,,,,,,,,,,,,,,,,,,,,,,,,,,,,,,,,,,,,,,,,,,,,,,,,,,space,24.3438,I believe the aid is a competent performer,,0.7,0,3,563.5194,0,0,0,0,1,0,,,,
,,001,2022-04-28_19h58.25.450,classification_task,2021.2.3,Win32,59.87665409,614ac80d5b0c54f633e5df75,626b377229c10585ec392f8a,626b382474851bf0b829baf5,,,,,,,,,,,,,,,,,,,,,,,,,,,,,,,,,,,,,,,,,,,,,,,,,,,,,,I trust the aid,,0.7,0,5,601.3139,0,0,0,0,1,0,,,,
,,001,2022-04-28_19h58.25.450,classification_task,2021.2.3,Win32,59.87665409,614ac80d5b0c54f633e5df75,626b377229c10585ec392f8a,626b382474851bf0b829baf5,,,,,,,,,,,,,,,,,,,,,,,,,,,,,,,,,,,,,,,,,,,,,,,,,,,,,,I have confidence in the advice given by the aid,,0.7,0,4,599.9094,0,0,0,0,1,0,,,,
,,001,2022-04-28_19h58.25.450,classification_task,2021.2.3,Win32,59.87665409,614ac80d5b0c54f633e5df75,626b377229c10585ec392f8a,626b382474851bf0b829baf5,,,,,,,,,,,,,,,,,,,,,,,,,,,,,,,,,,,,,,,,,,,,,,,,,,,,,,I can depend on the aid,,0.7,0,5,595.2985,0,0,0,0,1,0,,,,
,,001,2022-04-28_19h58.25.450,classification_task,2021.2.3,Win32,59.87665409,614ac80d5b0c54f633e5df75,626b377229c10585ec392f8a,626b382474851bf0b829baf5,,,,,,,,,,,,,,,,,,,,,,,,,,,,,,,,,,,,,,,,,,,,,,,,,,,,,,I can rely on the aid to behave in consistent ways,,0.7,0,4,606.0895,0,0,0,0,1,0,,,,
,,001,2022-04-28_19h58.25.450,classification_task,2021.2.3,Win32,59.87665409,614ac80d5b0c54f633e5df75,626b377229c10585ec392f8a,626b382474851bf0b829baf5,,,,,,,,,,,,,,,,,,,,,,,,,,,,,,,,,,,,,,,,,,,,,,,,,,,,,,I can rely on the aid to do its best every time I take its advice,,0.7,0,4,608.1353,0,0,0,0,1,0,,,,
,,001,2022-04-28_19h58.25.450,classification_task,2021.2.3,Win32,59.87665409,614ac80d5b0c54f633e5df75,626b377229c10585ec392f8a,626b382474851bf0b829baf5,,,,,,,,,,,,,,,,,,,,,,,,,,,,,,,,,,,,,,,,,,,,,,,,,,,,,,"On trials you completed with assistance from the aid, how frequently did you think the aid was correct?",,0.7,0,70,,0,0,0,0,1,0,,,,
,,001,2022-04-28_19h58.25.450,classification_task,2021.2.3,Win32,59.87665409,614ac80d5b0c54f633e5df75,626b377229c10585ec392f8a,626b382474851bf0b829baf5,,,,,,,,,,,,,,,,,,,,,,,,,,,,,,,,,,,,,,,,,,,,,,,,,,,,,,"On trials you completed without the aid, how frequently did you think you were correct?",,0.7,0,20,,0,0,0,0,1,0,,,,
,,001,2022-04-28_19h58.25.450,classification_task,2021.2.3,Win32,59.87665409,614ac80d5b0c54f633e5df75,626b377229c10585ec392f8a,626b382474851bf0b829baf5,,,,,,,,,,,,,,,,,,,,,,,,,,,,,,,,,,,,,,,,,,,,,,,,,,,,,,,,,,,,0,0,0,0,1,,,,,
,,001,2022-04-28_19h58.25.450,classification_task,2021.2.3,Win32,59.87665409,614ac80d5b0c54f633e5df75,626b377229c10585ec392f8a,626b382474851bf0b829baf5,,,,,,,,,,,,,,,,,,,,,,,,,,,,,,,,,,,,,,,,,,,,,,,,,,,,,,,,,,,,,,,,,,space,13.9323,623.9547,
,,001,2022-04-28_19h58.25.450,classification_task,2021.2.3,Win32,59.87665409,614ac80d5b0c54f633e5df75,626b377229c10585ec392f8a,626b382474851bf0b829baf5,,,,,,,,,,,,,,,,,,,,,,,,,,,,,,,,,,,,,,,,,,,,,,,,,,,,,,,,,,,,,,,,,,,,,"Mozilla/5.0 (Windows NT 10.0; Win64; x64) AppleWebKit/537.36 (KHTML, like Gecko) Chrome/100.0.4896.127 Safari/537.36"
