usingWebGL,participant,session,date,expName,psychopyVersion,OS,frameRate,PROLIFIC_PID,STUDY_ID,SESSION_ID,signatures_friend,signatures_foe,band_ranges_top,band_ranges_bottom,formitemText,formtype,formundefined,formitemWidth,formindex,formresponse,formrt,key_resp_2.keys,key_resp_2.rt,tute_resp.keys,tute_resp.rt,tutorial.thisRepN,tutorial.thisTrialN,tutorial.thisN,tutorial.thisIndex,tutorial.ran,key_resp_4.keys,key_resp_4.rt,key_resp.keys,key_resp.corr,key_resp.rt,lines_presented,is_signal_presented,trials.thisRepN,trials.thisTrialN,trials.thisN,trials.thisIndex,trials.ran,vessel,active_band,lines,is_signal,supported_pos,catch_trial,debrief_formindex,debrief_formitemText,debrief_formtype,debrief_formitemWidth,debrief_formresponse,debrief_formrt,phases.thisRepN,phases.thisTrialN,phases.thisN,phases.thisIndex,phases.ran,phases.order,phase,key_resp_3.keys,trustitemText,trusttype,trustitemWidth,trustindex,trustresponse,trustrt,support_status.thisRepN,support_status.thisTrialN,support_status.thisN,support_status.thisIndex,support_status.ran,support_status.order,key_resp_5.keys,key_resp_5.rt,globalClockTime,userAgent
TRUE,,001,2022-04-29_03h15.35.121,classification_task,2021.2.3,Win32,60.17933442,617443d40390c953861e8311,626b377229c10585ec392f8a,626b3a2d99dbc72395e11a51,,,,,,,,,,,,,,,,,,,,,,,,,,,,,,,,,,,,,,,,,,,,,,,,,,,,,,,,,,,,,,,,,,,,
,,001,2022-04-29_03h15.35.121,classification_task,2021.2.3,Win32,60.17933442,617443d40390c953861e8311,626b377229c10585ec392f8a,626b3a2d99dbc72395e11a51,"[[""0.220"",""0.535"",""0.616"",""0.968""],[""0.311"",""0.442"",""0.891"",""0.926""]]","[[""0.055"",""0.406"",""0.478"",""0.837""],[""0.151"",""0.268"",""0.657"",""0.750""]]","[1,10]","[100,1000]",Video game experience,,,0.7,0,,,,,,,,,,,,,,,,,,,,,,,,,,,,,,,,,,,,,,,,,,,,,,,,,,,,,,,,,,,
,,001,2022-04-29_03h15.35.121,classification_task,2021.2.3,Win32,60.17933442,617443d40390c953861e8311,626b377229c10585ec392f8a,626b3a2d99dbc72395e11a51,,,,,Approximately how many hours did you spend playing video games in the last week?,,,0.7,0,0,,,,,,,,,,,,,,,,,,,,,,,,,,,,,,,,,,,,,,,,,,,,,,,,,,,,,,,,,,
,,001,2022-04-29_03h15.35.121,classification_task,2021.2.3,Win32,60.17933442,617443d40390c953861e8311,626b377229c10585ec392f8a,626b3a2d99dbc72395e11a51,,,,,"Which game did you play the most this year? (Enter ""None"" if you didn't play any)",,,0.7,0,None,,,,,,,,,,,,,,,,,,,,,,,,,,,,,,,,,,,,,,,,,,,,,,,,,,,,,,,,,,
,,001,2022-04-29_03h15.35.121,classification_task,2021.2.3,Win32,60.17933442,617443d40390c953861e8311,626b377229c10585ec392f8a,626b3a2d99dbc72395e11a51,,,,,Visual perception,,,0.7,0,,,,,,,,,,,,,,,,,,,,,,,,,,,,,,,,,,,,,,,,,,,,,,,,,,,,,,,,,,,
,,001,2022-04-29_03h15.35.121,classification_task,2021.2.3,Win32,60.17933442,617443d40390c953861e8311,626b377229c10585ec392f8a,626b3a2d99dbc72395e11a51,,,,,Do you have any form of color blindness?,,,0.7,0,No,27.5201,,,,,,,,,,,,,,,,,,,,,,,,,,,,,,,,,,,,,,,,,,,,,,,,,,,,,,,,,
,,001,2022-04-29_03h15.35.121,classification_task,2021.2.3,Win32,60.17933442,617443d40390c953861e8311,626b377229c10585ec392f8a,626b3a2d99dbc72395e11a51,,,,,Do you use software to change the colour temperature of your screen (e.g. f.lux)?,,,0.7,0,No,30.0356,,,,,,,,,,,,,,,,,,,,,,,,,,,,,,,,,,,,,,,,,,,,,,,,,,,,,,,,,
,,001,2022-04-29_03h15.35.121,classification_task,2021.2.3,Win32,60.17933442,617443d40390c953861e8311,626b377229c10585ec392f8a,626b3a2d99dbc72395e11a51,,,,,,,,,,,,space,16.9952,space,22.0643,0,0,0,0,1,,,,,,,,,,,,,,,,,,,,,,,,,,,,,,,,,,,,,,,,,,,,,,,,
,,001,2022-04-29_03h15.35.121,classification_task,2021.2.3,Win32,60.17933442,617443d40390c953861e8311,626b377229c10585ec392f8a,626b3a2d99dbc72395e11a51,,,,,,,,,,,,,,space,12.2613,1,0,1,0,1,,,,,,,,,,,,,,,,,,,,,,,,,,,,,,,,,,,,,,,,,,,,,,,,
,,001,2022-04-29_03h15.35.121,classification_task,2021.2.3,Win32,60.17933442,617443d40390c953861e8311,626b377229c10585ec392f8a,626b3a2d99dbc72395e11a51,,,,,,,,,,,,,,space,18.3948,2,0,2,0,1,,,,,,,,,,,,,,,,,,,,,,,,,,,,,,,,,,,,,,,,,,,,,,,,
,,001,2022-04-29_03h15.35.121,classification_task,2021.2.3,Win32,60.17933442,617443d40390c953861e8311,626b377229c10585ec392f8a,626b3a2d99dbc72395e11a51,,,,,,,,,,,,,,space,13.1106,3,0,3,0,1,,,,,,,,,,,,,,,,,,,,,,,,,,,,,,,,,,,,,,,,,,,,,,,,
,,001,2022-04-29_03h15.35.121,classification_task,2021.2.3,Win32,60.17933442,617443d40390c953861e8311,626b377229c10585ec392f8a,626b3a2d99dbc72395e11a51,,,,,,,,,,,,,,space,10.8674,4,0,4,0,1,,,,,,,,,,,,,,,,,,,,,,,,,,,,,,,,,,,,,,,,,,,,,,,,
,,001,2022-04-29_03h15.35.121,classification_task,2021.2.3,Win32,60.17933442,617443d40390c953861e8311,626b377229c10585ec392f8a,626b3a2d99dbc72395e11a51,,,,,,,,,,,,,,,,,,,,,space,21.039,a,1,5.9521,"[""0.311"",""0.442"",""0.345"",""0.926""]","[1,1,0,1]",0,0,0,0,1,0,1,,,0,FALSE,,,,,,,,,,,,,,,,,,,,,,,,,,,,,,
,,001,2022-04-29_03h15.35.121,classification_task,2021.2.3,Win32,60.17933442,617443d40390c953861e8311,626b377229c10585ec392f8a,626b3a2d99dbc72395e11a51,,,,,,,,,,,,,,,,,,,,,,,a,1,6.3072,"[""0.220"",""0.345"",""0.616"",""0.968""]","[1,0,1,1]",0,1,1,1,1,0,0,,,0,FALSE,,,,,,,,,,,,,,,,,,,,,,,,,,,,,,
,,001,2022-04-29_03h15.35.121,classification_task,2021.2.3,Win32,60.17933442,617443d40390c953861e8311,626b377229c10585ec392f8a,626b3a2d99dbc72395e11a51,,,,,,,,,,,,,,,,,,,,,,,l,1,4.5267,"[""0.151"",""0.268"",""0.571"",""0.750""]","[1,1,0,1]",0,2,2,2,1,1,1,,,0,FALSE,,,,,,,,,,,,,,,,,,,,,,,,,,,,,,
,,001,2022-04-29_03h15.35.121,classification_task,2021.2.3,Win32,60.17933442,617443d40390c953861e8311,626b377229c10585ec392f8a,626b3a2d99dbc72395e11a51,,,,,,,,,,,,,,,,,,,,,,,a,1,2.2795,"[""0.311"",""0.345"",""0.891"",""0.926""]","[1,0,1,1]",0,3,3,3,1,0,1,,,0,FALSE,,,,,,,,,,,,,,,,,,,,,,,,,,,,,,
,,001,2022-04-29_03h15.35.121,classification_task,2021.2.3,Win32,60.17933442,617443d40390c953861e8311,626b377229c10585ec392f8a,626b3a2d99dbc72395e11a51,,,,,,,,,,,,,,,,,,,,,,,l,1,7.5842,"[""0.186"",""0.268"",""0.657"",""0.750""]","[0,1,1,1]",0,4,4,4,1,1,1,,,0,FALSE,,,,,,,,,,,,,,,,,,,,,,,,,,,,,,
,,001,2022-04-29_03h15.35.121,classification_task,2021.2.3,Win32,60.17933442,617443d40390c953861e8311,626b377229c10585ec392f8a,626b3a2d99dbc72395e11a51,,,,,,,,,,,,,,,,,,,,,,,a,0,8.7484,"[""0.055"",""0.406"",""0.478"",""0.796""]","[1,1,1,0]",0,5,5,5,1,1,0,,,0,FALSE,,,,,,,,,,,,,,,,,,,,,,,,,,,,,,
,,001,2022-04-29_03h15.35.121,classification_task,2021.2.3,Win32,60.17933442,617443d40390c953861e8311,626b377229c10585ec392f8a,626b3a2d99dbc72395e11a51,,,,,,,,,,,,,,,,,,,,,,,l,0,8.103,"[""0.220"",""0.535"",""0.616"",""0.348""]","[1,1,1,0]",0,6,6,6,1,0,0,,,0,FALSE,,,,,,,,,,,,,,,,,,,,,,,,,,,,,,
,,001,2022-04-29_03h15.35.121,classification_task,2021.2.3,Win32,60.17933442,617443d40390c953861e8311,626b377229c10585ec392f8a,626b3a2d99dbc72395e11a51,,,,,,,,,,,,,,,,,,,,,,,,0,,"[""0.055"",""0.714"",""0.478"",""0.837""]","[1,0,1,1]",0,7,7,7,1,1,0,,,0,FALSE,,,,,,,,,,,,,,,,,,,,,,,,,,,,,,
,,001,2022-04-29_03h15.35.121,classification_task,2021.2.3,Win32,60.17933442,617443d40390c953861e8311,626b377229c10585ec392f8a,626b3a2d99dbc72395e11a51,,,,,,,,,,,,,,,,,,,,,,,l,1,2.7861,"[""0.151"",""0.714"",""0.657"",""0.750""]","[1,0,1,1]",0,8,8,8,1,1,1,,,0,FALSE,,,,,,,,,,,,,,,,,,,,,,,,,,,,,,
,,001,2022-04-29_03h15.35.121,classification_task,2021.2.3,Win32,60.17933442,617443d40390c953861e8311,626b377229c10585ec392f8a,626b3a2d99dbc72395e11a51,,,,,,,,,,,,,,,,,,,,,,,l,1,3.0199,"[""0.055"",""0.406"",""0.792"",""0.837""]","[1,1,0,1]",0,9,9,9,1,1,0,,,0,FALSE,,,,,,,,,,,,,,,,,,,,,,,,,,,,,,
,,001,2022-04-29_03h15.35.121,classification_task,2021.2.3,Win32,60.17933442,617443d40390c953861e8311,626b377229c10585ec392f8a,626b3a2d99dbc72395e11a51,,,,,,,,,,,,,,,,,,,,,,,a,1,2.201,"[""0.220"",""0.535"",""0.799"",""0.968""]","[1,1,0,1]",0,10,10,10,1,0,0,,,0,FALSE,,,,,,,,,,,,,,,,,,,,,,,,,,,,,,
,,001,2022-04-29_03h15.35.121,classification_task,2021.2.3,Win32,60.17933442,617443d40390c953861e8311,626b377229c10585ec392f8a,626b3a2d99dbc72395e11a51,,,,,,,,,,,,,,,,,,,,,,,l,0,1.9086,"[""0.090"",""0.535"",""0.616"",""0.968""]","[0,1,1,1]",0,11,11,11,1,0,0,,,0,FALSE,,,,,,,,,,,,,,,,,,,,,,,,,,,,,,
,,001,2022-04-29_03h15.35.121,classification_task,2021.2.3,Win32,60.17933442,617443d40390c953861e8311,626b377229c10585ec392f8a,626b3a2d99dbc72395e11a51,,,,,,,,,,,,,,,,,,,,,,,l,1,2.9799,"[""0.151"",""0.268"",""0.657"",""0.348""]","[1,1,1,0]",0,12,12,12,1,1,1,,,0,FALSE,,,,,,,,,,,,,,,,,,,,,,,,,,,,,,
,,001,2022-04-29_03h15.35.121,classification_task,2021.2.3,Win32,60.17933442,617443d40390c953861e8311,626b377229c10585ec392f8a,626b3a2d99dbc72395e11a51,,,,,,,,,,,,,,,,,,,,,,,a,1,7.8413,"[""0.311"",""0.442"",""0.891"",""0.109""]","[1,1,1,0]",0,13,13,13,1,0,1,,,0,FALSE,,,,,,,,,,,,,,,,,,,,,,,,,,,,,,
,,001,2022-04-29_03h15.35.121,classification_task,2021.2.3,Win32,60.17933442,617443d40390c953861e8311,626b377229c10585ec392f8a,626b3a2d99dbc72395e11a51,,,,,,,,,,,,,,,,,,,,,,,a,0,5.7385,"[""0.345"",""0.406"",""0.478"",""0.837""]","[0,1,1,1]",0,14,14,14,1,1,0,,,0,FALSE,,,,,,,,,,,,,,,,,,,,,,,,,,,,,,
,,001,2022-04-29_03h15.35.121,classification_task,2021.2.3,Win32,60.17933442,617443d40390c953861e8311,626b377229c10585ec392f8a,626b3a2d99dbc72395e11a51,,,,,,,,,,,,,,,,,,,,,,,l,0,6.6397,"[""0.796"",""0.442"",""0.891"",""0.926""]","[0,1,1,1]",0,15,15,15,1,0,1,,,0,FALSE,,,,,,,,,,,,,,,,,,,,,,,,,,,,,,
,,001,2022-04-29_03h15.35.121,classification_task,2021.2.3,Win32,60.17933442,617443d40390c953861e8311,626b377229c10585ec392f8a,626b3a2d99dbc72395e11a51,,,,,,,,,,,,,,,,,,,,,,,a,1,3.0289,"[""0.311"",""0.571"",""0.891"",""0.926""]","[1,0,1,1]",0,16,16,16,1,0,1,,,0,FALSE,,,,,,,,,,,,,,,,,,,,,,,,,,,,,,
,,001,2022-04-29_03h15.35.121,classification_task,2021.2.3,Win32,60.17933442,617443d40390c953861e8311,626b377229c10585ec392f8a,626b3a2d99dbc72395e11a51,,,,,,,,,,,,,,,,,,,,,,,a,0,2.2529,"[""0.348"",""0.406"",""0.478"",""0.837""]","[0,1,1,1]",0,17,17,17,1,1,0,,,0,FALSE,,,,,,,,,,,,,,,,,,,,,,,,,,,,,,
,,001,2022-04-29_03h15.35.121,classification_task,2021.2.3,Win32,60.17933442,617443d40390c953861e8311,626b377229c10585ec392f8a,626b3a2d99dbc72395e11a51,,,,,,,,,,,,,,,,,,,,,,,l,1,2.8635,"[""0.151"",""0.714"",""0.657"",""0.750""]","[1,0,1,1]",0,18,18,18,1,1,1,,,0,FALSE,,,,,,,,,,,,,,,,,,,,,,,,,,,,,,
,,001,2022-04-29_03h15.35.121,classification_task,2021.2.3,Win32,60.17933442,617443d40390c953861e8311,626b377229c10585ec392f8a,626b3a2d99dbc72395e11a51,,,,,,,,,,,,,,,,,,,,,,,l,0,4.5541,"[""0.220"",""0.535"",""0.090"",""0.968""]","[1,1,0,1]",0,19,19,19,1,0,0,,,0,FALSE,,,,,,,,,,,,,,,,,,,,,,,,,,,,,,
,,001,2022-04-29_03h15.35.121,classification_task,2021.2.3,Win32,60.17933442,617443d40390c953861e8311,626b377229c10585ec392f8a,626b3a2d99dbc72395e11a51,,,,,,,,,,,,,,,,,,,,,,,l,1,3.9387,"[""0.151"",""0.268"",""0.657"",""0.115""]","[1,1,1,0]",0,20,20,20,1,1,1,,,0,FALSE,,,,,,,,,,,,,,,,,,,,,,,,,,,,,,
,,001,2022-04-29_03h15.35.121,classification_task,2021.2.3,Win32,60.17933442,617443d40390c953861e8311,626b377229c10585ec392f8a,626b3a2d99dbc72395e11a51,,,,,,,,,,,,,,,,,,,,,,,a,0,1.9057,"[""0.055"",""0.345"",""0.478"",""0.837""]","[1,0,1,1]",0,21,21,21,1,1,0,,,0,FALSE,,,,,,,,,,,,,,,,,,,,,,,,,,,,,,
,,001,2022-04-29_03h15.35.121,classification_task,2021.2.3,Win32,60.17933442,617443d40390c953861e8311,626b377229c10585ec392f8a,626b3a2d99dbc72395e11a51,,,,,,,,,,,,,,,,,,,,,,,a,0,1.3151,"[""0.055"",""0.406"",""0.478"",""0.581""]","[1,1,1,0]",0,22,22,22,1,1,0,,,0,FALSE,,,,,,,,,,,,,,,,,,,,,,,,,,,,,,
,,001,2022-04-29_03h15.35.121,classification_task,2021.2.3,Win32,60.17933442,617443d40390c953861e8311,626b377229c10585ec392f8a,626b3a2d99dbc72395e11a51,,,,,,,,,,,,,,,,,,,,,,,l,1,3.7395,"[""0.151"",""0.268"",""0.796"",""0.750""]","[1,1,0,1]",0,23,23,23,1,1,1,,,0,FALSE,,,,,,,,,,,,,,,,,,,,,,,,,,,,,,
,,001,2022-04-29_03h15.35.121,classification_task,2021.2.3,Win32,60.17933442,617443d40390c953861e8311,626b377229c10585ec392f8a,626b3a2d99dbc72395e11a51,,,,,,,,,,,,,,,,,,,,,,,a,0,2.0462,"[""0.055"",""0.406"",""0.345"",""0.837""]","[1,1,0,1]",0,24,24,24,1,1,0,,,0,FALSE,,,,,,,,,,,,,,,,,,,,,,,,,,,,,,
,,001,2022-04-29_03h15.35.121,classification_task,2021.2.3,Win32,60.17933442,617443d40390c953861e8311,626b377229c10585ec392f8a,626b3a2d99dbc72395e11a51,,,,,,,,,,,,,,,,,,,,,,,l,0,0.851,"[""0.220"",""0.535"",""0.616"",""0.186""]","[1,1,1,0]",0,25,25,25,1,0,0,,,0,FALSE,,,,,,,,,,,,,,,,,,,,,,,,,,,,,,
,,001,2022-04-29_03h15.35.121,classification_task,2021.2.3,Win32,60.17933442,617443d40390c953861e8311,626b377229c10585ec392f8a,626b3a2d99dbc72395e11a51,,,,,,,,,,,,,,,,,,,,,,,l,0,5.7783,"[""0.311"",""0.442"",""0.115"",""0.926""]","[1,1,0,1]",0,26,26,26,1,0,1,,,0,FALSE,,,,,,,,,,,,,,,,,,,,,,,,,,,,,,
,,001,2022-04-29_03h15.35.121,classification_task,2021.2.3,Win32,60.17933442,617443d40390c953861e8311,626b377229c10585ec392f8a,626b3a2d99dbc72395e11a51,,,,,,,,,,,,,,,,,,,,,,,a,1,2.7981,"[""0.311"",""0.442"",""0.891"",""0.345""]","[1,1,1,0]",0,27,27,27,1,0,1,,,0,FALSE,,,,,,,,,,,,,,,,,,,,,,,,,,,,,,
,,001,2022-04-29_03h15.35.121,classification_task,2021.2.3,Win32,60.17933442,617443d40390c953861e8311,626b377229c10585ec392f8a,626b3a2d99dbc72395e11a51,,,,,,,,,,,,,,,,,,,,,,,l,0,4.8305,"[""0.220"",""0.345"",""0.616"",""0.968""]","[1,0,1,1]",0,28,28,28,1,0,0,,,0,FALSE,,,,,,,,,,,,,,,,,,,,,,,,,,,,,,
,,001,2022-04-29_03h15.35.121,classification_task,2021.2.3,Win32,60.17933442,617443d40390c953861e8311,626b377229c10585ec392f8a,626b3a2d99dbc72395e11a51,,,,,,,,,,,,,,,,,,,,,,,l,0,1.2177,"[""0.799"",""0.535"",""0.616"",""0.968""]","[0,1,1,1]",0,29,29,29,1,0,0,,,0,FALSE,,,,,,,,,,,,,,,,,,,,,,,,,,,,,,
,,001,2022-04-29_03h15.35.121,classification_task,2021.2.3,Win32,60.17933442,617443d40390c953861e8311,626b377229c10585ec392f8a,626b3a2d99dbc72395e11a51,,,,,,,,,,,,,,,,,,,,,,,a,1,3.0832,"[""0.345"",""0.442"",""0.891"",""0.926""]","[0,1,1,1]",0,30,30,30,1,0,1,,,0,FALSE,,,,,,,,,,,,,,,,,,,,,,,,,,,,,,
,,001,2022-04-29_03h15.35.121,classification_task,2021.2.3,Win32,60.17933442,617443d40390c953861e8311,626b377229c10585ec392f8a,626b3a2d99dbc72395e11a51,,,,,,,,,,,,,,,,,,,,,,,l,1,6.9879,"[""0.115"",""0.268"",""0.657"",""0.750""]","[0,1,1,1]",0,31,31,31,1,1,1,,,0,FALSE,,,,,,,,,,,,,,,,,,,,,,,,,,,,,,
,,001,2022-04-29_03h15.35.121,classification_task,2021.2.3,Win32,60.17933442,617443d40390c953861e8311,626b377229c10585ec392f8a,626b3a2d99dbc72395e11a51,,,,,,,,,,,,,,,,,,,,,,,a,1,3.6197,"[""0.311"",""0.442"",""0.109"",""0.926""]","[1,1,0,1]",0,32,32,32,1,0,1,,,0,FALSE,,,,,,,,,,,,,,,,,,,,,,,,,,,,,,
,,001,2022-04-29_03h15.35.121,classification_task,2021.2.3,Win32,60.17933442,617443d40390c953861e8311,626b377229c10585ec392f8a,626b3a2d99dbc72395e11a51,,,,,,,,,,,,,,,,,,,,,,,a,1,2.066,"[""0.220"",""0.792"",""0.616"",""0.968""]","[1,0,1,1]",0,33,33,33,1,0,0,,,0,FALSE,,,,,,,,,,,,,,,,,,,,,,,,,,,,,,
,,001,2022-04-29_03h15.35.121,classification_task,2021.2.3,Win32,60.17933442,617443d40390c953861e8311,626b377229c10585ec392f8a,626b3a2d99dbc72395e11a51,,,,,,,,,,,,,,,,,,,,,,,l,1,1.6387,"[""0.055"",""0.345"",""0.478"",""0.837""]","[1,0,1,1]",0,34,34,34,1,1,0,,,0,FALSE,,,,,,,,,,,,,,,,,,,,,,,,,,,,,,
,,001,2022-04-29_03h15.35.121,classification_task,2021.2.3,Win32,60.17933442,617443d40390c953861e8311,626b377229c10585ec392f8a,626b3a2d99dbc72395e11a51,,,,,,,,,,,,,,,,,,,,,,,a,1,1.9401,"[""0.220"",""0.535"",""0.347"",""0.968""]","[1,1,0,1]",0,35,35,35,1,0,0,,,0,FALSE,,,,,,,,,,,,,,,,,,,,,,,,,,,,,,
,,001,2022-04-29_03h15.35.121,classification_task,2021.2.3,Win32,60.17933442,617443d40390c953861e8311,626b377229c10585ec392f8a,626b3a2d99dbc72395e11a51,,,,,,,,,,,,,,,,,,,,,,,a,0,3.1826,"[""0.151"",""0.268"",""0.657"",""0.714""]","[1,1,1,0]",0,36,36,36,1,1,1,,,0,FALSE,,,,,,,,,,,,,,,,,,,,,,,,,,,,,,
,,001,2022-04-29_03h15.35.121,classification_task,2021.2.3,Win32,60.17933442,617443d40390c953861e8311,626b377229c10585ec392f8a,626b3a2d99dbc72395e11a51,,,,,,,,,,,,,,,,,,,,,,,a,0,2.3639,"[""0.055"",""0.406"",""0.796"",""0.837""]","[1,1,0,1]",0,37,37,37,1,1,0,,,0,FALSE,,,,,,,,,,,,,,,,,,,,,,,,,,,,,,
,,001,2022-04-29_03h15.35.121,classification_task,2021.2.3,Win32,60.17933442,617443d40390c953861e8311,626b377229c10585ec392f8a,626b3a2d99dbc72395e11a51,,,,,,,,,,,,,,,,,,,,,,,l,1,2.9478,"[""0.348"",""0.268"",""0.657"",""0.750""]","[0,1,1,1]",0,38,38,38,1,1,1,,,0,FALSE,,,,,,,,,,,,,,,,,,,,,,,,,,,,,,
,,001,2022-04-29_03h15.35.121,classification_task,2021.2.3,Win32,60.17933442,617443d40390c953861e8311,626b377229c10585ec392f8a,626b3a2d99dbc72395e11a51,,,,,,,,,,,,,,,,,,,,,,,a,0,2.1957,"[""0.151"",""0.268"",""0.345"",""0.750""]","[1,1,0,1]",0,39,39,39,1,1,1,,,0,FALSE,,,,,,,,,,,,,,,,,,,,,,,,,,,,,,
,,001,2022-04-29_03h15.35.121,classification_task,2021.2.3,Win32,60.17933442,617443d40390c953861e8311,626b377229c10585ec392f8a,626b3a2d99dbc72395e11a51,,,,,,,,,,,,,,,,,,,,,,,l,1,1.8121,"[""0.055"",""0.406"",""0.478"",""0.345""]","[1,1,1,0]",0,40,40,40,1,1,0,,,0,FALSE,,,,,,,,,,,,,,,,,,,,,,,,,,,,,,
,,001,2022-04-29_03h15.35.121,classification_task,2021.2.3,Win32,60.17933442,617443d40390c953861e8311,626b377229c10585ec392f8a,626b3a2d99dbc72395e11a51,,,,,,,,,,,,,,,,,,,,,,,l,0,2.6393,"[""0.311"",""0.442"",""0.891"",""0.571""]","[1,1,1,0]",0,41,41,41,1,0,1,,,0,FALSE,,,,,,,,,,,,,,,,,,,,,,,,,,,,,,
,,001,2022-04-29_03h15.35.121,classification_task,2021.2.3,Win32,60.17933442,617443d40390c953861e8311,626b377229c10585ec392f8a,626b3a2d99dbc72395e11a51,,,,,,,,,,,,,,,,,,,,,,,l,0,3.6623,"[""0.220"",""0.535"",""0.616"",""0.090""]","[1,1,1,0]",0,42,42,42,1,0,0,,,0,FALSE,,,,,,,,,,,,,,,,,,,,,,,,,,,,,,
,,001,2022-04-29_03h15.35.121,classification_task,2021.2.3,Win32,60.17933442,617443d40390c953861e8311,626b377229c10585ec392f8a,626b3a2d99dbc72395e11a51,,,,,,,,,,,,,,,,,,,,,,,l,0,1.0769,"[""0.348"",""0.535"",""0.616"",""0.968""]","[0,1,1,1]",0,43,43,43,1,0,0,,,0,FALSE,,,,,,,,,,,,,,,,,,,,,,,,,,,,,,
,,001,2022-04-29_03h15.35.121,classification_task,2021.2.3,Win32,60.17933442,617443d40390c953861e8311,626b377229c10585ec392f8a,626b3a2d99dbc72395e11a51,,,,,,,,,,,,,,,,,,,,,,,a,0,1.2652,"[""0.151"",""0.714"",""0.657"",""0.750""]","[1,0,1,1]",0,44,44,44,1,1,1,,,0,FALSE,,,,,,,,,,,,,,,,,,,,,,,,,,,,,,
,,001,2022-04-29_03h15.35.121,classification_task,2021.2.3,Win32,60.17933442,617443d40390c953861e8311,626b377229c10585ec392f8a,626b3a2d99dbc72395e11a51,,,,,,,,,,,,,,,,,,,,,,,a,1,1.6814,"[""0.311"",""0.095"",""0.891"",""0.926""]","[1,0,1,1]",0,45,45,45,1,0,1,,,0,FALSE,,,,,,,,,,,,,,,,,,,,,,,,,,,,,,
,,001,2022-04-29_03h15.35.121,classification_task,2021.2.3,Win32,60.17933442,617443d40390c953861e8311,626b377229c10585ec392f8a,626b3a2d99dbc72395e11a51,,,,,,,,,,,,,,,,,,,,,,,a,0,1.9924,"[""0.799"",""0.406"",""0.478"",""0.837""]","[0,1,1,1]",0,46,46,46,1,1,0,,,0,FALSE,,,,,,,,,,,,,,,,,,,,,,,,,,,,,,
,,001,2022-04-29_03h15.35.121,classification_task,2021.2.3,Win32,60.17933442,617443d40390c953861e8311,626b377229c10585ec392f8a,626b3a2d99dbc72395e11a51,,,,,,,,,,,,,,,,,,,,,,,a,1,1.2886,"[""0.090"",""0.442"",""0.891"",""0.926""]","[0,1,1,1]",0,47,47,47,1,0,1,,,0,FALSE,,,,,,,,,,,,,,,,,,,,,,,,,,,,,,
,,001,2022-04-29_03h15.35.121,classification_task,2021.2.3,Win32,60.17933442,617443d40390c953861e8311,626b377229c10585ec392f8a,626b3a2d99dbc72395e11a51,,,,,,,,,,,,,,,,,,,,,,,l,1,1.7767,"[""0.792"",""0.406"",""0.478"",""0.837""]","[0,1,1,1]",0,48,48,48,1,1,0,,,0,FALSE,,,,,,,,,,,,,,,,,,,,,,,,,,,,,,
,,001,2022-04-29_03h15.35.121,classification_task,2021.2.3,Win32,60.17933442,617443d40390c953861e8311,626b377229c10585ec392f8a,626b3a2d99dbc72395e11a51,,,,,,,,,,,,,,,,,,,,,,,l,0,1.4038,"[""0.311"",""0.442"",""0.891"",""0.347""]","[1,1,1,0]",0,49,49,49,1,0,1,,,0,FALSE,,,,,,,,,,,,,,,,,,,,,,,,,,,,,,
,,001,2022-04-29_03h15.35.121,classification_task,2021.2.3,Win32,60.17933442,617443d40390c953861e8311,626b377229c10585ec392f8a,626b3a2d99dbc72395e11a51,,,,,,,,,,,,,,,,,,,,,,,l,0,1.6019,"[""0.311"",""0.442"",""0.714"",""0.926""]","[1,1,0,1]",0,50,50,50,1,0,1,,,0,FALSE,,,,,,,,,,,,,,,,,,,,,,,,,,,,,,
,,001,2022-04-29_03h15.35.121,classification_task,2021.2.3,Win32,60.17933442,617443d40390c953861e8311,626b377229c10585ec392f8a,626b3a2d99dbc72395e11a51,,,,,,,,,,,,,,,,,,,,,,,a,0,3.0087,"[""0.055"",""0.347"",""0.478"",""0.837""]","[1,0,1,1]",0,51,51,51,1,1,0,,,0,FALSE,,,,,,,,,,,,,,,,,,,,,,,,,,,,,,
,,001,2022-04-29_03h15.35.121,classification_task,2021.2.3,Win32,60.17933442,617443d40390c953861e8311,626b377229c10585ec392f8a,626b3a2d99dbc72395e11a51,,,,,,,,,,,,,,,,,,,,,,,a,1,1.0181,"[""0.220"",""0.714"",""0.616"",""0.968""]","[1,0,1,1]",0,52,52,52,1,0,0,,,0,FALSE,,,,,,,,,,,,,,,,,,,,,,,,,,,,,,
,,001,2022-04-29_03h15.35.121,classification_task,2021.2.3,Win32,60.17933442,617443d40390c953861e8311,626b377229c10585ec392f8a,626b3a2d99dbc72395e11a51,,,,,,,,,,,,,,,,,,,,,,,l,0,1.2912,"[""0.581"",""0.535"",""0.616"",""0.968""]","[0,1,1,1]",0,53,53,53,1,0,0,,,0,FALSE,,,,,,,,,,,,,,,,,,,,,,,,,,,,,,
,,001,2022-04-29_03h15.35.121,classification_task,2021.2.3,Win32,60.17933442,617443d40390c953861e8311,626b377229c10585ec392f8a,626b3a2d99dbc72395e11a51,,,,,,,,,,,,,,,,,,,,,,,l,1,1.7449,"[""0.151"",""0.268"",""0.571"",""0.750""]","[1,1,0,1]",0,54,54,54,1,1,1,,,0,FALSE,,,,,,,,,,,,,,,,,,,,,,,,,,,,,,
,,001,2022-04-29_03h15.35.121,classification_task,2021.2.3,Win32,60.17933442,617443d40390c953861e8311,626b377229c10585ec392f8a,626b3a2d99dbc72395e11a51,,,,,,,,,,,,,,,,,,,,,,,l,1,1.4682,"[""0.151"",""0.345"",""0.657"",""0.750""]","[1,0,1,1]",0,55,55,55,1,1,1,,,0,FALSE,,,,,,,,,,,,,,,,,,,,,,,,,,,,,,
,,001,2022-04-29_03h15.35.121,classification_task,2021.2.3,Win32,60.17933442,617443d40390c953861e8311,626b377229c10585ec392f8a,626b3a2d99dbc72395e11a51,,,,,,,,,,,,,,,,,,,,,,,a,0,1.1058,"[""0.055"",""0.406"",""0.571"",""0.837""]","[1,1,0,1]",0,56,56,56,1,1,0,,,0,FALSE,,,,,,,,,,,,,,,,,,,,,,,,,,,,,,
,,001,2022-04-29_03h15.35.121,classification_task,2021.2.3,Win32,60.17933442,617443d40390c953861e8311,626b377229c10585ec392f8a,626b3a2d99dbc72395e11a51,,,,,,,,,,,,,,,,,,,,,,,a,1,1.356,"[""0.090"",""0.442"",""0.891"",""0.926""]","[0,1,1,1]",0,57,57,57,1,0,1,,,0,FALSE,,,,,,,,,,,,,,,,,,,,,,,,,,,,,,
,,001,2022-04-29_03h15.35.121,classification_task,2021.2.3,Win32,60.17933442,617443d40390c953861e8311,626b377229c10585ec392f8a,626b3a2d99dbc72395e11a51,,,,,,,,,,,,,,,,,,,,,,,l,0,1.3179,"[""0.220"",""0.535"",""0.616"",""0.348""]","[1,1,1,0]",0,58,58,58,1,0,0,,,0,FALSE,,,,,,,,,,,,,,,,,,,,,,,,,,,,,,
,,001,2022-04-29_03h15.35.121,classification_task,2021.2.3,Win32,60.17933442,617443d40390c953861e8311,626b377229c10585ec392f8a,626b3a2d99dbc72395e11a51,,,,,,,,,,,,,,,,,,,,,,,l,1,1.3969,"[""0.571"",""0.268"",""0.657"",""0.750""]","[0,1,1,1]",0,59,59,59,1,1,1,,,0,FALSE,,,,,,,,,,,,,,,,,,,,,,,,,,,,,,
,,001,2022-04-29_03h15.35.121,classification_task,2021.2.3,Win32,60.17933442,617443d40390c953861e8311,626b377229c10585ec392f8a,626b3a2d99dbc72395e11a51,,,,,,,,,,,,,,,,,,,,,,,l,1,1.7246,"[""0.055"",""0.406"",""0.478"",""0.115""]","[1,1,1,0]",0,60,60,60,1,1,0,,,0,FALSE,,,,,,,,,,,,,,,,,,,,,,,,,,,,,,
,,001,2022-04-29_03h15.35.121,classification_task,2021.2.3,Win32,60.17933442,617443d40390c953861e8311,626b377229c10585ec392f8a,626b3a2d99dbc72395e11a51,,,,,,,,,,,,,,,,,,,,,,,a,1,1.1564,"[""0.311"",""0.090"",""0.891"",""0.926""]","[1,0,1,1]",0,61,61,61,1,0,1,,,0,FALSE,,,,,,,,,,,,,,,,,,,,,,,,,,,,,,
,,001,2022-04-29_03h15.35.121,classification_task,2021.2.3,Win32,60.17933442,617443d40390c953861e8311,626b377229c10585ec392f8a,626b3a2d99dbc72395e11a51,,,,,,,,,,,,,,,,,,,,,,,l,1,0.9146,"[""0.151"",""0.268"",""0.657"",""0.186""]","[1,1,1,0]",0,62,62,62,1,1,1,,,0,FALSE,,,,,,,,,,,,,,,,,,,,,,,,,,,,,,
,,001,2022-04-29_03h15.35.121,classification_task,2021.2.3,Win32,60.17933442,617443d40390c953861e8311,626b377229c10585ec392f8a,626b3a2d99dbc72395e11a51,,,,,,,,,,,,,,,,,,,,,,,a,1,1.313,"[""0.220"",""0.535"",""0.698"",""0.968""]","[1,1,0,1]",0,63,63,63,1,0,0,,,0,FALSE,,,,,,,,,,,,,,,,,,,,,,,,,,,,,,
,,001,2022-04-29_03h15.35.121,classification_task,2021.2.3,Win32,60.17933442,617443d40390c953861e8311,626b377229c10585ec392f8a,626b3a2d99dbc72395e11a51,,,,,,,,,,,,,,,,,,,,,,,,,,,,,,,,,,,,,,,0, ,,0,7.239032187,433.0694,0,0,0,0,1,2,1,,,,,,,,,,,,,,,,,
,,001,2022-04-29_03h15.35.121,classification_task,2021.2.3,Win32,60.17933442,617443d40390c953861e8311,626b377229c10585ec392f8a,626b3a2d99dbc72395e11a51,,,,,,,,,,,,,,,,,,,,,,,,,,,,,,,,,,,,,,,1,  ,,0,10,437.8615,0,0,0,0,1,2,1,,,,,,,,,,,,,,,,,
,,001,2022-04-29_03h15.35.121,classification_task,2021.2.3,Win32,60.17933442,617443d40390c953861e8311,626b377229c10585ec392f8a,626b3a2d99dbc72395e11a51,,,,,,,,,,,,,,,,,,,,,,,,,,,,,,,,,,,,,,,2,  ,,0,10,446.6906,0,0,0,0,1,2,1,,,,,,,,,,,,,,,,,
,,001,2022-04-29_03h15.35.121,classification_task,2021.2.3,Win32,60.17933442,617443d40390c953861e8311,626b377229c10585ec392f8a,626b3a2d99dbc72395e11a51,,,,,,,,,,,,,,,,,,,,,,,,,,,,,,,,,,,,,,,,,,,,,0,0,0,0,1,,1,,,,,,,,,,,,,,,,,
,,001,2022-04-29_03h15.35.121,classification_task,2021.2.3,Win32,60.17933442,617443d40390c953861e8311,626b377229c10585ec392f8a,626b3a2d99dbc72395e11a51,,,,,,,,,,,,,,,,,,,,,space,8.2186,l,1,5.2805,"[""0.055"",""0.406"",""0.478"",""0.090""]","[1,1,1,0]",0,0,0,0,1,1,0,,,0,FALSE,,,,,,,,,,,,,,,,,,,,,,,,,,,,,,
,,001,2022-04-29_03h15.35.121,classification_task,2021.2.3,Win32,60.17933442,617443d40390c953861e8311,626b377229c10585ec392f8a,626b3a2d99dbc72395e11a51,,,,,,,,,,,,,,,,,,,,,,,a,1,2.9311,"[""0.345"",""0.442"",""0.891"",""0.926""]","[0,1,1,1]",0,1,1,1,1,0,1,,,0,FALSE,,,,,,,,,,,,,,,,,,,,,,,,,,,,,,
,,001,2022-04-29_03h15.35.121,classification_task,2021.2.3,Win32,60.17933442,617443d40390c953861e8311,626b377229c10585ec392f8a,626b3a2d99dbc72395e11a51,,,,,,,,,,,,,,,,,,,,,,,a,1,1.4119,"[""0.311"",""0.442"",""0.347"",""0.926""]","[1,1,0,1]",0,2,2,2,1,0,1,,,0,FALSE,,,,,,,,,,,,,,,,,,,,,,,,,,,,,,
,,001,2022-04-29_03h15.35.121,classification_task,2021.2.3,Win32,60.17933442,617443d40390c953861e8311,626b377229c10585ec392f8a,626b3a2d99dbc72395e11a51,,,,,,,,,,,,,,,,,,,,,,,a,1,3.5728,"[""0.345"",""0.535"",""0.616"",""0.968""]","[0,1,1,1]",0,3,3,3,1,0,0,,,0,FALSE,,,,,,,,,,,,,,,,,,,,,,,,,,,,,,
,,001,2022-04-29_03h15.35.121,classification_task,2021.2.3,Win32,60.17933442,617443d40390c953861e8311,626b377229c10585ec392f8a,626b3a2d99dbc72395e11a51,,,,,,,,,,,,,,,,,,,,,,,a,0,1.7778,"[""0.151"",""0.698"",""0.657"",""0.750""]","[1,0,1,1]",0,4,4,4,1,1,1,,,0,FALSE,,,,,,,,,,,,,,,,,,,,,,,,,,,,,,
,,001,2022-04-29_03h15.35.121,classification_task,2021.2.3,Win32,60.17933442,617443d40390c953861e8311,626b377229c10585ec392f8a,626b3a2d99dbc72395e11a51,,,,,,,,,,,,,,,,,,,,,,,a,1,2.5535,"[""0.220"",""0.714"",""0.616"",""0.968""]","[1,0,1,1]",0,5,5,5,1,0,0,,,0,FALSE,,,,,,,,,,,,,,,,,,,,,,,,,,,,,,
,,001,2022-04-29_03h15.35.121,classification_task,2021.2.3,Win32,60.17933442,617443d40390c953861e8311,626b377229c10585ec392f8a,626b3a2d99dbc72395e11a51,,,,,,,,,,,,,,,,,,,,,,,l,1,0.683,"[""0.796"",""0.268"",""0.657"",""0.750""]","[0,1,1,1]",0,6,6,6,1,1,1,,,0,FALSE,,,,,,,,,,,,,,,,,,,,,,,,,,,,,,
,,001,2022-04-29_03h15.35.121,classification_task,2021.2.3,Win32,60.17933442,617443d40390c953861e8311,626b377229c10585ec392f8a,626b3a2d99dbc72395e11a51,,,,,,,,,,,,,,,,,,,,,,,l,1,1.241,"[""0.055"",""0.090"",""0.478"",""0.837""]","[1,0,1,1]",0,7,7,7,1,1,0,,,0,FALSE,,,,,,,,,,,,,,,,,,,,,,,,,,,,,,
,,001,2022-04-29_03h15.35.121,classification_task,2021.2.3,Win32,60.17933442,617443d40390c953861e8311,626b377229c10585ec392f8a,626b3a2d99dbc72395e11a51,,,,,,,,,,,,,,,,,,,,,,,l,1,1.487,"[""0.055"",""0.406"",""0.186"",""0.837""]","[1,1,0,1]",0,8,8,8,1,1,0,,,0,FALSE,,,,,,,,,,,,,,,,,,,,,,,,,,,,,,
,,001,2022-04-29_03h15.35.121,classification_task,2021.2.3,Win32,60.17933442,617443d40390c953861e8311,626b377229c10585ec392f8a,626b3a2d99dbc72395e11a51,,,,,,,,,,,,,,,,,,,,,,,a,1,2.0167,"[""0.311"",""0.345"",""0.891"",""0.926""]","[1,0,1,1]",0,9,9,9,1,0,1,,,0,FALSE,,,,,,,,,,,,,,,,,,,,,,,,,,,,,,
,,001,2022-04-29_03h15.35.121,classification_task,2021.2.3,Win32,60.17933442,617443d40390c953861e8311,626b377229c10585ec392f8a,626b3a2d99dbc72395e11a51,,,,,,,,,,,,,,,,,,,,,,,a,1,1.1606,"[""0.220"",""0.535"",""0.095"",""0.968""]","[1,1,0,1]",0,10,10,10,1,0,0,,,0,FALSE,,,,,,,,,,,,,,,,,,,,,,,,,,,,,,
,,001,2022-04-29_03h15.35.121,classification_task,2021.2.3,Win32,60.17933442,617443d40390c953861e8311,626b377229c10585ec392f8a,626b3a2d99dbc72395e11a51,,,,,,,,,,,,,,,,,,,,,,,l,1,1.3985,"[""0.151"",""0.268"",""0.657"",""0.714""]","[1,1,1,0]",0,11,11,11,1,1,1,,,0,FALSE,,,,,,,,,,,,,,,,,,,,,,,,,,,,,,
,,001,2022-04-29_03h15.35.121,classification_task,2021.2.3,Win32,60.17933442,617443d40390c953861e8311,626b377229c10585ec392f8a,626b3a2d99dbc72395e11a51,,,,,,,,,,,,,,,,,,,,,,,l,1,1.304,"[""0.796"",""0.406"",""0.478"",""0.837""]","[0,1,1,1]",0,12,12,12,1,1,0,,,0,FALSE,,,,,,,,,,,,,,,,,,,,,,,,,,,,,,
,,001,2022-04-29_03h15.35.121,classification_task,2021.2.3,Win32,60.17933442,617443d40390c953861e8311,626b377229c10585ec392f8a,626b3a2d99dbc72395e11a51,,,,,,,,,,,,,,,,,,,,,,,a,0,1.9862,"[""0.151"",""0.268"",""0.347"",""0.750""]","[1,1,0,1]",0,13,13,13,1,1,1,,,0,FALSE,,,,,,,,,,,,,,,,,,,,,,,,,,,,,,
,,001,2022-04-29_03h15.35.121,classification_task,2021.2.3,Win32,60.17933442,617443d40390c953861e8311,626b377229c10585ec392f8a,626b3a2d99dbc72395e11a51,,,,,,,,,,,,,,,,,,,,,,,a,1,1.0042,"[""0.220"",""0.535"",""0.616"",""0.095""]","[1,1,1,0]",0,14,14,14,1,0,0,,,0,FALSE,,,,,,,,,,,,,,,,,,,,,,,,,,,,,,
,,001,2022-04-29_03h15.35.121,classification_task,2021.2.3,Win32,60.17933442,617443d40390c953861e8311,626b377229c10585ec392f8a,626b3a2d99dbc72395e11a51,,,,,,,,,,,,,,,,,,,,,,,l,0,1.1518,"[""0.311"",""0.442"",""0.891"",""0.796""]","[1,1,1,0]",0,15,15,15,1,0,1,,,0,FALSE,,,,,,,,,,,,,,,,,,,,,,,,,,,,,,
,,001,2022-04-29_03h15.35.121,classification_task,2021.2.3,Win32,60.17933442,617443d40390c953861e8311,626b377229c10585ec392f8a,626b3a2d99dbc72395e11a51,,,,,,,,,,,,,,,,,,,,,,,a,1,1.1352,"[""0.220"",""0.535"",""0.796"",""0.968""]","[1,1,0,1]",0,16,16,16,1,0,0,,,0,FALSE,,,,,,,,,,,,,,,,,,,,,,,,,,,,,,
,,001,2022-04-29_03h15.35.121,classification_task,2021.2.3,Win32,60.17933442,617443d40390c953861e8311,626b377229c10585ec392f8a,626b3a2d99dbc72395e11a51,,,,,,,,,,,,,,,,,,,,,,,l,1,0.9849,"[""0.055"",""0.714"",""0.478"",""0.837""]","[1,0,1,1]",0,17,17,17,1,1,0,,,0,FALSE,,,,,,,,,,,,,,,,,,,,,,,,,,,,,,
,,001,2022-04-29_03h15.35.121,classification_task,2021.2.3,Win32,60.17933442,617443d40390c953861e8311,626b377229c10585ec392f8a,626b3a2d99dbc72395e11a51,,,,,,,,,,,,,,,,,,,,,,,a,0,1.4642,"[""0.090"",""0.268"",""0.657"",""0.750""]","[0,1,1,1]",0,18,18,18,1,1,1,,,0,FALSE,,,,,,,,,,,,,,,,,,,,,,,,,,,,,,
,,001,2022-04-29_03h15.35.121,classification_task,2021.2.3,Win32,60.17933442,617443d40390c953861e8311,626b377229c10585ec392f8a,626b3a2d99dbc72395e11a51,,,,,,,,,,,,,,,,,,,,,,,l,0,1.4653,"[""0.311"",""0.442"",""0.891"",""0.698""]","[1,1,1,0]",0,19,19,19,1,0,1,,,0,FALSE,,,,,,,,,,,,,,,,,,,,,,,,,,,,,,
,,001,2022-04-29_03h15.35.121,classification_task,2021.2.3,Win32,60.17933442,617443d40390c953861e8311,626b377229c10585ec392f8a,626b3a2d99dbc72395e11a51,,,,,,,,,,,,,,,,,,,,,,,a,1,1.113,"[""0.220"",""0.571"",""0.616"",""0.968""]","[1,0,1,1]",0,20,20,20,1,0,0,,,0,FALSE,,,,,,,,,,,,,,,,,,,,,,,,,,,,,,
,,001,2022-04-29_03h15.35.121,classification_task,2021.2.3,Win32,60.17933442,617443d40390c953861e8311,626b377229c10585ec392f8a,626b3a2d99dbc72395e11a51,,,,,,,,,,,,,,,,,,,,,,,a,1,1.1699,"[""0.220"",""0.535"",""0.616"",""0.186""]","[1,1,1,0]",0,21,21,21,1,0,0,,,0,FALSE,,,,,,,,,,,,,,,,,,,,,,,,,,,,,,
,,001,2022-04-29_03h15.35.121,classification_task,2021.2.3,Win32,60.17933442,617443d40390c953861e8311,626b377229c10585ec392f8a,626b3a2d99dbc72395e11a51,,,,,,,,,,,,,,,,,,,,,,,a,1,4.4549,"[""0.311"",""0.090"",""0.891"",""0.926""]","[1,0,1,1]",0,22,22,22,1,0,1,,,0,FALSE,,,,,,,,,,,,,,,,,,,,,,,,,,,,,,
,,001,2022-04-29_03h15.35.121,classification_task,2021.2.3,Win32,60.17933442,617443d40390c953861e8311,626b377229c10585ec392f8a,626b3a2d99dbc72395e11a51,,,,,,,,,,,,,,,,,,,,,,,l,1,0.8793,"[""0.055"",""0.406"",""0.478"",""0.090""]","[1,1,1,0]",0,23,23,23,1,1,0,,,0,FALSE,,,,,,,,,,,,,,,,,,,,,,,,,,,,,,
,,001,2022-04-29_03h15.35.121,classification_task,2021.2.3,Win32,60.17933442,617443d40390c953861e8311,626b377229c10585ec392f8a,626b3a2d99dbc72395e11a51,,,,,,,,,,,,,,,,,,,,,,,l,1,0.907,"[""0.115"",""0.406"",""0.478"",""0.837""]","[0,1,1,1]",0,24,24,24,1,1,0,,,0,FALSE,,,,,,,,,,,,,,,,,,,,,,,,,,,,,,
,,001,2022-04-29_03h15.35.121,classification_task,2021.2.3,Win32,60.17933442,617443d40390c953861e8311,626b377229c10585ec392f8a,626b3a2d99dbc72395e11a51,,,,,,,,,,,,,,,,,,,,,,,a,1,1.2631,"[""0.792"",""0.535"",""0.616"",""0.968""]","[0,1,1,1]",0,25,25,25,1,0,0,,,0,FALSE,,,,,,,,,,,,,,,,,,,,,,,,,,,,,,
,,001,2022-04-29_03h15.35.121,classification_task,2021.2.3,Win32,60.17933442,617443d40390c953861e8311,626b377229c10585ec392f8a,626b3a2d99dbc72395e11a51,,,,,,,,,,,,,,,,,,,,,,,a,1,1.412,"[""0.090"",""0.442"",""0.891"",""0.926""]","[0,1,1,1]",0,26,26,26,1,0,1,,,0,FALSE,,,,,,,,,,,,,,,,,,,,,,,,,,,,,,
,,001,2022-04-29_03h15.35.121,classification_task,2021.2.3,Win32,60.17933442,617443d40390c953861e8311,626b377229c10585ec392f8a,626b3a2d99dbc72395e11a51,,,,,,,,,,,,,,,,,,,,,,,l,1,1.5454,"[""0.055"",""0.406"",""0.799"",""0.837""]","[1,1,0,1]",0,27,27,27,1,1,0,,,0,FALSE,,,,,,,,,,,,,,,,,,,,,,,,,,,,,,
,,001,2022-04-29_03h15.35.121,classification_task,2021.2.3,Win32,60.17933442,617443d40390c953861e8311,626b377229c10585ec392f8a,626b3a2d99dbc72395e11a51,,,,,,,,,,,,,,,,,,,,,,,a,1,1.4333,"[""0.311"",""0.442"",""0.698"",""0.926""]","[1,1,0,1]",0,28,28,28,1,0,1,,,0,FALSE,,,,,,,,,,,,,,,,,,,,,,,,,,,,,,
,,001,2022-04-29_03h15.35.121,classification_task,2021.2.3,Win32,60.17933442,617443d40390c953861e8311,626b377229c10585ec392f8a,626b3a2d99dbc72395e11a51,,,,,,,,,,,,,,,,,,,,,,,l,1,1.2391,"[""0.151"",""0.268"",""0.657"",""0.792""]","[1,1,1,0]",0,29,29,29,1,1,1,,,0,FALSE,,,,,,,,,,,,,,,,,,,,,,,,,,,,,,
,,001,2022-04-29_03h15.35.121,classification_task,2021.2.3,Win32,60.17933442,617443d40390c953861e8311,626b377229c10585ec392f8a,626b3a2d99dbc72395e11a51,,,,,,,,,,,,,,,,,,,,,,,a,0,1.5111,"[""0.151"",""0.571"",""0.657"",""0.750""]","[1,0,1,1]",0,30,30,30,1,1,1,,,0,FALSE,,,,,,,,,,,,,,,,,,,,,,,,,,,,,,
,,001,2022-04-29_03h15.35.121,classification_task,2021.2.3,Win32,60.17933442,617443d40390c953861e8311,626b377229c10585ec392f8a,626b3a2d99dbc72395e11a51,,,,,,,,,,,,,,,,,,,,,,,l,1,1.3537,"[""0.151"",""0.268"",""0.345"",""0.750""]","[1,1,0,1]",0,31,31,31,1,1,1,,,0,FALSE,,,,,,,,,,,,,,,,,,,,,,,,,,,,,,
,,001,2022-04-29_03h15.35.121,classification_task,2021.2.3,Win32,60.17933442,617443d40390c953861e8311,626b377229c10585ec392f8a,626b3a2d99dbc72395e11a51,,,,,,,,,,,,,,,,,,,,,,,l,1,1.3421,"[""0.698"",""0.406"",""0.478"",""0.837""]","[0,1,1,1]",0,32,32,32,1,1,0,,,0,FALSE,,,,,,,,,,,,,,,,,,,,,,,,,,,,,,
,,001,2022-04-29_03h15.35.121,classification_task,2021.2.3,Win32,60.17933442,617443d40390c953861e8311,626b377229c10585ec392f8a,626b3a2d99dbc72395e11a51,,,,,,,,,,,,,,,,,,,,,,,l,1,0.8254,"[""0.055"",""0.115"",""0.478"",""0.837""]","[1,0,1,1]",0,33,33,33,1,1,0,,,0,FALSE,,,,,,,,,,,,,,,,,,,,,,,,,,,,,,
,,001,2022-04-29_03h15.35.121,classification_task,2021.2.3,Win32,60.17933442,617443d40390c953861e8311,626b377229c10585ec392f8a,626b3a2d99dbc72395e11a51,,,,,,,,,,,,,,,,,,,,,,,a,0,1.3102,"[""0.151"",""0.268"",""0.657"",""0.347""]","[1,1,1,0]",0,34,34,34,1,1,1,,,0,FALSE,,,,,,,,,,,,,,,,,,,,,,,,,,,,,,
,,001,2022-04-29_03h15.35.121,classification_task,2021.2.3,Win32,60.17933442,617443d40390c953861e8311,626b377229c10585ec392f8a,626b3a2d99dbc72395e11a51,,,,,,,,,,,,,,,,,,,,,,,a,1,0.93,"[""0.220"",""0.109"",""0.616"",""0.968""]","[1,0,1,1]",0,35,35,35,1,0,0,,,0,FALSE,,,,,,,,,,,,,,,,,,,,,,,,,,,,,,
,,001,2022-04-29_03h15.35.121,classification_task,2021.2.3,Win32,60.17933442,617443d40390c953861e8311,626b377229c10585ec392f8a,626b3a2d99dbc72395e11a51,,,,,,,,,,,,,,,,,,,,,,,l,0,1.1101,"[""0.311"",""0.442"",""0.109"",""0.926""]","[1,1,0,1]",0,36,36,36,1,0,1,,,0,FALSE,,,,,,,,,,,,,,,,,,,,,,,,,,,,,,
,,001,2022-04-29_03h15.35.121,classification_task,2021.2.3,Win32,60.17933442,617443d40390c953861e8311,626b377229c10585ec392f8a,626b3a2d99dbc72395e11a51,,,,,,,,,,,,,,,,,,,,,,,l,1,1.8374,"[""0.151"",""0.109"",""0.657"",""0.750""]","[1,0,1,1]",0,37,37,37,1,1,1,,,0,FALSE,,,,,,,,,,,,,,,,,,,,,,,,,,,,,,
,,001,2022-04-29_03h15.35.121,classification_task,2021.2.3,Win32,60.17933442,617443d40390c953861e8311,626b377229c10585ec392f8a,626b3a2d99dbc72395e11a51,,,,,,,,,,,,,,,,,,,,,,,a,1,1.0473,"[""0.311"",""0.442"",""0.891"",""0.115""]","[1,1,1,0]",0,38,38,38,1,0,1,,,0,FALSE,,,,,,,,,,,,,,,,,,,,,,,,,,,,,,
,,001,2022-04-29_03h15.35.121,classification_task,2021.2.3,Win32,60.17933442,617443d40390c953861e8311,626b377229c10585ec392f8a,626b3a2d99dbc72395e11a51,,,,,,,,,,,,,,,,,,,,,,,a,1,0.9766,"[""0.581"",""0.535"",""0.616"",""0.968""]","[0,1,1,1]",0,39,39,39,1,0,0,,,0,FALSE,,,,,,,,,,,,,,,,,,,,,,,,,,,,,,
,,001,2022-04-29_03h15.35.121,classification_task,2021.2.3,Win32,60.17933442,617443d40390c953861e8311,626b377229c10585ec392f8a,626b3a2d99dbc72395e11a51,,,,,,,,,,,,,,,,,,,,,,,a,1,0.9834,"[""0.220"",""0.535"",""0.799"",""0.968""]","[1,1,0,1]",0,40,40,40,1,0,0,,,0,FALSE,,,,,,,,,,,,,,,,,,,,,,,,,,,,,,
,,001,2022-04-29_03h15.35.121,classification_task,2021.2.3,Win32,60.17933442,617443d40390c953861e8311,626b377229c10585ec392f8a,626b3a2d99dbc72395e11a51,,,,,,,,,,,,,,,,,,,,,,,l,0,1.0167,"[""0.311"",""0.348"",""0.891"",""0.926""]","[1,0,1,1]",0,41,41,41,1,0,1,,,0,FALSE,,,,,,,,,,,,,,,,,,,,,,,,,,,,,,
,,001,2022-04-29_03h15.35.121,classification_task,2021.2.3,Win32,60.17933442,617443d40390c953861e8311,626b377229c10585ec392f8a,626b3a2d99dbc72395e11a51,,,,,,,,,,,,,,,,,,,,,,,l,1,0.6256,"[""0.055"",""0.406"",""0.478"",""0.571""]","[1,1,1,0]",0,42,42,42,1,1,0,,,0,FALSE,,,,,,,,,,,,,,,,,,,,,,,,,,,,,,
,,001,2022-04-29_03h15.35.121,classification_task,2021.2.3,Win32,60.17933442,617443d40390c953861e8311,626b377229c10585ec392f8a,626b3a2d99dbc72395e11a51,,,,,,,,,,,,,,,,,,,,,,,l,1,0.8286,"[""0.055"",""0.406"",""0.571"",""0.837""]","[1,1,0,1]",0,43,43,43,1,1,0,,,0,FALSE,,,,,,,,,,,,,,,,,,,,,,,,,,,,,,
,,001,2022-04-29_03h15.35.121,classification_task,2021.2.3,Win32,60.17933442,617443d40390c953861e8311,626b377229c10585ec392f8a,626b3a2d99dbc72395e11a51,,,,,,,,,,,,,,,,,,,,,,,l,0,0.8928,"[""0.186"",""0.442"",""0.891"",""0.926""]","[0,1,1,1]",0,44,44,44,1,0,1,,,0,FALSE,,,,,,,,,,,,,,,,,,,,,,,,,,,,,,
,,001,2022-04-29_03h15.35.121,classification_task,2021.2.3,Win32,60.17933442,617443d40390c953861e8311,626b377229c10585ec392f8a,626b3a2d99dbc72395e11a51,,,,,,,,,,,,,,,,,,,,,,,a,1,0.8008,"[""0.220"",""0.535"",""0.616"",""0.581""]","[1,1,1,0]",0,45,45,45,1,0,0,,,0,FALSE,,,,,,,,,,,,,,,,,,,,,,,,,,,,,,
,,001,2022-04-29_03h15.35.121,classification_task,2021.2.3,Win32,60.17933442,617443d40390c953861e8311,626b377229c10585ec392f8a,626b3a2d99dbc72395e11a51,,,,,,,,,,,,,,,,,,,,,,,l,1,1.1568,"[""0.151"",""0.268"",""0.348"",""0.750""]","[1,1,0,1]",0,46,46,46,1,1,1,,,0,FALSE,,,,,,,,,,,,,,,,,,,,,,,,,,,,,,
,,001,2022-04-29_03h15.35.121,classification_task,2021.2.3,Win32,60.17933442,617443d40390c953861e8311,626b377229c10585ec392f8a,626b3a2d99dbc72395e11a51,,,,,,,,,,,,,,,,,,,,,,,l,1,1.9575,"[""0.095"",""0.268"",""0.657"",""0.750""]","[0,1,1,1]",0,47,47,47,1,1,1,,,0,FALSE,,,,,,,,,,,,,,,,,,,,,,,,,,,,,,
,,001,2022-04-29_03h15.35.121,classification_task,2021.2.3,Win32,60.17933442,617443d40390c953861e8311,626b377229c10585ec392f8a,626b3a2d99dbc72395e11a51,,,,,,,,,,,,,,,,,,,,,,,a,0,1.2799,"[""0.151"",""0.268"",""0.657"",""0.799""]","[1,1,1,0]",0,48,48,48,1,1,1,,,0,FALSE,,,,,,,,,,,,,,,,,,,,,,,,,,,,,,
,,001,2022-04-29_03h15.35.121,classification_task,2021.2.3,Win32,60.17933442,617443d40390c953861e8311,626b377229c10585ec392f8a,626b3a2d99dbc72395e11a51,,,,,,,,,,,,,,,,,,,,,,,a,1,0.7067,"[""0.220"",""0.535"",""0.799"",""0.968""]","[1,1,0,1]",0,49,49,49,1,0,0,,,0,FALSE,,,,,,,,,,,,,,,,,,,,,,,,,,,,,,
,,001,2022-04-29_03h15.35.121,classification_task,2021.2.3,Win32,60.17933442,617443d40390c953861e8311,626b377229c10585ec392f8a,626b3a2d99dbc72395e11a51,,,,,,,,,,,,,,,,,,,,,,,l,1,1.1916,"[""0.055"",""0.406"",""0.478"",""0.109""]","[1,1,1,0]",0,50,50,50,1,1,0,,,0,FALSE,,,,,,,,,,,,,,,,,,,,,,,,,,,,,,
,,001,2022-04-29_03h15.35.121,classification_task,2021.2.3,Win32,60.17933442,617443d40390c953861e8311,626b377229c10585ec392f8a,626b3a2d99dbc72395e11a51,,,,,,,,,,,,,,,,,,,,,,,a,1,1.198,"[""0.311"",""0.442"",""0.581"",""0.926""]","[1,1,0,1]",0,51,51,51,1,0,1,,,0,FALSE,,,,,,,,,,,,,,,,,,,,,,,,,,,,,,
,,001,2022-04-29_03h15.35.121,classification_task,2021.2.3,Win32,60.17933442,617443d40390c953861e8311,626b377229c10585ec392f8a,626b3a2d99dbc72395e11a51,,,,,,,,,,,,,,,,,,,,,,,a,1,1.2523,"[""0.311"",""0.442"",""0.891"",""0.799""]","[1,1,1,0]",0,52,52,52,1,0,1,,,0,FALSE,,,,,,,,,,,,,,,,,,,,,,,,,,,,,,
,,001,2022-04-29_03h15.35.121,classification_task,2021.2.3,Win32,60.17933442,617443d40390c953861e8311,626b377229c10585ec392f8a,626b3a2d99dbc72395e11a51,,,,,,,,,,,,,,,,,,,,,,,a,1,0.9219,"[""0.220"",""0.090"",""0.616"",""0.968""]","[1,0,1,1]",0,53,53,53,1,0,0,,,0,FALSE,,,,,,,,,,,,,,,,,,,,,,,,,,,,,,
,,001,2022-04-29_03h15.35.121,classification_task,2021.2.3,Win32,60.17933442,617443d40390c953861e8311,626b377229c10585ec392f8a,626b3a2d99dbc72395e11a51,,,,,,,,,,,,,,,,,,,,,,,l,1,0.6125,"[""0.345"",""0.406"",""0.478"",""0.837""]","[0,1,1,1]",0,54,54,54,1,1,0,,,0,FALSE,,,,,,,,,,,,,,,,,,,,,,,,,,,,,,
,,001,2022-04-29_03h15.35.121,classification_task,2021.2.3,Win32,60.17933442,617443d40390c953861e8311,626b377229c10585ec392f8a,626b3a2d99dbc72395e11a51,,,,,,,,,,,,,,,,,,,,,,,l,1,1.1493,"[""0.151"",""0.698"",""0.657"",""0.750""]","[1,0,1,1]",0,55,55,55,1,1,1,,,0,FALSE,,,,,,,,,,,,,,,,,,,,,,,,,,,,,,
,,001,2022-04-29_03h15.35.121,classification_task,2021.2.3,Win32,60.17933442,617443d40390c953861e8311,626b377229c10585ec392f8a,626b3a2d99dbc72395e11a51,,,,,,,,,,,,,,,,,,,,,,,l,1,0.9456,"[""0.345"",""0.268"",""0.657"",""0.750""]","[0,1,1,1]",0,56,56,56,1,1,1,,,0,FALSE,,,,,,,,,,,,,,,,,,,,,,,,,,,,,,
,,001,2022-04-29_03h15.35.121,classification_task,2021.2.3,Win32,60.17933442,617443d40390c953861e8311,626b377229c10585ec392f8a,626b3a2d99dbc72395e11a51,,,,,,,,,,,,,,,,,,,,,,,a,0,1.117,"[""0.151"",""0.268"",""0.347"",""0.750""]","[1,1,0,1]",0,57,57,57,1,1,1,,,0,FALSE,,,,,,,,,,,,,,,,,,,,,,,,,,,,,,
,,001,2022-04-29_03h15.35.121,classification_task,2021.2.3,Win32,60.17933442,617443d40390c953861e8311,626b377229c10585ec392f8a,626b3a2d99dbc72395e11a51,,,,,,,,,,,,,,,,,,,,,,,a,1,1.1087,"[""0.311"",""0.714"",""0.891"",""0.926""]","[1,0,1,1]",0,58,58,58,1,0,1,,,0,FALSE,,,,,,,,,,,,,,,,,,,,,,,,,,,,,,
,,001,2022-04-29_03h15.35.121,classification_task,2021.2.3,Win32,60.17933442,617443d40390c953861e8311,626b377229c10585ec392f8a,626b3a2d99dbc72395e11a51,,,,,,,,,,,,,,,,,,,,,,,l,1,1.1592,"[""0.055"",""0.348"",""0.478"",""0.837""]","[1,0,1,1]",0,59,59,59,1,1,0,,,0,FALSE,,,,,,,,,,,,,,,,,,,,,,,,,,,,,,
,,001,2022-04-29_03h15.35.121,classification_task,2021.2.3,Win32,60.17933442,617443d40390c953861e8311,626b377229c10585ec392f8a,626b3a2d99dbc72395e11a51,,,,,,,,,,,,,,,,,,,,,,,l,1,1.1411,"[""0.055"",""0.406"",""0.714"",""0.837""]","[1,1,0,1]",0,60,60,60,1,1,0,,,0,FALSE,,,,,,,,,,,,,,,,,,,,,,,,,,,,,,
,,001,2022-04-29_03h15.35.121,classification_task,2021.2.3,Win32,60.17933442,617443d40390c953861e8311,626b377229c10585ec392f8a,626b3a2d99dbc72395e11a51,,,,,,,,,,,,,,,,,,,,,,,a,1,1.4828,"[""0.698"",""0.442"",""0.891"",""0.926""]","[0,1,1,1]",0,61,61,61,1,0,1,,,0,FALSE,,,,,,,,,,,,,,,,,,,,,,,,,,,,,,
,,001,2022-04-29_03h15.35.121,classification_task,2021.2.3,Win32,60.17933442,617443d40390c953861e8311,626b377229c10585ec392f8a,626b3a2d99dbc72395e11a51,,,,,,,,,,,,,,,,,,,,,,,a,1,0.9913,"[""0.090"",""0.535"",""0.616"",""0.968""]","[0,1,1,1]",0,62,62,62,1,0,0,,,0,FALSE,,,,,,,,,,,,,,,,,,,,,,,,,,,,,,
,,001,2022-04-29_03h15.35.121,classification_task,2021.2.3,Win32,60.17933442,617443d40390c953861e8311,626b377229c10585ec392f8a,626b3a2d99dbc72395e11a51,,,,,,,,,,,,,,,,,,,,,,,a,1,1.1731,"[""0.220"",""0.535"",""0.616"",""0.796""]","[1,1,1,0]",0,63,63,63,1,0,0,,,0,FALSE,,,,,,,,,,,,,,,,,,,,,,,,,,,,,,
,,001,2022-04-29_03h15.35.121,classification_task,2021.2.3,Win32,60.17933442,617443d40390c953861e8311,626b377229c10585ec392f8a,626b3a2d99dbc72395e11a51,,,,,,,,,,,,,,,,,,,,,,,,,,,,,,,,,,,,,,,0, ,,0,3.070987654,181.3621,0,1,1,1,1,2,2,,,,,,,,,,,,,,,,,
,,001,2022-04-29_03h15.35.121,classification_task,2021.2.3,Win32,60.17933442,617443d40390c953861e8311,626b377229c10585ec392f8a,626b3a2d99dbc72395e11a51,,,,,,,,,,,,,,,,,,,,,,,,,,,,,,,,,,,,,,,1,  ,,0,10,173.1319,0,1,1,1,1,2,2,,,,,,,,,,,,,,,,,
,,001,2022-04-29_03h15.35.121,classification_task,2021.2.3,Win32,60.17933442,617443d40390c953861e8311,626b377229c10585ec392f8a,626b3a2d99dbc72395e11a51,,,,,,,,,,,,,,,,,,,,,,,,,,,,,,,,,,,,,,,2,  ,,0,6.929012346,176.8845,0,1,1,1,1,2,2,,,,,,,,,,,,,,,,,
,,001,2022-04-29_03h15.35.121,classification_task,2021.2.3,Win32,60.17933442,617443d40390c953861e8311,626b377229c10585ec392f8a,626b3a2d99dbc72395e11a51,,,,,,,,,,,,,,,,,,,,,,,,,,,,,,,,,,,,,,,,,,,,,0,1,1,1,1,,2,,,,,,,,,,,,,,,,,
,,001,2022-04-29_03h15.35.121,classification_task,2021.2.3,Win32,60.17933442,617443d40390c953861e8311,626b377229c10585ec392f8a,626b3a2d99dbc72395e11a51,,,,,,,,,,,,,,,,,,,,,space,9.0291,a,1,3.1199,"[""0.115"",""0.535"",""0.616"",""0.968""]","[0,1,1,1]",0,0,0,0,1,0,0,,,0,FALSE,,,,,,,,,,,,,,,,,,,,,,,,,,,,,,
,,001,2022-04-29_03h15.35.121,classification_task,2021.2.3,Win32,60.17933442,617443d40390c953861e8311,626b377229c10585ec392f8a,626b3a2d99dbc72395e11a51,,,,,,,,,,,,,,,,,,,,,,,l,1,1.1474,"[""0.055"",""0.406"",""0.478"",""0.792""]","[1,1,1,0]",0,1,1,1,1,1,0,,,0,FALSE,,,,,,,,,,,,,,,,,,,,,,,,,,,,,,
,,001,2022-04-29_03h15.35.121,classification_task,2021.2.3,Win32,60.17933442,617443d40390c953861e8311,626b377229c10585ec392f8a,626b3a2d99dbc72395e11a51,,,,,,,,,,,,,,,,,,,,,,,l,1,1.1668,"[""0.055"",""0.799"",""0.478"",""0.837""]","[1,0,1,1]",0,2,2,2,1,1,0,,,0,FALSE,,,,,,,,,,,,,,,,,,,,,,,,,,,,,,
,,001,2022-04-29_03h15.35.121,classification_task,2021.2.3,Win32,60.17933442,617443d40390c953861e8311,626b377229c10585ec392f8a,626b3a2d99dbc72395e11a51,,,,,,,,,,,,,,,,,,,,,,,l,0,1.9771,"[""0.698"",""0.442"",""0.891"",""0.926""]","[0,1,1,1]",0,3,3,3,1,0,1,,,0,FALSE,,,,,,,,,,,,,,,,,,,,,,,,,,,,,,
,,001,2022-04-29_03h15.35.121,classification_task,2021.2.3,Win32,60.17933442,617443d40390c953861e8311,626b377229c10585ec392f8a,626b3a2d99dbc72395e11a51,,,,,,,,,,,,,,,,,,,,,,,a,0,1.0964,"[""0.714"",""0.406"",""0.478"",""0.837""]","[0,1,1,1]",0,4,4,4,1,1,0,,,0,FALSE,,,,,,,,,,,,,,,,,,,,,,,,,,,,,,
,,001,2022-04-29_03h15.35.121,classification_task,2021.2.3,Win32,60.17933442,617443d40390c953861e8311,626b377229c10585ec392f8a,626b3a2d99dbc72395e11a51,,,,,,,,,,,,,,,,,,,,,,,a,1,1.2426,"[""0.311"",""0.442"",""0.891"",""0.109""]","[1,1,1,0]",0,5,5,5,1,0,1,,,0,FALSE,,,,,,,,,,,,,,,,,,,,,,,,,,,,,,
,,001,2022-04-29_03h15.35.121,classification_task,2021.2.3,Win32,60.17933442,617443d40390c953861e8311,626b377229c10585ec392f8a,626b3a2d99dbc72395e11a51,,,,,,,,,,,,,,,,,,,,,,,l,1,0.903,"[""0.151"",""0.698"",""0.657"",""0.750""]","[1,0,1,1]",0,6,6,6,1,1,1,,,0,FALSE,,,,,,,,,,,,,,,,,,,,,,,,,,,,,,
,,001,2022-04-29_03h15.35.121,classification_task,2021.2.3,Win32,60.17933442,617443d40390c953861e8311,626b377229c10585ec392f8a,626b3a2d99dbc72395e11a51,,,,,,,,,,,,,,,,,,,,,,,l,1,1.2492,"[""0.151"",""0.268"",""0.345"",""0.750""]","[1,1,0,1]",0,7,7,7,1,1,1,,,0,FALSE,,,,,,,,,,,,,,,,,,,,,,,,,,,,,,
,,001,2022-04-29_03h15.35.121,classification_task,2021.2.3,Win32,60.17933442,617443d40390c953861e8311,626b377229c10585ec392f8a,626b3a2d99dbc72395e11a51,,,,,,,,,,,,,,,,,,,,,,,a,0,0.9511,"[""0.151"",""0.268"",""0.657"",""0.095""]","[1,1,1,0]",0,8,8,8,1,1,1,,,0,FALSE,,,,,,,,,,,,,,,,,,,,,,,,,,,,,,
,,001,2022-04-29_03h15.35.121,classification_task,2021.2.3,Win32,60.17933442,617443d40390c953861e8311,626b377229c10585ec392f8a,626b3a2d99dbc72395e11a51,,,,,,,,,,,,,,,,,,,,,,,l,0,2.0646,"[""0.220"",""0.535"",""0.616"",""0.186""]","[1,1,1,0]",0,9,9,9,1,0,0,,,0,FALSE,,,,,,,,,,,,,,,,,,,,,,,,,,,,,,
,,001,2022-04-29_03h15.35.121,classification_task,2021.2.3,Win32,60.17933442,617443d40390c953861e8311,626b377229c10585ec392f8a,626b3a2d99dbc72395e11a51,,,,,,,,,,,,,,,,,,,,,,,l,0,1.0949,"[""0.311"",""0.571"",""0.891"",""0.926""]","[1,0,1,1]",0,10,10,10,1,0,1,,,0,FALSE,,,,,,,,,,,,,,,,,,,,,,,,,,,,,,
,,001,2022-04-29_03h15.35.121,classification_task,2021.2.3,Win32,60.17933442,617443d40390c953861e8311,626b377229c10585ec392f8a,626b3a2d99dbc72395e11a51,,,,,,,,,,,,,,,,,,,,,,,a,1,1.8354,"[""0.220"",""0.186"",""0.616"",""0.968""]","[1,0,1,1]",0,11,11,11,1,0,0,,,0,FALSE,,,,,,,,,,,,,,,,,,,,,,,,,,,,,,
,,001,2022-04-29_03h15.35.121,classification_task,2021.2.3,Win32,60.17933442,617443d40390c953861e8311,626b377229c10585ec392f8a,626b3a2d99dbc72395e11a51,,,,,,,,,,,,,,,,,,,,,,,l,1,0.9304,"[""0.055"",""0.406"",""0.186"",""0.837""]","[1,1,0,1]",0,12,12,12,1,1,0,,,0,FALSE,,,,,,,,,,,,,,,,,,,,,,,,,,,,,,
,,001,2022-04-29_03h15.35.121,classification_task,2021.2.3,Win32,60.17933442,617443d40390c953861e8311,626b377229c10585ec392f8a,626b3a2d99dbc72395e11a51,,,,,,,,,,,,,,,,,,,,,,,a,1,0.9486,"[""0.220"",""0.535"",""0.345"",""0.968""]","[1,1,0,1]",0,13,13,13,1,0,0,,,0,FALSE,,,,,,,,,,,,,,,,,,,,,,,,,,,,,,
,,001,2022-04-29_03h15.35.121,classification_task,2021.2.3,Win32,60.17933442,617443d40390c953861e8311,626b377229c10585ec392f8a,626b3a2d99dbc72395e11a51,,,,,,,,,,,,,,,,,,,,,,,l,0,1.0544,"[""0.311"",""0.442"",""0.792"",""0.926""]","[1,1,0,1]",0,14,14,14,1,0,1,,,0,FALSE,,,,,,,,,,,,,,,,,,,,,,,,,,,,,,
,,001,2022-04-29_03h15.35.121,classification_task,2021.2.3,Win32,60.17933442,617443d40390c953861e8311,626b377229c10585ec392f8a,626b3a2d99dbc72395e11a51,,,,,,,,,,,,,,,,,,,,,,,l,1,0.6569,"[""0.345"",""0.268"",""0.657"",""0.750""]","[0,1,1,1]",0,15,15,15,1,1,1,,,0,FALSE,,,,,,,,,,,,,,,,,,,,,,,,,,,,,,
,,001,2022-04-29_03h15.35.121,classification_task,2021.2.3,Win32,60.17933442,617443d40390c953861e8311,626b377229c10585ec392f8a,626b3a2d99dbc72395e11a51,,,,,,,,,,,,,,,,,,,,,,,l,1,1.7849,"[""0.055"",""0.345"",""0.478"",""0.837""]","[1,0,1,1]",0,16,16,16,1,1,0,,,0,FALSE,,,,,,,,,,,,,,,,,,,,,,,,,,,,,,
,,001,2022-04-29_03h15.35.121,classification_task,2021.2.3,Win32,60.17933442,617443d40390c953861e8311,626b377229c10585ec392f8a,626b3a2d99dbc72395e11a51,,,,,,,,,,,,,,,,,,,,,,,a,1,1.8253,"[""0.220"",""0.347"",""0.616"",""0.968""]","[1,0,1,1]",0,17,17,17,1,0,0,,,0,FALSE,,,,,,,,,,,,,,,,,,,,,,,,,,,,,,
,,001,2022-04-29_03h15.35.121,classification_task,2021.2.3,Win32,60.17933442,617443d40390c953861e8311,626b377229c10585ec392f8a,626b3a2d99dbc72395e11a51,,,,,,,,,,,,,,,,,,,,,,,l,1,1.1658,"[""0.055"",""0.406"",""0.478"",""0.714""]","[1,1,1,0]",0,18,18,18,1,1,0,,,0,FALSE,,,,,,,,,,,,,,,,,,,,,,,,,,,,,,
,,001,2022-04-29_03h15.35.121,classification_task,2021.2.3,Win32,60.17933442,617443d40390c953861e8311,626b377229c10585ec392f8a,626b3a2d99dbc72395e11a51,,,,,,,,,,,,,,,,,,,,,,,a,0,1.0758,"[""0.151"",""0.109"",""0.657"",""0.750""]","[1,0,1,1]",0,19,19,19,1,1,1,,,0,FALSE,,,,,,,,,,,,,,,,,,,,,,,,,,,,,,
,,001,2022-04-29_03h15.35.121,classification_task,2021.2.3,Win32,60.17933442,617443d40390c953861e8311,626b377229c10585ec392f8a,626b3a2d99dbc72395e11a51,,,,,,,,,,,,,,,,,,,,,,,a,1,1.7704,"[""0.220"",""0.535"",""0.581"",""0.968""]","[1,1,0,1]",0,20,20,20,1,0,0,,,0,FALSE,,,,,,,,,,,,,,,,,,,,,,,,,,,,,,
,,001,2022-04-29_03h15.35.121,classification_task,2021.2.3,Win32,60.17933442,617443d40390c953861e8311,626b377229c10585ec392f8a,626b3a2d99dbc72395e11a51,,,,,,,,,,,,,,,,,,,,,,,l,1,1.2175,"[""0.151"",""0.268"",""0.347"",""0.750""]","[1,1,0,1]",0,21,21,21,1,1,1,,,0,FALSE,,,,,,,,,,,,,,,,,,,,,,,,,,,,,,
,,001,2022-04-29_03h15.35.121,classification_task,2021.2.3,Win32,60.17933442,617443d40390c953861e8311,626b377229c10585ec392f8a,626b3a2d99dbc72395e11a51,,,,,,,,,,,,,,,,,,,,,,,l,0,1.47,"[""0.311"",""0.698"",""0.891"",""0.926""]","[1,0,1,1]",0,22,22,22,1,0,1,,,0,FALSE,,,,,,,,,,,,,,,,,,,,,,,,,,,,,,
,,001,2022-04-29_03h15.35.121,classification_task,2021.2.3,Win32,60.17933442,617443d40390c953861e8311,626b377229c10585ec392f8a,626b3a2d99dbc72395e11a51,,,,,,,,,,,,,,,,,,,,,,,a,1,1.5699,"[""0.714"",""0.535"",""0.616"",""0.968""]","[0,1,1,1]",0,23,23,23,1,0,0,,,0,FALSE,,,,,,,,,,,,,,,,,,,,,,,,,,,,,,
,,001,2022-04-29_03h15.35.121,classification_task,2021.2.3,Win32,60.17933442,617443d40390c953861e8311,626b377229c10585ec392f8a,626b3a2d99dbc72395e11a51,,,,,,,,,,,,,,,,,,,,,,,a,0,1.0625,"[""0.186"",""0.406"",""0.478"",""0.837""]","[0,1,1,1]",0,24,24,24,1,1,0,,,0,FALSE,,,,,,,,,,,,,,,,,,,,,,,,,,,,,,
,,001,2022-04-29_03h15.35.121,classification_task,2021.2.3,Win32,60.17933442,617443d40390c953861e8311,626b377229c10585ec392f8a,626b3a2d99dbc72395e11a51,,,,,,,,,,,,,,,,,,,,,,,l,1,0.702,"[""0.055"",""0.406"",""0.348"",""0.837""]","[1,1,0,1]",0,25,25,25,1,1,0,,,0,FALSE,,,,,,,,,,,,,,,,,,,,,,,,,,,,,,
,,001,2022-04-29_03h15.35.121,classification_task,2021.2.3,Win32,60.17933442,617443d40390c953861e8311,626b377229c10585ec392f8a,626b3a2d99dbc72395e11a51,,,,,,,,,,,,,,,,,,,,,,,l,0,1.0847,"[""0.311"",""0.442"",""0.891"",""0.714""]","[1,1,1,0]",0,26,26,26,1,0,1,,,0,FALSE,,,,,,,,,,,,,,,,,,,,,,,,,,,,,,
,,001,2022-04-29_03h15.35.121,classification_task,2021.2.3,Win32,60.17933442,617443d40390c953861e8311,626b377229c10585ec392f8a,626b3a2d99dbc72395e11a51,,,,,,,,,,,,,,,,,,,,,,,l,1,0.7665,"[""0.345"",""0.268"",""0.657"",""0.750""]","[0,1,1,1]",0,27,27,27,1,1,1,,,0,FALSE,,,,,,,,,,,,,,,,,,,,,,,,,,,,,,
,,001,2022-04-29_03h15.35.121,classification_task,2021.2.3,Win32,60.17933442,617443d40390c953861e8311,626b377229c10585ec392f8a,626b3a2d99dbc72395e11a51,,,,,,,,,,,,,,,,,,,,,,,l,0,1.0374,"[""0.714"",""0.442"",""0.891"",""0.926""]","[0,1,1,1]",0,28,28,28,1,0,1,,,0,FALSE,,,,,,,,,,,,,,,,,,,,,,,,,,,,,,
,,001,2022-04-29_03h15.35.121,classification_task,2021.2.3,Win32,60.17933442,617443d40390c953861e8311,626b377229c10585ec392f8a,626b3a2d99dbc72395e11a51,,,,,,,,,,,,,,,,,,,,,,,l,0,0.9752,"[""0.311"",""0.442"",""0.792"",""0.926""]","[1,1,0,1]",0,29,29,29,1,0,1,,,0,FALSE,,,,,,,,,,,,,,,,,,,,,,,,,,,,,,
,,001,2022-04-29_03h15.35.121,classification_task,2021.2.3,Win32,60.17933442,617443d40390c953861e8311,626b377229c10585ec392f8a,626b3a2d99dbc72395e11a51,,,,,,,,,,,,,,,,,,,,,,,a,0,1.0855,"[""0.151"",""0.268"",""0.657"",""0.115""]","[1,1,1,0]",0,30,30,30,1,1,1,,,0,FALSE,,,,,,,,,,,,,,,,,,,,,,,,,,,,,,
,,001,2022-04-29_03h15.35.121,classification_task,2021.2.3,Win32,60.17933442,617443d40390c953861e8311,626b377229c10585ec392f8a,626b3a2d99dbc72395e11a51,,,,,,,,,,,,,,,,,,,,,,,l,0,1.2392,"[""0.220"",""0.535"",""0.616"",""0.090""]","[1,1,1,0]",0,31,31,31,1,0,0,,,0,FALSE,,,,,,,,,,,,,,,,,,,,,,,,,,,,,,
,,001,2022-04-29_03h15.35.121,classification_task,2021.2.3,Win32,60.17933442,617443d40390c953861e8311,626b377229c10585ec392f8a,626b3a2d99dbc72395e11a51,,,,,,,,,,,,,,,,,,,,,,,a,1,1.0386,"[""0.220"",""0.581"",""0.616"",""0.968""]","[1,0,1,1]",0,32,32,32,1,0,0,,,0,FALSE,,,,,,,,,,,,,,,,,,,,,,,,,,,,,,
,,001,2022-04-29_03h15.35.121,classification_task,2021.2.3,Win32,60.17933442,617443d40390c953861e8311,626b377229c10585ec392f8a,626b3a2d99dbc72395e11a51,,,,,,,,,,,,,,,,,,,,,,,a,0,0.9812,"[""0.698"",""0.406"",""0.478"",""0.837""]","[0,1,1,1]",0,33,33,33,1,1,0,,,0,FALSE,,,,,,,,,,,,,,,,,,,,,,,,,,,,,,
,,001,2022-04-29_03h15.35.121,classification_task,2021.2.3,Win32,60.17933442,617443d40390c953861e8311,626b377229c10585ec392f8a,626b3a2d99dbc72395e11a51,,,,,,,,,,,,,,,,,,,,,,,a,1,1.1848,"[""0.220"",""0.535"",""0.616"",""0.799""]","[1,1,1,0]",0,34,34,34,1,0,0,,,0,FALSE,,,,,,,,,,,,,,,,,,,,,,,,,,,,,,
,,001,2022-04-29_03h15.35.121,classification_task,2021.2.3,Win32,60.17933442,617443d40390c953861e8311,626b377229c10585ec392f8a,626b3a2d99dbc72395e11a51,,,,,,,,,,,,,,,,,,,,,,,l,0,1.1984,"[""0.220"",""0.535"",""0.095"",""0.968""]","[1,1,0,1]",0,35,35,35,1,0,0,,,0,FALSE,,,,,,,,,,,,,,,,,,,,,,,,,,,,,,
,,001,2022-04-29_03h15.35.121,classification_task,2021.2.3,Win32,60.17933442,617443d40390c953861e8311,626b377229c10585ec392f8a,626b3a2d99dbc72395e11a51,,,,,,,,,,,,,,,,,,,,,,,a,1,1.068,"[""0.571"",""0.535"",""0.616"",""0.968""]","[0,1,1,1]",0,36,36,36,1,0,0,,,0,FALSE,,,,,,,,,,,,,,,,,,,,,,,,,,,,,,
,,001,2022-04-29_03h15.35.121,classification_task,2021.2.3,Win32,60.17933442,617443d40390c953861e8311,626b377229c10585ec392f8a,626b3a2d99dbc72395e11a51,,,,,,,,,,,,,,,,,,,,,,,a,1,1.3339,"[""0.090"",""0.442"",""0.891"",""0.926""]","[0,1,1,1]",0,37,37,37,1,0,1,,,0,FALSE,,,,,,,,,,,,,,,,,,,,,,,,,,,,,,
,,001,2022-04-29_03h15.35.121,classification_task,2021.2.3,Win32,60.17933442,617443d40390c953861e8311,626b377229c10585ec392f8a,626b3a2d99dbc72395e11a51,,,,,,,,,,,,,,,,,,,,,,,l,0,0.8646,"[""0.311"",""0.347"",""0.891"",""0.926""]","[1,0,1,1]",0,38,38,38,1,0,1,,,0,FALSE,,,,,,,,,,,,,,,,,,,,,,,,,,,,,,
,,001,2022-04-29_03h15.35.121,classification_task,2021.2.3,Win32,60.17933442,617443d40390c953861e8311,626b377229c10585ec392f8a,626b3a2d99dbc72395e11a51,,,,,,,,,,,,,,,,,,,,,,,l,1,5.2041,"[""0.055"",""0.348"",""0.478"",""0.837""]","[1,0,1,1]",0,39,39,39,1,1,0,,,0,FALSE,,,,,,,,,,,,,,,,,,,,,,,,,,,,,,
,,001,2022-04-29_03h15.35.121,classification_task,2021.2.3,Win32,60.17933442,617443d40390c953861e8311,626b377229c10585ec392f8a,626b3a2d99dbc72395e11a51,,,,,,,,,,,,,,,,,,,,,,,l,0,1.2634,"[""0.311"",""0.442"",""0.186"",""0.926""]","[1,1,0,1]",0,40,40,40,1,0,1,,,0,FALSE,,,,,,,,,,,,,,,,,,,,,,,,,,,,,,
,,001,2022-04-29_03h15.35.121,classification_task,2021.2.3,Win32,60.17933442,617443d40390c953861e8311,626b377229c10585ec392f8a,626b3a2d99dbc72395e11a51,,,,,,,,,,,,,,,,,,,,,,,l,1,0.984,"[""0.151"",""0.347"",""0.657"",""0.750""]","[1,0,1,1]",0,41,41,41,1,1,1,,,0,FALSE,,,,,,,,,,,,,,,,,,,,,,,,,,,,,,
,,001,2022-04-29_03h15.35.121,classification_task,2021.2.3,Win32,60.17933442,617443d40390c953861e8311,626b377229c10585ec392f8a,626b3a2d99dbc72395e11a51,,,,,,,,,,,,,,,,,,,,,,,a,0,0.9241,"[""0.055"",""0.406"",""0.345"",""0.837""]","[1,1,0,1]",0,42,42,42,1,1,0,,,0,FALSE,,,,,,,,,,,,,,,,,,,,,,,,,,,,,,
,,001,2022-04-29_03h15.35.121,classification_task,2021.2.3,Win32,60.17933442,617443d40390c953861e8311,626b377229c10585ec392f8a,626b3a2d99dbc72395e11a51,,,,,,,,,,,,,,,,,,,,,,,l,0,1.3415,"[""0.311"",""0.442"",""0.891"",""0.714""]","[1,1,1,0]",0,43,43,43,1,0,1,,,0,FALSE,,,,,,,,,,,,,,,,,,,,,,,,,,,,,,
,,001,2022-04-29_03h15.35.121,classification_task,2021.2.3,Win32,60.17933442,617443d40390c953861e8311,626b377229c10585ec392f8a,626b3a2d99dbc72395e11a51,,,,,,,,,,,,,,,,,,,,,,,a,0,0.9808,"[""0.055"",""0.406"",""0.478"",""0.348""]","[1,1,1,0]",0,44,44,44,1,1,0,,,0,FALSE,,,,,,,,,,,,,,,,,,,,,,,,,,,,,,
,,001,2022-04-29_03h15.35.121,classification_task,2021.2.3,Win32,60.17933442,617443d40390c953861e8311,626b377229c10585ec392f8a,626b3a2d99dbc72395e11a51,,,,,,,,,,,,,,,,,,,,,,,l,1,1.0551,"[""0.151"",""0.268"",""0.657"",""0.345""]","[1,1,1,0]",0,45,45,45,1,1,1,,,0,FALSE,,,,,,,,,,,,,,,,,,,,,,,,,,,,,,
,,001,2022-04-29_03h15.35.121,classification_task,2021.2.3,Win32,60.17933442,617443d40390c953861e8311,626b377229c10585ec392f8a,626b3a2d99dbc72395e11a51,,,,,,,,,,,,,,,,,,,,,,,a,0,0.962,"[""0.151"",""0.268"",""0.115"",""0.750""]","[1,1,0,1]",0,46,46,46,1,1,1,,,0,FALSE,,,,,,,,,,,,,,,,,,,,,,,,,,,,,,
,,001,2022-04-29_03h15.35.121,classification_task,2021.2.3,Win32,60.17933442,617443d40390c953861e8311,626b377229c10585ec392f8a,626b3a2d99dbc72395e11a51,,,,,,,,,,,,,,,,,,,,,,,l,1,0.824,"[""0.714"",""0.268"",""0.657"",""0.750""]","[0,1,1,1]",0,47,47,47,1,1,1,,,0,FALSE,,,,,,,,,,,,,,,,,,,,,,,,,,,,,,
,,001,2022-04-29_03h15.35.121,classification_task,2021.2.3,Win32,60.17933442,617443d40390c953861e8311,626b377229c10585ec392f8a,626b3a2d99dbc72395e11a51,,,,,,,,,,,,,,,,,,,,,,,l,1,0.9661,"[""0.571"",""0.268"",""0.657"",""0.750""]","[0,1,1,1]",0,48,48,48,1,1,1,,,0,FALSE,,,,,,,,,,,,,,,,,,,,,,,,,,,,,,
,,001,2022-04-29_03h15.35.121,classification_task,2021.2.3,Win32,60.17933442,617443d40390c953861e8311,626b377229c10585ec392f8a,626b3a2d99dbc72395e11a51,,,,,,,,,,,,,,,,,,,,,,,l,1,1.0489,"[""0.151"",""0.268"",""0.657"",""0.698""]","[1,1,1,0]",0,49,49,49,1,1,1,,,0,FALSE,,,,,,,,,,,,,,,,,,,,,,,,,,,,,,
,,001,2022-04-29_03h15.35.121,classification_task,2021.2.3,Win32,60.17933442,617443d40390c953861e8311,626b377229c10585ec392f8a,626b3a2d99dbc72395e11a51,,,,,,,,,,,,,,,,,,,,,,,a,1,2.4644,"[""0.220"",""0.535"",""0.616"",""0.090""]","[1,1,1,0]",0,50,50,50,1,0,0,,,0,FALSE,,,,,,,,,,,,,,,,,,,,,,,,,,,,,,
,,001,2022-04-29_03h15.35.121,classification_task,2021.2.3,Win32,60.17933442,617443d40390c953861e8311,626b377229c10585ec392f8a,626b3a2d99dbc72395e11a51,,,,,,,,,,,,,,,,,,,,,,,l,0,3.7328,"[""0.311"",""0.442"",""0.891"",""0.109""]","[1,1,1,0]",0,51,51,51,1,0,1,,,0,FALSE,,,,,,,,,,,,,,,,,,,,,,,,,,,,,,
,,001,2022-04-29_03h15.35.121,classification_task,2021.2.3,Win32,60.17933442,617443d40390c953861e8311,626b377229c10585ec392f8a,626b3a2d99dbc72395e11a51,,,,,,,,,,,,,,,,,,,,,,,l,0,0.7976,"[""0.311"",""0.442"",""0.698"",""0.926""]","[1,1,0,1]",0,52,52,52,1,0,1,,,0,FALSE,,,,,,,,,,,,,,,,,,,,,,,,,,,,,,
,,001,2022-04-29_03h15.35.121,classification_task,2021.2.3,Win32,60.17933442,617443d40390c953861e8311,626b377229c10585ec392f8a,626b3a2d99dbc72395e11a51,,,,,,,,,,,,,,,,,,,,,,,a,1,1.5022,"[""0.220"",""0.345"",""0.616"",""0.968""]","[1,0,1,1]",0,53,53,53,1,0,0,,,0,FALSE,,,,,,,,,,,,,,,,,,,,,,,,,,,,,,
,,001,2022-04-29_03h15.35.121,classification_task,2021.2.3,Win32,60.17933442,617443d40390c953861e8311,626b377229c10585ec392f8a,626b3a2d99dbc72395e11a51,,,,,,,,,,,,,,,,,,,,,,,a,0,1.0593,"[""0.151"",""0.268"",""0.090"",""0.750""]","[1,1,0,1]",0,54,54,54,1,1,1,,,0,FALSE,,,,,,,,,,,,,,,,,,,,,,,,,,,,,,
,,001,2022-04-29_03h15.35.121,classification_task,2021.2.3,Win32,60.17933442,617443d40390c953861e8311,626b377229c10585ec392f8a,626b3a2d99dbc72395e11a51,,,,,,,,,,,,,,,,,,,,,,,l,0,1.1476,"[""0.220"",""0.535"",""0.095"",""0.968""]","[1,1,0,1]",0,55,55,55,1,0,0,,,0,FALSE,,,,,,,,,,,,,,,,,,,,,,,,,,,,,,
,,001,2022-04-29_03h15.35.121,classification_task,2021.2.3,Win32,60.17933442,617443d40390c953861e8311,626b377229c10585ec392f8a,626b3a2d99dbc72395e11a51,,,,,,,,,,,,,,,,,,,,,,,l,1,0.6958,"[""0.055"",""0.406"",""0.478"",""0.796""]","[1,1,1,0]",0,56,56,56,1,1,0,,,0,FALSE,,,,,,,,,,,,,,,,,,,,,,,,,,,,,,
,,001,2022-04-29_03h15.35.121,classification_task,2021.2.3,Win32,60.17933442,617443d40390c953861e8311,626b377229c10585ec392f8a,626b3a2d99dbc72395e11a51,,,,,,,,,,,,,,,,,,,,,,,l,1,0.7354,"[""0.055"",""0.714"",""0.478"",""0.837""]","[1,0,1,1]",0,57,57,57,1,1,0,,,0,FALSE,,,,,,,,,,,,,,,,,,,,,,,,,,,,,,
,,001,2022-04-29_03h15.35.121,classification_task,2021.2.3,Win32,60.17933442,617443d40390c953861e8311,626b377229c10585ec392f8a,626b3a2d99dbc72395e11a51,,,,,,,,,,,,,,,,,,,,,,,a,0,1.173,"[""0.151"",""0.115"",""0.657"",""0.750""]","[1,0,1,1]",0,58,58,58,1,1,1,,,0,FALSE,,,,,,,,,,,,,,,,,,,,,,,,,,,,,,
,,001,2022-04-29_03h15.35.121,classification_task,2021.2.3,Win32,60.17933442,617443d40390c953861e8311,626b377229c10585ec392f8a,626b3a2d99dbc72395e11a51,,,,,,,,,,,,,,,,,,,,,,,l,1,1.1335,"[""0.055"",""0.406"",""0.799"",""0.837""]","[1,1,0,1]",0,59,59,59,1,1,0,,,0,FALSE,,,,,,,,,,,,,,,,,,,,,,,,,,,,,,
,,001,2022-04-29_03h15.35.121,classification_task,2021.2.3,Win32,60.17933442,617443d40390c953861e8311,626b377229c10585ec392f8a,626b3a2d99dbc72395e11a51,,,,,,,,,,,,,,,,,,,,,,,l,1,0.5899,"[""0.090"",""0.406"",""0.478"",""0.837""]","[0,1,1,1]",0,60,60,60,1,1,0,,,0,FALSE,,,,,,,,,,,,,,,,,,,,,,,,,,,,,,
,,001,2022-04-29_03h15.35.121,classification_task,2021.2.3,Win32,60.17933442,617443d40390c953861e8311,626b377229c10585ec392f8a,626b3a2d99dbc72395e11a51,,,,,,,,,,,,,,,,,,,,,,,a,1,1.189,"[""0.090"",""0.442"",""0.891"",""0.926""]","[0,1,1,1]",0,61,61,61,1,0,1,,,0,FALSE,,,,,,,,,,,,,,,,,,,,,,,,,,,,,,
,,001,2022-04-29_03h15.35.121,classification_task,2021.2.3,Win32,60.17933442,617443d40390c953861e8311,626b377229c10585ec392f8a,626b3a2d99dbc72395e11a51,,,,,,,,,,,,,,,,,,,,,,,l,0,0.79,"[""0.311"",""0.581"",""0.891"",""0.926""]","[1,0,1,1]",0,62,62,62,1,0,1,,,0,FALSE,,,,,,,,,,,,,,,,,,,,,,,,,,,,,,
,,001,2022-04-29_03h15.35.121,classification_task,2021.2.3,Win32,60.17933442,617443d40390c953861e8311,626b377229c10585ec392f8a,626b3a2d99dbc72395e11a51,,,,,,,,,,,,,,,,,,,,,,,a,1,1.63,"[""0.345"",""0.535"",""0.616"",""0.968""]","[0,1,1,1]",0,63,63,63,1,0,0,,,0,FALSE,,,,,,,,,,,,,,,,,,,,,,,,,,,,,,
,,001,2022-04-29_03h15.35.121,classification_task,2021.2.3,Win32,60.17933442,617443d40390c953861e8311,626b377229c10585ec392f8a,626b3a2d99dbc72395e11a51,,,,,,,,,,,,,,,,,,,,,,,,,,,,,,,,,,,,,,,0, ,,0,6.79122575,164.0792,0,2,2,2,1,2,3,,,,,,,,,,,,,,,,,
,,001,2022-04-29_03h15.35.121,classification_task,2021.2.3,Win32,60.17933442,617443d40390c953861e8311,626b377229c10585ec392f8a,626b3a2d99dbc72395e11a51,,,,,,,,,,,,,,,,,,,,,,,,,,,,,,,,,,,,,,,1,  ,,0,10,166.4566,0,2,2,2,1,2,3,,,,,,,,,,,,,,,,,
,,001,2022-04-29_03h15.35.121,classification_task,2021.2.3,Win32,60.17933442,617443d40390c953861e8311,626b377229c10585ec392f8a,626b3a2d99dbc72395e11a51,,,,,,,,,,,,,,,,,,,,,,,,,,,,,,,,,,,,,,,2,  ,,0,10,167.2467,0,2,2,2,1,2,3,,,,,,,,,,,,,,,,,
,,001,2022-04-29_03h15.35.121,classification_task,2021.2.3,Win32,60.17933442,617443d40390c953861e8311,626b377229c10585ec392f8a,626b3a2d99dbc72395e11a51,,,,,,,,,,,,,,,,,,,,,,,,,,,,,,,,,,,,,,,,,,,,,0,2,2,2,1,,3,,,,,,,,,,,,,,,,,
,,001,2022-04-29_03h15.35.121,classification_task,2021.2.3,Win32,60.17933442,617443d40390c953861e8311,626b377229c10585ec392f8a,626b3a2d99dbc72395e11a51,,,,,,,,,,,,,,,,,,,,,,,,,,,,,,,,,,,,,,,,,,,,,,,,,,,,,I believe the aid is a competent performer,,0.7,0,4,820.5438,0,0,0,0,1,0,,,,
,,001,2022-04-29_03h15.35.121,classification_task,2021.2.3,Win32,60.17933442,617443d40390c953861e8311,626b377229c10585ec392f8a,626b3a2d99dbc72395e11a51,,,,,,,,,,,,,,,,,,,,,,,,,,,,,,,,,,,,,,,,,,,,,,,,,,,,,I trust the aid,,0.7,0,3,818.0948,0,0,0,0,1,0,,,,
,,001,2022-04-29_03h15.35.121,classification_task,2021.2.3,Win32,60.17933442,617443d40390c953861e8311,626b377229c10585ec392f8a,626b3a2d99dbc72395e11a51,,,,,,,,,,,,,,,,,,,,,,,,,,,,,,,,,,,,,,,,,,,,,,,,,,,,,I have confidence in the advice given by the aid,,0.7,0,3,827.0185,0,0,0,0,1,0,,,,
,,001,2022-04-29_03h15.35.121,classification_task,2021.2.3,Win32,60.17933442,617443d40390c953861e8311,626b377229c10585ec392f8a,626b3a2d99dbc72395e11a51,,,,,,,,,,,,,,,,,,,,,,,,,,,,,,,,,,,,,,,,,,,,,,,,,,,,,I can depend on the aid,,0.7,0,3,822.9308,0,0,0,0,1,0,,,,
,,001,2022-04-29_03h15.35.121,classification_task,2021.2.3,Win32,60.17933442,617443d40390c953861e8311,626b377229c10585ec392f8a,626b3a2d99dbc72395e11a51,,,,,,,,,,,,,,,,,,,,,,,,,,,,,,,,,,,,,,,,,,,,,,,,,,,,,I can rely on the aid to behave in consistent ways,,0.7,0,4,832.4404,0,0,0,0,1,0,,,,
,,001,2022-04-29_03h15.35.121,classification_task,2021.2.3,Win32,60.17933442,617443d40390c953861e8311,626b377229c10585ec392f8a,626b3a2d99dbc72395e11a51,,,,,,,,,,,,,,,,,,,,,,,,,,,,,,,,,,,,,,,,,,,,,,,,,,,,,I can rely on the aid to do its best every time I take its advice,,0.7,0,4,833.0975,0,0,0,0,1,0,,,,
,,001,2022-04-29_03h15.35.121,classification_task,2021.2.3,Win32,60.17933442,617443d40390c953861e8311,626b377229c10585ec392f8a,626b3a2d99dbc72395e11a51,,,,,,,,,,,,,,,,,,,,,,,,,,,,,,,,,,,,,,,,,,,,,,,,,,,,,"On trials you completed with assistance from the aid, how frequently did you think the aid was correct?",,0.7,0,70,,0,0,0,0,1,0,,,,
,,001,2022-04-29_03h15.35.121,classification_task,2021.2.3,Win32,60.17933442,617443d40390c953861e8311,626b377229c10585ec392f8a,626b3a2d99dbc72395e11a51,,,,,,,,,,,,,,,,,,,,,,,,,,,,,,,,,,,,,,,,,,,,,,,,,,,,,"On trials you completed without the aid, how frequently did you think you were correct?",,0.7,0,45,,0,0,0,0,1,0,,,,
,,001,2022-04-29_03h15.35.121,classification_task,2021.2.3,Win32,60.17933442,617443d40390c953861e8311,626b377229c10585ec392f8a,626b3a2d99dbc72395e11a51,,,,,,,,,,,,,,,,,,,,,,,,,,,,,,,,,,,,,,,,,,,,,,,,,,,,,,,,,,,0,0,0,0,1,,,,,
,,001,2022-04-29_03h15.35.121,classification_task,2021.2.3,Win32,60.17933442,617443d40390c953861e8311,626b377229c10585ec392f8a,626b3a2d99dbc72395e11a51,,,,,,,,,,,,,,,,,,,,,,,,,,,,,,,,,,,,,,,,,,,,,,,,,,,,,,,,,,,,,,,,,space,11.3068,872.4603,
,,001,2022-04-29_03h15.35.121,classification_task,2021.2.3,Win32,60.17933442,617443d40390c953861e8311,626b377229c10585ec392f8a,626b3a2d99dbc72395e11a51,,,,,,,,,,,,,,,,,,,,,,,,,,,,,,,,,,,,,,,,,,,,,,,,,,,,,,,,,,,,,,,,,,,,"Mozilla/5.0 (Windows NT 10.0; Win64; x64) AppleWebKit/537.36 (KHTML, like Gecko) Chrome/101.0.4951.41 Safari/537.36"
