usingWebGL,participant,session,date,expName,psychopyVersion,OS,frameRate,PROLIFIC_PID,STUDY_ID,SESSION_ID,signatures_friend,signatures_foe,band_ranges_top,band_ranges_bottom,formitemText,formtype,formundefined,formitemWidth,formindex,formresponse,formrt,key_resp_2.keys,key_resp_2.rt,tute_resp.keys,tute_resp.rt,tutorial.thisRepN,tutorial.thisTrialN,tutorial.thisN,tutorial.thisIndex,tutorial.ran,key_resp_4.keys,key_resp_4.rt,key_resp.keys,key_resp.corr,key_resp.rt,lines_presented,is_signal_presented,trials.thisRepN,trials.thisTrialN,trials.thisN,trials.thisIndex,trials.ran,vessel,active_band,lines,is_signal,supported_pos,catch_trial,debrief_formindex,debrief_formitemText,debrief_formtype,debrief_formitemWidth,debrief_formresponse,debrief_formrt,phases.thisRepN,phases.thisTrialN,phases.thisN,phases.thisIndex,phases.ran,phases.order,phase,key_resp_3.keys,trustitemText,trusttype,trustitemWidth,trustindex,trustresponse,trustrt,support_status.thisRepN,support_status.thisTrialN,support_status.thisN,support_status.thisIndex,support_status.ran,support_status.order,key_resp_5.keys,key_resp_5.rt,globalClockTime,userAgent
TRUE,,001,2022-04-29_02h11.50.055,classification_task,2021.2.3,Win32,59.80861244,614b55e22ff3944a165736bb,626b377229c10585ec392f8a,626b3ae6363e73d9495d7bff,,,,,,,,,,,,,,,,,,,,,,,,,,,,,,,,,,,,,,,,,,,,,,,,,,,,,,,,,,,,,,,,,,,,
,,001,2022-04-29_02h11.50.055,classification_task,2021.2.3,Win32,59.80861244,614b55e22ff3944a165736bb,626b377229c10585ec392f8a,626b3ae6363e73d9495d7bff,"[[""0.225"",""0.409"",""0.808"",""0.934""],[""0.312"",""0.445"",""0.893"",""0.975""]]","[[""0.076"",""0.274"",""0.515"",""0.729""],[""0.035"",""0.186"",""0.604"",""0.773""]]","[1,10]","[100,1000]",Video game experience,,,0.7,0,,,,,,,,,,,,,,,,,,,,,,,,,,,,,,,,,,,,,,,,,,,,,,,,,,,,,,,,,,,
,,001,2022-04-29_02h11.50.055,classification_task,2021.2.3,Win32,59.80861244,614b55e22ff3944a165736bb,626b377229c10585ec392f8a,626b3ae6363e73d9495d7bff,,,,,Approximately how many hours did you spend playing video games in the last week?,,,0.7,0,5,,,,,,,,,,,,,,,,,,,,,,,,,,,,,,,,,,,,,,,,,,,,,,,,,,,,,,,,,,
,,001,2022-04-29_02h11.50.055,classification_task,2021.2.3,Win32,59.80861244,614b55e22ff3944a165736bb,626b377229c10585ec392f8a,626b3ae6363e73d9495d7bff,,,,,"Which game did you play the most this year? (Enter ""None"" if you didn't play any)",,,0.7,0,league of legends,,,,,,,,,,,,,,,,,,,,,,,,,,,,,,,,,,,,,,,,,,,,,,,,,,,,,,,,,,
,,001,2022-04-29_02h11.50.055,classification_task,2021.2.3,Win32,59.80861244,614b55e22ff3944a165736bb,626b377229c10585ec392f8a,626b3ae6363e73d9495d7bff,,,,,Visual perception,,,0.7,0,,,,,,,,,,,,,,,,,,,,,,,,,,,,,,,,,,,,,,,,,,,,,,,,,,,,,,,,,,,
,,001,2022-04-29_02h11.50.055,classification_task,2021.2.3,Win32,59.80861244,614b55e22ff3944a165736bb,626b377229c10585ec392f8a,626b3ae6363e73d9495d7bff,,,,,Do you have any form of color blindness?,,,0.7,0,No,28.068,,,,,,,,,,,,,,,,,,,,,,,,,,,,,,,,,,,,,,,,,,,,,,,,,,,,,,,,,
,,001,2022-04-29_02h11.50.055,classification_task,2021.2.3,Win32,59.80861244,614b55e22ff3944a165736bb,626b377229c10585ec392f8a,626b3ae6363e73d9495d7bff,,,,,Do you use software to change the colour temperature of your screen (e.g. f.lux)?,,,0.7,0,No,37.7429,,,,,,,,,,,,,,,,,,,,,,,,,,,,,,,,,,,,,,,,,,,,,,,,,,,,,,,,,
,,001,2022-04-29_02h11.50.055,classification_task,2021.2.3,Win32,59.80861244,614b55e22ff3944a165736bb,626b377229c10585ec392f8a,626b3ae6363e73d9495d7bff,,,,,,,,,,,,space,32.5461,space,33.9218,0,0,0,0,1,,,,,,,,,,,,,,,,,,,,,,,,,,,,,,,,,,,,,,,,,,,,,,,,
,,001,2022-04-29_02h11.50.055,classification_task,2021.2.3,Win32,59.80861244,614b55e22ff3944a165736bb,626b377229c10585ec392f8a,626b3ae6363e73d9495d7bff,,,,,,,,,,,,,,space,7.5858,1,0,1,0,1,,,,,,,,,,,,,,,,,,,,,,,,,,,,,,,,,,,,,,,,,,,,,,,,
,,001,2022-04-29_02h11.50.055,classification_task,2021.2.3,Win32,59.80861244,614b55e22ff3944a165736bb,626b377229c10585ec392f8a,626b3ae6363e73d9495d7bff,,,,,,,,,,,,,,space,51.495,2,0,2,0,1,,,,,,,,,,,,,,,,,,,,,,,,,,,,,,,,,,,,,,,,,,,,,,,,
,,001,2022-04-29_02h11.50.055,classification_task,2021.2.3,Win32,59.80861244,614b55e22ff3944a165736bb,626b377229c10585ec392f8a,626b3ae6363e73d9495d7bff,,,,,,,,,,,,,,space,5.3644,3,0,3,0,1,,,,,,,,,,,,,,,,,,,,,,,,,,,,,,,,,,,,,,,,,,,,,,,,
,,001,2022-04-29_02h11.50.055,classification_task,2021.2.3,Win32,59.80861244,614b55e22ff3944a165736bb,626b377229c10585ec392f8a,626b3ae6363e73d9495d7bff,,,,,,,,,,,,,,space,13.1882,4,0,4,0,1,,,,,,,,,,,,,,,,,,,,,,,,,,,,,,,,,,,,,,,,,,,,,,,,
,,001,2022-04-29_02h11.50.055,classification_task,2021.2.3,Win32,59.80861244,614b55e22ff3944a165736bb,626b377229c10585ec392f8a,626b3ae6363e73d9495d7bff,,,,,,,,,,,,,,,,,,,,,space,19.6188,a,1,6.2753,"[""0.225"",""0.409"",""0.151"",""0.934""]","[1,1,0,1]",0,0,0,0,1,0,0,,,1,FALSE,,,,,,,,,,,,,,,,,,,,,,,,,,,,,,
,,001,2022-04-29_02h11.50.055,classification_task,2021.2.3,Win32,59.80861244,614b55e22ff3944a165736bb,626b377229c10585ec392f8a,626b3ae6363e73d9495d7bff,,,,,,,,,,,,,,,,,,,,,,,l,1,5.0536,"[""0.076"",""0.148"",""0.515"",""0.729""]","[1,0,1,1]",0,1,1,1,1,1,0,,,1,FALSE,,,,,,,,,,,,,,,,,,,,,,,,,,,,,,
,,001,2022-04-29_02h11.50.055,classification_task,2021.2.3,Win32,59.80861244,614b55e22ff3944a165736bb,626b377229c10585ec392f8a,626b3ae6363e73d9495d7bff,,,,,,,,,,,,,,,,,,,,,,,l,1,5.116,"[""0.035"",""0.647"",""0.604"",""0.773""]","[1,0,1,1]",0,2,2,2,1,1,1,,,1,FALSE,,,,,,,,,,,,,,,,,,,,,,,,,,,,,,
,,001,2022-04-29_02h11.50.055,classification_task,2021.2.3,Win32,59.80861244,614b55e22ff3944a165736bb,626b377229c10585ec392f8a,626b3ae6363e73d9495d7bff,,,,,,,,,,,,,,,,,,,,,,,a,1,2.7526,"[""0.225"",""0.673"",""0.808"",""0.934""]","[1,0,1,1]",0,3,3,3,1,0,0,,,1,FALSE,,,,,,,,,,,,,,,,,,,,,,,,,,,,,,
,,001,2022-04-29_02h11.50.055,classification_task,2021.2.3,Win32,59.80861244,614b55e22ff3944a165736bb,626b377229c10585ec392f8a,626b3ae6363e73d9495d7bff,,,,,,,,,,,,,,,,,,,,,,,a,1,5.9191,"[""0.312"",""0.116"",""0.893"",""0.975""]","[1,0,1,1]",0,4,4,4,1,0,1,,,1,FALSE,,,,,,,,,,,,,,,,,,,,,,,,,,,,,,
,,001,2022-04-29_02h11.50.055,classification_task,2021.2.3,Win32,59.80861244,614b55e22ff3944a165736bb,626b377229c10585ec392f8a,626b3ae6363e73d9495d7bff,,,,,,,,,,,,,,,,,,,,,,,a,1,2.9393,"[""0.312"",""0.445"",""0.893"",""0.672""]","[1,1,1,0]",0,5,5,5,1,0,1,,,1,FALSE,,,,,,,,,,,,,,,,,,,,,,,,,,,,,,
,,001,2022-04-29_02h11.50.055,classification_task,2021.2.3,Win32,59.80861244,614b55e22ff3944a165736bb,626b377229c10585ec392f8a,626b3ae6363e73d9495d7bff,,,,,,,,,,,,,,,,,,,,,,,a,1,3.1015,"[""0.225"",""0.409"",""0.808"",""0.151""]","[1,1,1,0]",0,6,6,6,1,0,0,,,1,FALSE,,,,,,,,,,,,,,,,,,,,,,,,,,,,,,
,,001,2022-04-29_02h11.50.055,classification_task,2021.2.3,Win32,59.80861244,614b55e22ff3944a165736bb,626b377229c10585ec392f8a,626b3ae6363e73d9495d7bff,,,,,,,,,,,,,,,,,,,,,,,l,1,6.8073,"[""0.148"",""0.274"",""0.515"",""0.729""]","[0,1,1,1]",0,7,7,7,1,1,0,,,1,FALSE,,,,,,,,,,,,,,,,,,,,,,,,,,,,,,
,,001,2022-04-29_02h11.50.055,classification_task,2021.2.3,Win32,59.80861244,614b55e22ff3944a165736bb,626b377229c10585ec392f8a,626b3ae6363e73d9495d7bff,,,,,,,,,,,,,,,,,,,,,,,a,1,3.1009,"[""0.356"",""0.445"",""0.893"",""0.975""]","[0,1,1,1]",0,8,8,8,1,0,1,,,1,FALSE,,,,,,,,,,,,,,,,,,,,,,,,,,,,,,
,,001,2022-04-29_02h11.50.055,classification_task,2021.2.3,Win32,59.80861244,614b55e22ff3944a165736bb,626b377229c10585ec392f8a,626b3ae6363e73d9495d7bff,,,,,,,,,,,,,,,,,,,,,,,l,1,5.31,"[""0.035"",""0.186"",""0.604"",""0.143""]","[1,1,1,0]",0,9,9,9,1,1,1,,,1,FALSE,,,,,,,,,,,,,,,,,,,,,,,,,,,,,,
,,001,2022-04-29_02h11.50.055,classification_task,2021.2.3,Win32,59.80861244,614b55e22ff3944a165736bb,626b377229c10585ec392f8a,626b3ae6363e73d9495d7bff,,,,,,,,,,,,,,,,,,,,,,,l,1,5.2651,"[""0.076"",""0.274"",""0.362"",""0.729""]","[1,1,0,1]",0,10,10,10,1,1,0,,,1,FALSE,,,,,,,,,,,,,,,,,,,,,,,,,,,,,,
,,001,2022-04-29_02h11.50.055,classification_task,2021.2.3,Win32,59.80861244,614b55e22ff3944a165736bb,626b377229c10585ec392f8a,626b3ae6363e73d9495d7bff,,,,,,,,,,,,,,,,,,,,,,,l,1,9.4713,"[""0.672"",""0.186"",""0.604"",""0.773""]","[0,1,1,1]",0,11,11,11,1,1,1,,,1,FALSE,,,,,,,,,,,,,,,,,,,,,,,,,,,,,,
,,001,2022-04-29_02h11.50.055,classification_task,2021.2.3,Win32,59.80861244,614b55e22ff3944a165736bb,626b377229c10585ec392f8a,626b3ae6363e73d9495d7bff,,,,,,,,,,,,,,,,,,,,,,,a,1,1.6921,"[""0.312"",""0.445"",""0.137"",""0.975""]","[1,1,0,1]",0,12,12,12,1,0,1,,,1,FALSE,,,,,,,,,,,,,,,,,,,,,,,,,,,,,,
,,001,2022-04-29_02h11.50.055,classification_task,2021.2.3,Win32,59.80861244,614b55e22ff3944a165736bb,626b377229c10585ec392f8a,626b3ae6363e73d9495d7bff,,,,,,,,,,,,,,,,,,,,,,,a,1,6.2715,"[""0.148"",""0.409"",""0.808"",""0.934""]","[0,1,1,1]",0,13,13,13,1,0,0,,,1,FALSE,,,,,,,,,,,,,,,,,,,,,,,,,,,,,,
,,001,2022-04-29_02h11.50.055,classification_task,2021.2.3,Win32,59.80861244,614b55e22ff3944a165736bb,626b377229c10585ec392f8a,626b3ae6363e73d9495d7bff,,,,,,,,,,,,,,,,,,,,,,,l,1,4.8243,"[""0.035"",""0.186"",""0.362"",""0.773""]","[1,1,0,1]",0,14,14,14,1,1,1,,,1,FALSE,,,,,,,,,,,,,,,,,,,,,,,,,,,,,,
,,001,2022-04-29_02h11.50.055,classification_task,2021.2.3,Win32,59.80861244,614b55e22ff3944a165736bb,626b377229c10585ec392f8a,626b3ae6363e73d9495d7bff,,,,,,,,,,,,,,,,,,,,,,,l,1,5.6384,"[""0.076"",""0.274"",""0.515"",""0.846""]","[1,1,1,0]",0,15,15,15,1,1,0,,,1,FALSE,,,,,,,,,,,,,,,,,,,,,,,,,,,,,,
,,001,2022-04-29_02h11.50.055,classification_task,2021.2.3,Win32,59.80861244,614b55e22ff3944a165736bb,626b377229c10585ec392f8a,626b3ae6363e73d9495d7bff,,,,,,,,,,,,,,,,,,,,,,,l,1,3.484,"[""0.035"",""0.137"",""0.604"",""0.773""]","[1,0,1,1]",0,16,16,16,1,1,1,,,1,FALSE,,,,,,,,,,,,,,,,,,,,,,,,,,,,,,
,,001,2022-04-29_02h11.50.055,classification_task,2021.2.3,Win32,59.80861244,614b55e22ff3944a165736bb,626b377229c10585ec392f8a,626b3ae6363e73d9495d7bff,,,,,,,,,,,,,,,,,,,,,,,l,1,5.7951,"[""0.035"",""0.186"",""0.356"",""0.773""]","[1,1,0,1]",0,17,17,17,1,1,1,,,1,FALSE,,,,,,,,,,,,,,,,,,,,,,,,,,,,,,
,,001,2022-04-29_02h11.50.055,classification_task,2021.2.3,Win32,59.80861244,614b55e22ff3944a165736bb,626b377229c10585ec392f8a,626b3ae6363e73d9495d7bff,,,,,,,,,,,,,,,,,,,,,,,a,1,5.1399,"[""0.225"",""0.362"",""0.808"",""0.934""]","[1,0,1,1]",0,18,18,18,1,0,0,,,1,FALSE,,,,,,,,,,,,,,,,,,,,,,,,,,,,,,
,,001,2022-04-29_02h11.50.055,classification_task,2021.2.3,Win32,59.80861244,614b55e22ff3944a165736bb,626b377229c10585ec392f8a,626b3ae6363e73d9495d7bff,,,,,,,,,,,,,,,,,,,,,,,l,1,5.7494,"[""0.133"",""0.186"",""0.604"",""0.773""]","[0,1,1,1]",0,19,19,19,1,1,1,,,1,FALSE,,,,,,,,,,,,,,,,,,,,,,,,,,,,,,
,,001,2022-04-29_02h11.50.055,classification_task,2021.2.3,Win32,59.80861244,614b55e22ff3944a165736bb,626b377229c10585ec392f8a,626b3ae6363e73d9495d7bff,,,,,,,,,,,,,,,,,,,,,,,a,1,4.056,"[""0.312"",""0.133"",""0.893"",""0.975""]","[1,0,1,1]",0,20,20,20,1,0,1,,,1,FALSE,,,,,,,,,,,,,,,,,,,,,,,,,,,,,,
,,001,2022-04-29_02h11.50.055,classification_task,2021.2.3,Win32,59.80861244,614b55e22ff3944a165736bb,626b377229c10585ec392f8a,626b3ae6363e73d9495d7bff,,,,,,,,,,,,,,,,,,,,,,,l,1,5.4328,"[""0.076"",""0.274"",""0.846"",""0.729""]","[1,1,0,1]",0,21,21,21,1,1,0,,,1,FALSE,,,,,,,,,,,,,,,,,,,,,,,,,,,,,,
,,001,2022-04-29_02h11.50.055,classification_task,2021.2.3,Win32,59.80861244,614b55e22ff3944a165736bb,626b377229c10585ec392f8a,626b3ae6363e73d9495d7bff,,,,,,,,,,,,,,,,,,,,,,,l,1,8.1368,"[""0.076"",""0.274"",""0.515"",""0.352""]","[1,1,1,0]",0,22,22,22,1,1,0,,,1,FALSE,,,,,,,,,,,,,,,,,,,,,,,,,,,,,,
,,001,2022-04-29_02h11.50.055,classification_task,2021.2.3,Win32,59.80861244,614b55e22ff3944a165736bb,626b377229c10585ec392f8a,626b3ae6363e73d9495d7bff,,,,,,,,,,,,,,,,,,,,,,,l,1,6.3515,"[""0.035"",""0.186"",""0.604"",""0.673""]","[1,1,1,0]",0,23,23,23,1,1,1,,,1,FALSE,,,,,,,,,,,,,,,,,,,,,,,,,,,,,,
,,001,2022-04-29_02h11.50.055,classification_task,2021.2.3,Win32,59.80861244,614b55e22ff3944a165736bb,626b377229c10585ec392f8a,626b3ae6363e73d9495d7bff,,,,,,,,,,,,,,,,,,,,,,,a,1,4.7905,"[""0.352"",""0.409"",""0.808"",""0.934""]","[0,1,1,1]",0,24,24,24,1,0,0,,,1,FALSE,,,,,,,,,,,,,,,,,,,,,,,,,,,,,,
,,001,2022-04-29_02h11.50.055,classification_task,2021.2.3,Win32,59.80861244,614b55e22ff3944a165736bb,626b377229c10585ec392f8a,626b3ae6363e73d9495d7bff,,,,,,,,,,,,,,,,,,,,,,,a,1,2.2437,"[""0.312"",""0.445"",""0.149"",""0.975""]","[1,1,0,1]",0,25,25,25,1,0,1,,,1,FALSE,,,,,,,,,,,,,,,,,,,,,,,,,,,,,,
,,001,2022-04-29_02h11.50.055,classification_task,2021.2.3,Win32,59.80861244,614b55e22ff3944a165736bb,626b377229c10585ec392f8a,626b3ae6363e73d9495d7bff,,,,,,,,,,,,,,,,,,,,,,,a,1,2.3178,"[""0.312"",""0.445"",""0.893"",""0.116""]","[1,1,1,0]",0,26,26,26,1,0,1,,,1,FALSE,,,,,,,,,,,,,,,,,,,,,,,,,,,,,,
,,001,2022-04-29_02h11.50.055,classification_task,2021.2.3,Win32,59.80861244,614b55e22ff3944a165736bb,626b377229c10585ec392f8a,626b3ae6363e73d9495d7bff,,,,,,,,,,,,,,,,,,,,,,,a,1,8.0225,"[""0.225"",""0.409"",""0.561"",""0.934""]","[1,1,0,1]",0,27,27,27,1,0,0,,,1,FALSE,,,,,,,,,,,,,,,,,,,,,,,,,,,,,,
,,001,2022-04-29_02h11.50.055,classification_task,2021.2.3,Win32,59.80861244,614b55e22ff3944a165736bb,626b377229c10585ec392f8a,626b3ae6363e73d9495d7bff,,,,,,,,,,,,,,,,,,,,,,,l,1,6.2343,"[""0.116"",""0.274"",""0.515"",""0.729""]","[0,1,1,1]",0,28,28,28,1,1,0,,,1,FALSE,,,,,,,,,,,,,,,,,,,,,,,,,,,,,,
,,001,2022-04-29_02h11.50.055,classification_task,2021.2.3,Win32,59.80861244,614b55e22ff3944a165736bb,626b377229c10585ec392f8a,626b3ae6363e73d9495d7bff,,,,,,,,,,,,,,,,,,,,,,,l,1,7.6825,"[""0.076"",""0.148"",""0.515"",""0.729""]","[1,0,1,1]",0,29,29,29,1,1,0,,,1,FALSE,,,,,,,,,,,,,,,,,,,,,,,,,,,,,,
,,001,2022-04-29_02h11.50.055,classification_task,2021.2.3,Win32,59.80861244,614b55e22ff3944a165736bb,626b377229c10585ec392f8a,626b3ae6363e73d9495d7bff,,,,,,,,,,,,,,,,,,,,,,,a,1,1.815,"[""0.846"",""0.445"",""0.893"",""0.975""]","[0,1,1,1]",0,30,30,30,1,0,1,,,1,FALSE,,,,,,,,,,,,,,,,,,,,,,,,,,,,,,
,,001,2022-04-29_02h11.50.055,classification_task,2021.2.3,Win32,59.80861244,614b55e22ff3944a165736bb,626b377229c10585ec392f8a,626b3ae6363e73d9495d7bff,,,,,,,,,,,,,,,,,,,,,,,a,1,2.5067,"[""0.225"",""0.409"",""0.808"",""0.352""]","[1,1,1,0]",0,31,31,31,1,0,0,,,1,FALSE,,,,,,,,,,,,,,,,,,,,,,,,,,,,,,
,,001,2022-04-29_02h11.50.055,classification_task,2021.2.3,Win32,59.80861244,614b55e22ff3944a165736bb,626b377229c10585ec392f8a,626b3ae6363e73d9495d7bff,,,,,,,,,,,,,,,,,,,,,,,a,1,5.9552,"[""0.312"",""0.362"",""0.893"",""0.975""]","[1,0,1,1]",0,32,32,32,1,0,1,,,1,FALSE,,,,,,,,,,,,,,,,,,,,,,,,,,,,,,
,,001,2022-04-29_02h11.50.055,classification_task,2021.2.3,Win32,59.80861244,614b55e22ff3944a165736bb,626b377229c10585ec392f8a,626b3ae6363e73d9495d7bff,,,,,,,,,,,,,,,,,,,,,,,l,0,2.8744,"[""0.312"",""0.445"",""0.893"",""0.133""]","[1,1,1,0]",0,33,33,33,1,0,1,,,1,FALSE,,,,,,,,,,,,,,,,,,,,,,,,,,,,,,
,,001,2022-04-29_02h11.50.055,classification_task,2021.2.3,Win32,59.80861244,614b55e22ff3944a165736bb,626b377229c10585ec392f8a,626b3ae6363e73d9495d7bff,,,,,,,,,,,,,,,,,,,,,,,a,0,3.688,"[""0.035"",""0.186"",""0.604"",""0.148""]","[1,1,1,0]",0,34,34,34,1,1,1,,,1,FALSE,,,,,,,,,,,,,,,,,,,,,,,,,,,,,,
,,001,2022-04-29_02h11.50.055,classification_task,2021.2.3,Win32,59.80861244,614b55e22ff3944a165736bb,626b377229c10585ec392f8a,626b3ae6363e73d9495d7bff,,,,,,,,,,,,,,,,,,,,,,,l,0,4.8729,"[""0.225"",""0.151"",""0.808"",""0.934""]","[1,0,1,1]",0,35,35,35,1,0,0,,,1,FALSE,,,,,,,,,,,,,,,,,,,,,,,,,,,,,,
,,001,2022-04-29_02h11.50.055,classification_task,2021.2.3,Win32,59.80861244,614b55e22ff3944a165736bb,626b377229c10585ec392f8a,626b3ae6363e73d9495d7bff,,,,,,,,,,,,,,,,,,,,,,,a,0,3.2939,"[""0.149"",""0.274"",""0.515"",""0.729""]","[0,1,1,1]",0,36,36,36,1,1,0,,,1,FALSE,,,,,,,,,,,,,,,,,,,,,,,,,,,,,,
,,001,2022-04-29_02h11.50.055,classification_task,2021.2.3,Win32,59.80861244,614b55e22ff3944a165736bb,626b377229c10585ec392f8a,626b3ae6363e73d9495d7bff,,,,,,,,,,,,,,,,,,,,,,,a,0,1.6717,"[""0.035"",""0.186"",""0.149"",""0.773""]","[1,1,0,1]",0,37,37,37,1,1,1,,,1,FALSE,,,,,,,,,,,,,,,,,,,,,,,,,,,,,,
,,001,2022-04-29_02h11.50.055,classification_task,2021.2.3,Win32,59.80861244,614b55e22ff3944a165736bb,626b377229c10585ec392f8a,626b3ae6363e73d9495d7bff,,,,,,,,,,,,,,,,,,,,,,,a,0,1.6545,"[""0.076"",""0.149"",""0.515"",""0.729""]","[1,0,1,1]",0,38,38,38,1,1,0,,,1,FALSE,,,,,,,,,,,,,,,,,,,,,,,,,,,,,,
,,001,2022-04-29_02h11.50.055,classification_task,2021.2.3,Win32,59.80861244,614b55e22ff3944a165736bb,626b377229c10585ec392f8a,626b3ae6363e73d9495d7bff,,,,,,,,,,,,,,,,,,,,,,,l,1,4.1853,"[""0.035"",""0.137"",""0.604"",""0.773""]","[1,0,1,1]",0,39,39,39,1,1,1,,,1,FALSE,,,,,,,,,,,,,,,,,,,,,,,,,,,,,,
,,001,2022-04-29_02h11.50.055,classification_task,2021.2.3,Win32,59.80861244,614b55e22ff3944a165736bb,626b377229c10585ec392f8a,626b3ae6363e73d9495d7bff,,,,,,,,,,,,,,,,,,,,,,,a,0,4.6566,"[""0.362"",""0.186"",""0.604"",""0.773""]","[0,1,1,1]",0,40,40,40,1,1,1,,,1,FALSE,,,,,,,,,,,,,,,,,,,,,,,,,,,,,,
,,001,2022-04-29_02h11.50.055,classification_task,2021.2.3,Win32,59.80861244,614b55e22ff3944a165736bb,626b377229c10585ec392f8a,626b3ae6363e73d9495d7bff,,,,,,,,,,,,,,,,,,,,,,,a,0,2.3967,"[""0.076"",""0.274"",""0.846"",""0.729""]","[1,1,0,1]",0,41,41,41,1,1,0,,,1,FALSE,,,,,,,,,,,,,,,,,,,,,,,,,,,,,,
,,001,2022-04-29_02h11.50.055,classification_task,2021.2.3,Win32,59.80861244,614b55e22ff3944a165736bb,626b377229c10585ec392f8a,626b3ae6363e73d9495d7bff,,,,,,,,,,,,,,,,,,,,,,,a,1,1.8076,"[""0.312"",""0.445"",""0.672"",""0.975""]","[1,1,0,1]",0,42,42,42,1,0,1,,,1,FALSE,,,,,,,,,,,,,,,,,,,,,,,,,,,,,,
,,001,2022-04-29_02h11.50.055,classification_task,2021.2.3,Win32,59.80861244,614b55e22ff3944a165736bb,626b377229c10585ec392f8a,626b3ae6363e73d9495d7bff,,,,,,,,,,,,,,,,,,,,,,,a,1,0.8232,"[""0.672"",""0.445"",""0.893"",""0.975""]","[0,1,1,1]",0,43,43,43,1,0,1,,,1,FALSE,,,,,,,,,,,,,,,,,,,,,,,,,,,,,,
,,001,2022-04-29_02h11.50.055,classification_task,2021.2.3,Win32,59.80861244,614b55e22ff3944a165736bb,626b377229c10585ec392f8a,626b3ae6363e73d9495d7bff,,,,,,,,,,,,,,,,,,,,,,,a,1,1.389,"[""0.225"",""0.409"",""0.561"",""0.934""]","[1,1,0,1]",0,44,44,44,1,0,0,,,1,FALSE,,,,,,,,,,,,,,,,,,,,,,,,,,,,,,
,,001,2022-04-29_02h11.50.055,classification_task,2021.2.3,Win32,59.80861244,614b55e22ff3944a165736bb,626b377229c10585ec392f8a,626b3ae6363e73d9495d7bff,,,,,,,,,,,,,,,,,,,,,,,l,0,3.057,"[""0.148"",""0.409"",""0.808"",""0.934""]","[0,1,1,1]",0,45,45,45,1,0,0,,,1,FALSE,,,,,,,,,,,,,,,,,,,,,,,,,,,,,,
,,001,2022-04-29_02h11.50.055,classification_task,2021.2.3,Win32,59.80861244,614b55e22ff3944a165736bb,626b377229c10585ec392f8a,626b3ae6363e73d9495d7bff,,,,,,,,,,,,,,,,,,,,,,,a,1,1.5394,"[""0.225"",""0.409"",""0.808"",""0.647""]","[1,1,1,0]",0,46,46,46,1,0,0,,,1,FALSE,,,,,,,,,,,,,,,,,,,,,,,,,,,,,,
,,001,2022-04-29_02h11.50.055,classification_task,2021.2.3,Win32,59.80861244,614b55e22ff3944a165736bb,626b377229c10585ec392f8a,626b3ae6363e73d9495d7bff,,,,,,,,,,,,,,,,,,,,,,,a,0,1.1414,"[""0.076"",""0.274"",""0.515"",""0.672""]","[1,1,1,0]",0,47,47,47,1,1,0,,,1,FALSE,,,,,,,,,,,,,,,,,,,,,,,,,,,,,,
,,001,2022-04-29_02h11.50.055,classification_task,2021.2.3,Win32,59.80861244,614b55e22ff3944a165736bb,626b377229c10585ec392f8a,626b3ae6363e73d9495d7bff,,,,,,,,,,,,,,,,,,,,,,,a,1,1.4745,"[""0.225"",""0.409"",""0.116"",""0.934""]","[1,1,0,1]",0,48,48,48,1,0,0,,,1,FALSE,,,,,,,,,,,,,,,,,,,,,,,,,,,,,,
,,001,2022-04-29_02h11.50.055,classification_task,2021.2.3,Win32,59.80861244,614b55e22ff3944a165736bb,626b377229c10585ec392f8a,626b3ae6363e73d9495d7bff,,,,,,,,,,,,,,,,,,,,,,,a,1,1.8062,"[""0.312"",""0.445"",""0.893"",""0.673""]","[1,1,1,0]",0,49,49,49,1,0,1,,,1,FALSE,,,,,,,,,,,,,,,,,,,,,,,,,,,,,,
,,001,2022-04-29_02h11.50.055,classification_task,2021.2.3,Win32,59.80861244,614b55e22ff3944a165736bb,626b377229c10585ec392f8a,626b3ae6363e73d9495d7bff,,,,,,,,,,,,,,,,,,,,,,,l,1,1.6376,"[""0.035"",""0.186"",""0.151"",""0.773""]","[1,1,0,1]",0,50,50,50,1,1,1,,,1,FALSE,,,,,,,,,,,,,,,,,,,,,,,,,,,,,,
,,001,2022-04-29_02h11.50.055,classification_task,2021.2.3,Win32,59.80861244,614b55e22ff3944a165736bb,626b377229c10585ec392f8a,626b3ae6363e73d9495d7bff,,,,,,,,,,,,,,,,,,,,,,,a,1,1.1841,"[""0.225"",""0.409"",""0.808"",""0.149""]","[1,1,1,0]",0,51,51,51,1,0,0,,,1,FALSE,,,,,,,,,,,,,,,,,,,,,,,,,,,,,,
,,001,2022-04-29_02h11.50.055,classification_task,2021.2.3,Win32,59.80861244,614b55e22ff3944a165736bb,626b377229c10585ec392f8a,626b3ae6363e73d9495d7bff,,,,,,,,,,,,,,,,,,,,,,,a,1,1.4578,"[""0.149"",""0.445"",""0.893"",""0.975""]","[0,1,1,1]",0,52,52,52,1,0,1,,,1,FALSE,,,,,,,,,,,,,,,,,,,,,,,,,,,,,,
,,001,2022-04-29_02h11.50.055,classification_task,2021.2.3,Win32,59.80861244,614b55e22ff3944a165736bb,626b377229c10585ec392f8a,626b3ae6363e73d9495d7bff,,,,,,,,,,,,,,,,,,,,,,,a,1,0.7883,"[""0.312"",""0.445"",""0.151"",""0.975""]","[1,1,0,1]",0,53,53,53,1,0,1,,,1,FALSE,,,,,,,,,,,,,,,,,,,,,,,,,,,,,,
,,001,2022-04-29_02h11.50.055,classification_task,2021.2.3,Win32,59.80861244,614b55e22ff3944a165736bb,626b377229c10585ec392f8a,626b3ae6363e73d9495d7bff,,,,,,,,,,,,,,,,,,,,,,,a,0,1.0421,"[""0.076"",""0.274"",""0.515"",""0.151""]","[1,1,1,0]",0,54,54,54,1,1,0,,,1,FALSE,,,,,,,,,,,,,,,,,,,,,,,,,,,,,,
,,001,2022-04-29_02h11.50.055,classification_task,2021.2.3,Win32,59.80861244,614b55e22ff3944a165736bb,626b377229c10585ec392f8a,626b3ae6363e73d9495d7bff,,,,,,,,,,,,,,,,,,,,,,,l,1,2.7706,"[""0.035"",""0.149"",""0.604"",""0.773""]","[1,0,1,1]",0,55,55,55,1,1,1,,,1,FALSE,,,,,,,,,,,,,,,,,,,,,,,,,,,,,,
,,001,2022-04-29_02h11.50.055,classification_task,2021.2.3,Win32,59.80861244,614b55e22ff3944a165736bb,626b377229c10585ec392f8a,626b3ae6363e73d9495d7bff,,,,,,,,,,,,,,,,,,,,,,,l,0,1.5887,"[""0.312"",""0.362"",""0.893"",""0.975""]","[1,0,1,1]",0,56,56,56,1,0,1,,,1,FALSE,,,,,,,,,,,,,,,,,,,,,,,,,,,,,,
,,001,2022-04-29_02h11.50.055,classification_task,2021.2.3,Win32,59.80861244,614b55e22ff3944a165736bb,626b377229c10585ec392f8a,626b3ae6363e73d9495d7bff,,,,,,,,,,,,,,,,,,,,,,,l,1,1.333,"[""0.076"",""0.356"",""0.515"",""0.729""]","[1,0,1,1]",0,57,57,57,1,1,0,,,1,FALSE,,,,,,,,,,,,,,,,,,,,,,,,,,,,,,
,,001,2022-04-29_02h11.50.055,classification_task,2021.2.3,Win32,59.80861244,614b55e22ff3944a165736bb,626b377229c10585ec392f8a,626b3ae6363e73d9495d7bff,,,,,,,,,,,,,,,,,,,,,,,a,0,1.1243,"[""0.672"",""0.274"",""0.515"",""0.729""]","[0,1,1,1]",0,58,58,58,1,1,0,,,1,FALSE,,,,,,,,,,,,,,,,,,,,,,,,,,,,,,
,,001,2022-04-29_02h11.50.055,classification_task,2021.2.3,Win32,59.80861244,614b55e22ff3944a165736bb,626b377229c10585ec392f8a,626b3ae6363e73d9495d7bff,,,,,,,,,,,,,,,,,,,,,,,l,0,2.4729,"[""0.846"",""0.409"",""0.808"",""0.934""]","[0,1,1,1]",0,59,59,59,1,0,0,,,1,FALSE,,,,,,,,,,,,,,,,,,,,,,,,,,,,,,
,,001,2022-04-29_02h11.50.055,classification_task,2021.2.3,Win32,59.80861244,614b55e22ff3944a165736bb,626b377229c10585ec392f8a,626b3ae6363e73d9495d7bff,,,,,,,,,,,,,,,,,,,,,,,a,0,1.3045,"[""0.137"",""0.186"",""0.604"",""0.773""]","[0,1,1,1]",0,60,60,60,1,1,1,,,1,FALSE,,,,,,,,,,,,,,,,,,,,,,,,,,,,,,
,,001,2022-04-29_02h11.50.055,classification_task,2021.2.3,Win32,59.80861244,614b55e22ff3944a165736bb,626b377229c10585ec392f8a,626b3ae6363e73d9495d7bff,,,,,,,,,,,,,,,,,,,,,,,a,0,1.1066,"[""0.076"",""0.274"",""0.151"",""0.729""]","[1,1,0,1]",0,61,61,61,1,1,0,,,1,FALSE,,,,,,,,,,,,,,,,,,,,,,,,,,,,,,
,,001,2022-04-29_02h11.50.055,classification_task,2021.2.3,Win32,59.80861244,614b55e22ff3944a165736bb,626b377229c10585ec392f8a,626b3ae6363e73d9495d7bff,,,,,,,,,,,,,,,,,,,,,,,a,0,2.5181,"[""0.035"",""0.186"",""0.604"",""0.673""]","[1,1,1,0]",0,62,62,62,1,1,1,,,1,FALSE,,,,,,,,,,,,,,,,,,,,,,,,,,,,,,
,,001,2022-04-29_02h11.50.055,classification_task,2021.2.3,Win32,59.80861244,614b55e22ff3944a165736bb,626b377229c10585ec392f8a,626b3ae6363e73d9495d7bff,,,,,,,,,,,,,,,,,,,,,,,a,1,2.3049,"[""0.225"",""0.137"",""0.808"",""0.934""]","[1,0,1,1]",0,63,63,63,1,0,0,,,1,FALSE,,,,,,,,,,,,,,,,,,,,,,,,,,,,,,
,,001,2022-04-29_02h11.50.055,classification_task,2021.2.3,Win32,59.80861244,614b55e22ff3944a165736bb,626b377229c10585ec392f8a,626b3ae6363e73d9495d7bff,,,,,,,,,,,,,,,,,,,,,,,,,,,,,,,,,,,,,,,0, ,,0,2.801538685,526.5541,0,0,0,0,1,2,1,,,,,,,,,,,,,,,,,
,,001,2022-04-29_02h11.50.055,classification_task,2021.2.3,Win32,59.80861244,614b55e22ff3944a165736bb,626b377229c10585ec392f8a,626b3ae6363e73d9495d7bff,,,,,,,,,,,,,,,,,,,,,,,,,,,,,,,,,,,,,,,1,  ,,0,4.197775444,540.1962,0,0,0,0,1,2,1,,,,,,,,,,,,,,,,,
,,001,2022-04-29_02h11.50.055,classification_task,2021.2.3,Win32,59.80861244,614b55e22ff3944a165736bb,626b377229c10585ec392f8a,626b3ae6363e73d9495d7bff,,,,,,,,,,,,,,,,,,,,,,,,,,,,,,,,,,,,,,,2,  ,,0,1.625758983,545.5968,0,0,0,0,1,2,1,,,,,,,,,,,,,,,,,
,,001,2022-04-29_02h11.50.055,classification_task,2021.2.3,Win32,59.80861244,614b55e22ff3944a165736bb,626b377229c10585ec392f8a,626b3ae6363e73d9495d7bff,,,,,,,,,,,,,,,,,,,,,,,,,,,,,,,,,,,,,,,,,,,,,0,0,0,0,1,,1,,,,,,,,,,,,,,,,,
,,001,2022-04-29_02h11.50.055,classification_task,2021.2.3,Win32,59.80861244,614b55e22ff3944a165736bb,626b377229c10585ec392f8a,626b3ae6363e73d9495d7bff,,,,,,,,,,,,,,,,,,,,,space,12.0927,l,1,2.1546,"[""0.673"",""0.274"",""0.515"",""0.729""]","[0,1,1,1]",0,0,0,0,1,1,0,,,1,FALSE,,,,,,,,,,,,,,,,,,,,,,,,,,,,,,
,,001,2022-04-29_02h11.50.055,classification_task,2021.2.3,Win32,59.80861244,614b55e22ff3944a165736bb,626b377229c10585ec392f8a,626b3ae6363e73d9495d7bff,,,,,,,,,,,,,,,,,,,,,,,a,1,4.5077,"[""0.312"",""0.445"",""0.133"",""0.975""]","[1,1,0,1]",0,1,1,1,1,0,1,,,1,FALSE,,,,,,,,,,,,,,,,,,,,,,,,,,,,,,
,,001,2022-04-29_02h11.50.055,classification_task,2021.2.3,Win32,59.80861244,614b55e22ff3944a165736bb,626b377229c10585ec392f8a,626b3ae6363e73d9495d7bff,,,,,,,,,,,,,,,,,,,,,,,a,1,2.5182,"[""0.225"",""0.409"",""0.116"",""0.934""]","[1,1,0,1]",0,2,2,2,1,0,0,,,1,FALSE,,,,,,,,,,,,,,,,,,,,,,,,,,,,,,
,,001,2022-04-29_02h11.50.055,classification_task,2021.2.3,Win32,59.80861244,614b55e22ff3944a165736bb,626b377229c10585ec392f8a,626b3ae6363e73d9495d7bff,,,,,,,,,,,,,,,,,,,,,,,l,1,1.7874,"[""0.076"",""0.274"",""0.846"",""0.729""]","[1,1,0,1]",0,3,3,3,1,1,0,,,1,FALSE,,,,,,,,,,,,,,,,,,,,,,,,,,,,,,
,,001,2022-04-29_02h11.50.055,classification_task,2021.2.3,Win32,59.80861244,614b55e22ff3944a165736bb,626b377229c10585ec392f8a,626b3ae6363e73d9495d7bff,,,,,,,,,,,,,,,,,,,,,,,l,1,1.6827,"[""0.076"",""0.352"",""0.515"",""0.729""]","[1,0,1,1]",0,4,4,4,1,1,0,,,1,FALSE,,,,,,,,,,,,,,,,,,,,,,,,,,,,,,
,,001,2022-04-29_02h11.50.055,classification_task,2021.2.3,Win32,59.80861244,614b55e22ff3944a165736bb,626b377229c10585ec392f8a,626b3ae6363e73d9495d7bff,,,,,,,,,,,,,,,,,,,,,,,a,1,0.7572,"[""0.225"",""0.409"",""0.808"",""0.673""]","[1,1,1,0]",0,5,5,5,1,0,0,,,1,FALSE,,,,,,,,,,,,,,,,,,,,,,,,,,,,,,
,,001,2022-04-29_02h11.50.055,classification_task,2021.2.3,Win32,59.80861244,614b55e22ff3944a165736bb,626b377229c10585ec392f8a,626b3ae6363e73d9495d7bff,,,,,,,,,,,,,,,,,,,,,,,l,1,2.6082,"[""0.076"",""0.274"",""0.515"",""0.352""]","[1,1,1,0]",0,6,6,6,1,1,0,,,1,FALSE,,,,,,,,,,,,,,,,,,,,,,,,,,,,,,
,,001,2022-04-29_02h11.50.055,classification_task,2021.2.3,Win32,59.80861244,614b55e22ff3944a165736bb,626b377229c10585ec392f8a,626b3ae6363e73d9495d7bff,,,,,,,,,,,,,,,,,,,,,,,a,1,1.8052,"[""0.225"",""0.561"",""0.808"",""0.934""]","[1,0,1,1]",0,7,7,7,1,0,0,,,1,FALSE,,,,,,,,,,,,,,,,,,,,,,,,,,,,,,
,,001,2022-04-29_02h11.50.055,classification_task,2021.2.3,Win32,59.80861244,614b55e22ff3944a165736bb,626b377229c10585ec392f8a,626b3ae6363e73d9495d7bff,,,,,,,,,,,,,,,,,,,,,,,a,1,1.4522,"[""0.312"",""0.137"",""0.893"",""0.975""]","[1,0,1,1]",0,8,8,8,1,0,1,,,1,FALSE,,,,,,,,,,,,,,,,,,,,,,,,,,,,,,
,,001,2022-04-29_02h11.50.055,classification_task,2021.2.3,Win32,59.80861244,614b55e22ff3944a165736bb,626b377229c10585ec392f8a,626b3ae6363e73d9495d7bff,,,,,,,,,,,,,,,,,,,,,,,l,1,0.72,"[""0.035"",""0.186"",""0.604"",""0.133""]","[1,1,1,0]",0,9,9,9,1,1,1,,,1,FALSE,,,,,,,,,,,,,,,,,,,,,,,,,,,,,,
,,001,2022-04-29_02h11.50.055,classification_task,2021.2.3,Win32,59.80861244,614b55e22ff3944a165736bb,626b377229c10585ec392f8a,626b3ae6363e73d9495d7bff,,,,,,,,,,,,,,,,,,,,,,,l,1,0.6832,"[""0.673"",""0.186"",""0.604"",""0.773""]","[0,1,1,1]",0,10,10,10,1,1,1,,,1,FALSE,,,,,,,,,,,,,,,,,,,,,,,,,,,,,,
,,001,2022-04-29_02h11.50.055,classification_task,2021.2.3,Win32,59.80861244,614b55e22ff3944a165736bb,626b377229c10585ec392f8a,626b3ae6363e73d9495d7bff,,,,,,,,,,,,,,,,,,,,,,,a,1,0.6211,"[""0.312"",""0.445"",""0.893"",""0.116""]","[1,1,1,0]",0,11,11,11,1,0,1,,,1,FALSE,,,,,,,,,,,,,,,,,,,,,,,,,,,,,,
,,001,2022-04-29_02h11.50.055,classification_task,2021.2.3,Win32,59.80861244,614b55e22ff3944a165736bb,626b377229c10585ec392f8a,626b3ae6363e73d9495d7bff,,,,,,,,,,,,,,,,,,,,,,,l,1,0.9857,"[""0.035"",""0.186"",""0.149"",""0.773""]","[1,1,0,1]",0,12,12,12,1,1,1,,,1,FALSE,,,,,,,,,,,,,,,,,,,,,,,,,,,,,,
,,001,2022-04-29_02h11.50.055,classification_task,2021.2.3,Win32,59.80861244,614b55e22ff3944a165736bb,626b377229c10585ec392f8a,626b3ae6363e73d9495d7bff,,,,,,,,,,,,,,,,,,,,,,,l,1,0.5359,"[""0.035"",""0.356"",""0.604"",""0.773""]","[1,0,1,1]",0,13,13,13,1,1,1,,,1,FALSE,,,,,,,,,,,,,,,,,,,,,,,,,,,,,,
,,001,2022-04-29_02h11.50.055,classification_task,2021.2.3,Win32,59.80861244,614b55e22ff3944a165736bb,626b377229c10585ec392f8a,626b3ae6363e73d9495d7bff,,,,,,,,,,,,,,,,,,,,,,,l,0,2.6604,"[""0.143"",""0.409"",""0.808"",""0.934""]","[0,1,1,1]",0,14,14,14,1,0,0,,,1,FALSE,,,,,,,,,,,,,,,,,,,,,,,,,,,,,,
,,001,2022-04-29_02h11.50.055,classification_task,2021.2.3,Win32,59.80861244,614b55e22ff3944a165736bb,626b377229c10585ec392f8a,626b3ae6363e73d9495d7bff,,,,,,,,,,,,,,,,,,,,,,,l,0,0.7998,"[""0.561"",""0.445"",""0.893"",""0.975""]","[0,1,1,1]",0,15,15,15,1,0,1,,,1,FALSE,,,,,,,,,,,,,,,,,,,,,,,,,,,,,,
,,001,2022-04-29_02h11.50.055,classification_task,2021.2.3,Win32,59.80861244,614b55e22ff3944a165736bb,626b377229c10585ec392f8a,626b3ae6363e73d9495d7bff,,,,,,,,,,,,,,,,,,,,,,,l,1,2.7368,"[""0.076"",""0.274"",""0.515"",""0.149""]","[1,1,1,0]",0,16,16,16,1,1,0,,,1,FALSE,,,,,,,,,,,,,,,,,,,,,,,,,,,,,,
,,001,2022-04-29_02h11.50.055,classification_task,2021.2.3,Win32,59.80861244,614b55e22ff3944a165736bb,626b377229c10585ec392f8a,626b3ae6363e73d9495d7bff,,,,,,,,,,,,,,,,,,,,,,,l,1,0.7178,"[""0.035"",""0.186"",""0.604"",""0.673""]","[1,1,1,0]",0,17,17,17,1,1,1,,,1,FALSE,,,,,,,,,,,,,,,,,,,,,,,,,,,,,,
,,001,2022-04-29_02h11.50.055,classification_task,2021.2.3,Win32,59.80861244,614b55e22ff3944a165736bb,626b377229c10585ec392f8a,626b3ae6363e73d9495d7bff,,,,,,,,,,,,,,,,,,,,,,,a,1,0.568,"[""0.312"",""0.445"",""0.561"",""0.975""]","[1,1,0,1]",0,18,18,18,1,0,1,,,1,FALSE,,,,,,,,,,,,,,,,,,,,,,,,,,,,,,
,,001,2022-04-29_02h11.50.055,classification_task,2021.2.3,Win32,59.80861244,614b55e22ff3944a165736bb,626b377229c10585ec392f8a,626b3ae6363e73d9495d7bff,,,,,,,,,,,,,,,,,,,,,,,a,1,0.4871,"[""0.312"",""0.673"",""0.893"",""0.975""]","[1,0,1,1]",0,19,19,19,1,0,1,,,1,FALSE,,,,,,,,,,,,,,,,,,,,,,,,,,,,,,
,,001,2022-04-29_02h11.50.055,classification_task,2021.2.3,Win32,59.80861244,614b55e22ff3944a165736bb,626b377229c10585ec392f8a,626b3ae6363e73d9495d7bff,,,,,,,,,,,,,,,,,,,,,,,l,0,1.2127,"[""0.846"",""0.409"",""0.808"",""0.934""]","[0,1,1,1]",0,20,20,20,1,0,0,,,1,FALSE,,,,,,,,,,,,,,,,,,,,,,,,,,,,,,
,,001,2022-04-29_02h11.50.055,classification_task,2021.2.3,Win32,59.80861244,614b55e22ff3944a165736bb,626b377229c10585ec392f8a,626b3ae6363e73d9495d7bff,,,,,,,,,,,,,,,,,,,,,,,a,1,1.104,"[""0.225"",""0.409"",""0.673"",""0.934""]","[1,1,0,1]",0,21,21,21,1,0,0,,,1,FALSE,,,,,,,,,,,,,,,,,,,,,,,,,,,,,,
,,001,2022-04-29_02h11.50.055,classification_task,2021.2.3,Win32,59.80861244,614b55e22ff3944a165736bb,626b377229c10585ec392f8a,626b3ae6363e73d9495d7bff,,,,,,,,,,,,,,,,,,,,,,,a,0,1.4013,"[""0.076"",""0.116"",""0.515"",""0.729""]","[1,0,1,1]",0,22,22,22,1,1,0,,,1,FALSE,,,,,,,,,,,,,,,,,,,,,,,,,,,,,,
,,001,2022-04-29_02h11.50.055,classification_task,2021.2.3,Win32,59.80861244,614b55e22ff3944a165736bb,626b377229c10585ec392f8a,626b3ae6363e73d9495d7bff,,,,,,,,,,,,,,,,,,,,,,,a,1,0.6122,"[""0.356"",""0.445"",""0.893"",""0.975""]","[0,1,1,1]",0,23,23,23,1,0,1,,,1,FALSE,,,,,,,,,,,,,,,,,,,,,,,,,,,,,,
,,001,2022-04-29_02h11.50.055,classification_task,2021.2.3,Win32,59.80861244,614b55e22ff3944a165736bb,626b377229c10585ec392f8a,626b3ae6363e73d9495d7bff,,,,,,,,,,,,,,,,,,,,,,,l,1,0.5052,"[""0.362"",""0.186"",""0.604"",""0.773""]","[0,1,1,1]",0,24,24,24,1,1,1,,,1,FALSE,,,,,,,,,,,,,,,,,,,,,,,,,,,,,,
,,001,2022-04-29_02h11.50.055,classification_task,2021.2.3,Win32,59.80861244,614b55e22ff3944a165736bb,626b377229c10585ec392f8a,626b3ae6363e73d9495d7bff,,,,,,,,,,,,,,,,,,,,,,,a,0,1.599,"[""0.076"",""0.274"",""0.148"",""0.729""]","[1,1,0,1]",0,25,25,25,1,1,0,,,1,FALSE,,,,,,,,,,,,,,,,,,,,,,,,,,,,,,
,,001,2022-04-29_02h11.50.055,classification_task,2021.2.3,Win32,59.80861244,614b55e22ff3944a165736bb,626b377229c10585ec392f8a,626b3ae6363e73d9495d7bff,,,,,,,,,,,,,,,,,,,,,,,a,1,0.6624,"[""0.312"",""0.445"",""0.893"",""0.116""]","[1,1,1,0]",0,26,26,26,1,0,1,,,1,FALSE,,,,,,,,,,,,,,,,,,,,,,,,,,,,,,
,,001,2022-04-29_02h11.50.055,classification_task,2021.2.3,Win32,59.80861244,614b55e22ff3944a165736bb,626b377229c10585ec392f8a,626b3ae6363e73d9495d7bff,,,,,,,,,,,,,,,,,,,,,,,a,1,0.9171,"[""0.225"",""0.143"",""0.808"",""0.934""]","[1,0,1,1]",0,27,27,27,1,0,0,,,1,FALSE,,,,,,,,,,,,,,,,,,,,,,,,,,,,,,
,,001,2022-04-29_02h11.50.055,classification_task,2021.2.3,Win32,59.80861244,614b55e22ff3944a165736bb,626b377229c10585ec392f8a,626b3ae6363e73d9495d7bff,,,,,,,,,,,,,,,,,,,,,,,l,1,1.1925,"[""0.149"",""0.274"",""0.515"",""0.729""]","[0,1,1,1]",0,28,28,28,1,1,0,,,1,FALSE,,,,,,,,,,,,,,,,,,,,,,,,,,,,,,
,,001,2022-04-29_02h11.50.055,classification_task,2021.2.3,Win32,59.80861244,614b55e22ff3944a165736bb,626b377229c10585ec392f8a,626b3ae6363e73d9495d7bff,,,,,,,,,,,,,,,,,,,,,,,l,0,0.7611,"[""0.225"",""0.409"",""0.808"",""0.148""]","[1,1,1,0]",0,29,29,29,1,0,0,,,1,FALSE,,,,,,,,,,,,,,,,,,,,,,,,,,,,,,
,,001,2022-04-29_02h11.50.055,classification_task,2021.2.3,Win32,59.80861244,614b55e22ff3944a165736bb,626b377229c10585ec392f8a,626b3ae6363e73d9495d7bff,,,,,,,,,,,,,,,,,,,,,,,l,1,1.0219,"[""0.035"",""0.672"",""0.604"",""0.773""]","[1,0,1,1]",0,30,30,30,1,1,1,,,1,FALSE,,,,,,,,,,,,,,,,,,,,,,,,,,,,,,
,,001,2022-04-29_02h11.50.055,classification_task,2021.2.3,Win32,59.80861244,614b55e22ff3944a165736bb,626b377229c10585ec392f8a,626b3ae6363e73d9495d7bff,,,,,,,,,,,,,,,,,,,,,,,l,1,0.5699,"[""0.035"",""0.186"",""0.148"",""0.773""]","[1,1,0,1]",0,31,31,31,1,1,1,,,1,FALSE,,,,,,,,,,,,,,,,,,,,,,,,,,,,,,
,,001,2022-04-29_02h11.50.055,classification_task,2021.2.3,Win32,59.80861244,614b55e22ff3944a165736bb,626b377229c10585ec392f8a,626b3ae6363e73d9495d7bff,,,,,,,,,,,,,,,,,,,,,,,l,1,0.7381,"[""0.673"",""0.186"",""0.604"",""0.773""]","[0,1,1,1]",0,32,32,32,1,1,1,,,1,FALSE,,,,,,,,,,,,,,,,,,,,,,,,,,,,,,
,,001,2022-04-29_02h11.50.055,classification_task,2021.2.3,Win32,59.80861244,614b55e22ff3944a165736bb,626b377229c10585ec392f8a,626b3ae6363e73d9495d7bff,,,,,,,,,,,,,,,,,,,,,,,l,1,1.3467,"[""0.076"",""0.143"",""0.515"",""0.729""]","[1,0,1,1]",0,33,33,33,1,1,0,,,1,FALSE,,,,,,,,,,,,,,,,,,,,,,,,,,,,,,
,,001,2022-04-29_02h11.50.055,classification_task,2021.2.3,Win32,59.80861244,614b55e22ff3944a165736bb,626b377229c10585ec392f8a,626b3ae6363e73d9495d7bff,,,,,,,,,,,,,,,,,,,,,,,a,1,3.0684,"[""0.225"",""0.672"",""0.808"",""0.934""]","[1,0,1,1]",0,34,34,34,1,0,0,,,1,FALSE,,,,,,,,,,,,,,,,,,,,,,,,,,,,,,
,,001,2022-04-29_02h11.50.055,classification_task,2021.2.3,Win32,59.80861244,614b55e22ff3944a165736bb,626b377229c10585ec392f8a,626b3ae6363e73d9495d7bff,,,,,,,,,,,,,,,,,,,,,,,l,1,0.6996,"[""0.035"",""0.186"",""0.352"",""0.773""]","[1,1,0,1]",0,35,35,35,1,1,1,,,1,FALSE,,,,,,,,,,,,,,,,,,,,,,,,,,,,,,
,,001,2022-04-29_02h11.50.055,classification_task,2021.2.3,Win32,59.80861244,614b55e22ff3944a165736bb,626b377229c10585ec392f8a,626b3ae6363e73d9495d7bff,,,,,,,,,,,,,,,,,,,,,,,l,1,1.3147,"[""0.076"",""0.274"",""0.143"",""0.729""]","[1,1,0,1]",0,36,36,36,1,1,0,,,1,FALSE,,,,,,,,,,,,,,,,,,,,,,,,,,,,,,
,,001,2022-04-29_02h11.50.055,classification_task,2021.2.3,Win32,59.80861244,614b55e22ff3944a165736bb,626b377229c10585ec392f8a,626b3ae6363e73d9495d7bff,,,,,,,,,,,,,,,,,,,,,,,a,1,0.7322,"[""0.225"",""0.409"",""0.116"",""0.934""]","[1,1,0,1]",0,37,37,37,1,0,0,,,1,FALSE,,,,,,,,,,,,,,,,,,,,,,,,,,,,,,
,,001,2022-04-29_02h11.50.055,classification_task,2021.2.3,Win32,59.80861244,614b55e22ff3944a165736bb,626b377229c10585ec392f8a,626b3ae6363e73d9495d7bff,,,,,,,,,,,,,,,,,,,,,,,l,1,0.7465,"[""0.035"",""0.672"",""0.604"",""0.773""]","[1,0,1,1]",0,38,38,38,1,1,1,,,1,FALSE,,,,,,,,,,,,,,,,,,,,,,,,,,,,,,
,,001,2022-04-29_02h11.50.055,classification_task,2021.2.3,Win32,59.80861244,614b55e22ff3944a165736bb,626b377229c10585ec392f8a,626b3ae6363e73d9495d7bff,,,,,,,,,,,,,,,,,,,,,,,a,1,0.517,"[""0.312"",""0.445"",""0.893"",""0.362""]","[1,1,1,0]",0,39,39,39,1,0,1,,,1,FALSE,,,,,,,,,,,,,,,,,,,,,,,,,,,,,,
,,001,2022-04-29_02h11.50.055,classification_task,2021.2.3,Win32,59.80861244,614b55e22ff3944a165736bb,626b377229c10585ec392f8a,626b3ae6363e73d9495d7bff,,,,,,,,,,,,,,,,,,,,,,,a,1,1.0004,"[""0.225"",""0.409"",""0.808"",""0.116""]","[1,1,1,0]",0,40,40,40,1,0,0,,,1,FALSE,,,,,,,,,,,,,,,,,,,,,,,,,,,,,,
,,001,2022-04-29_02h11.50.055,classification_task,2021.2.3,Win32,59.80861244,614b55e22ff3944a165736bb,626b377229c10585ec392f8a,626b3ae6363e73d9495d7bff,,,,,,,,,,,,,,,,,,,,,,,a,1,0.8469,"[""0.312"",""0.352"",""0.893"",""0.975""]","[1,0,1,1]",0,41,41,41,1,0,1,,,1,FALSE,,,,,,,,,,,,,,,,,,,,,,,,,,,,,,
,,001,2022-04-29_02h11.50.055,classification_task,2021.2.3,Win32,59.80861244,614b55e22ff3944a165736bb,626b377229c10585ec392f8a,626b3ae6363e73d9495d7bff,,,,,,,,,,,,,,,,,,,,,,,l,1,1.2804,"[""0.352"",""0.274"",""0.515"",""0.729""]","[0,1,1,1]",0,42,42,42,1,1,0,,,1,FALSE,,,,,,,,,,,,,,,,,,,,,,,,,,,,,,
,,001,2022-04-29_02h11.50.055,classification_task,2021.2.3,Win32,59.80861244,614b55e22ff3944a165736bb,626b377229c10585ec392f8a,626b3ae6363e73d9495d7bff,,,,,,,,,,,,,,,,,,,,,,,a,1,0.5951,"[""0.312"",""0.445"",""0.356"",""0.975""]","[1,1,0,1]",0,43,43,43,1,0,1,,,1,FALSE,,,,,,,,,,,,,,,,,,,,,,,,,,,,,,
,,001,2022-04-29_02h11.50.055,classification_task,2021.2.3,Win32,59.80861244,614b55e22ff3944a165736bb,626b377229c10585ec392f8a,626b3ae6363e73d9495d7bff,,,,,,,,,,,,,,,,,,,,,,,l,1,0.5393,"[""0.035"",""0.186"",""0.604"",""0.137""]","[1,1,1,0]",0,44,44,44,1,1,1,,,1,FALSE,,,,,,,,,,,,,,,,,,,,,,,,,,,,,,
,,001,2022-04-29_02h11.50.055,classification_task,2021.2.3,Win32,59.80861244,614b55e22ff3944a165736bb,626b377229c10585ec392f8a,626b3ae6363e73d9495d7bff,,,,,,,,,,,,,,,,,,,,,,,a,1,0.5905,"[""0.151"",""0.445"",""0.893"",""0.975""]","[0,1,1,1]",0,45,45,45,1,0,1,,,1,FALSE,,,,,,,,,,,,,,,,,,,,,,,,,,,,,,
,,001,2022-04-29_02h11.50.055,classification_task,2021.2.3,Win32,59.80861244,614b55e22ff3944a165736bb,626b377229c10585ec392f8a,626b3ae6363e73d9495d7bff,,,,,,,,,,,,,,,,,,,,,,,l,1,1.2458,"[""0.076"",""0.274"",""0.515"",""0.356""]","[1,1,1,0]",0,46,46,46,1,1,0,,,1,FALSE,,,,,,,,,,,,,,,,,,,,,,,,,,,,,,
,,001,2022-04-29_02h11.50.055,classification_task,2021.2.3,Win32,59.80861244,614b55e22ff3944a165736bb,626b377229c10585ec392f8a,626b3ae6363e73d9495d7bff,,,,,,,,,,,,,,,,,,,,,,,l,0,1.4647,"[""0.148"",""0.409"",""0.808"",""0.934""]","[0,1,1,1]",0,47,47,47,1,0,0,,,1,FALSE,,,,,,,,,,,,,,,,,,,,,,,,,,,,,,
,,001,2022-04-29_02h11.50.055,classification_task,2021.2.3,Win32,59.80861244,614b55e22ff3944a165736bb,626b377229c10585ec392f8a,626b3ae6363e73d9495d7bff,,,,,,,,,,,,,,,,,,,,,,,a,1,1.5463,"[""0.312"",""0.116"",""0.893"",""0.975""]","[1,0,1,1]",0,48,48,48,1,0,1,,,1,FALSE,,,,,,,,,,,,,,,,,,,,,,,,,,,,,,
,,001,2022-04-29_02h11.50.055,classification_task,2021.2.3,Win32,59.80861244,614b55e22ff3944a165736bb,626b377229c10585ec392f8a,626b3ae6363e73d9495d7bff,,,,,,,,,,,,,,,,,,,,,,,l,1,1.9798,"[""0.076"",""0.673"",""0.515"",""0.729""]","[1,0,1,1]",0,49,49,49,1,1,0,,,1,FALSE,,,,,,,,,,,,,,,,,,,,,,,,,,,,,,
,,001,2022-04-29_02h11.50.055,classification_task,2021.2.3,Win32,59.80861244,614b55e22ff3944a165736bb,626b377229c10585ec392f8a,626b3ae6363e73d9495d7bff,,,,,,,,,,,,,,,,,,,,,,,a,1,0.847,"[""0.312"",""0.445"",""0.149"",""0.975""]","[1,1,0,1]",0,50,50,50,1,0,1,,,1,FALSE,,,,,,,,,,,,,,,,,,,,,,,,,,,,,,
,,001,2022-04-29_02h11.50.055,classification_task,2021.2.3,Win32,59.80861244,614b55e22ff3944a165736bb,626b377229c10585ec392f8a,626b3ae6363e73d9495d7bff,,,,,,,,,,,,,,,,,,,,,,,l,1,0.8582,"[""0.149"",""0.186"",""0.604"",""0.773""]","[0,1,1,1]",0,51,51,51,1,1,1,,,1,FALSE,,,,,,,,,,,,,,,,,,,,,,,,,,,,,,
,,001,2022-04-29_02h11.50.055,classification_task,2021.2.3,Win32,59.80861244,614b55e22ff3944a165736bb,626b377229c10585ec392f8a,626b3ae6363e73d9495d7bff,,,,,,,,,,,,,,,,,,,,,,,l,1,1.8839,"[""0.076"",""0.274"",""0.133"",""0.729""]","[1,1,0,1]",0,52,52,52,1,1,0,,,1,FALSE,,,,,,,,,,,,,,,,,,,,,,,,,,,,,,
,,001,2022-04-29_02h11.50.055,classification_task,2021.2.3,Win32,59.80861244,614b55e22ff3944a165736bb,626b377229c10585ec392f8a,626b3ae6363e73d9495d7bff,,,,,,,,,,,,,,,,,,,,,,,a,1,1.7221,"[""0.225"",""0.409"",""0.137"",""0.934""]","[1,1,0,1]",0,53,53,53,1,0,0,,,1,FALSE,,,,,,,,,,,,,,,,,,,,,,,,,,,,,,
,,001,2022-04-29_02h11.50.055,classification_task,2021.2.3,Win32,59.80861244,614b55e22ff3944a165736bb,626b377229c10585ec392f8a,626b3ae6363e73d9495d7bff,,,,,,,,,,,,,,,,,,,,,,,a,1,4.1239,"[""0.225"",""0.647"",""0.808"",""0.934""]","[1,0,1,1]",0,54,54,54,1,0,0,,,1,FALSE,,,,,,,,,,,,,,,,,,,,,,,,,,,,,,
,,001,2022-04-29_02h11.50.055,classification_task,2021.2.3,Win32,59.80861244,614b55e22ff3944a165736bb,626b377229c10585ec392f8a,626b3ae6363e73d9495d7bff,,,,,,,,,,,,,,,,,,,,,,,a,1,1.1843,"[""0.312"",""0.445"",""0.893"",""0.137""]","[1,1,1,0]",0,55,55,55,1,0,1,,,1,FALSE,,,,,,,,,,,,,,,,,,,,,,,,,,,,,,
,,001,2022-04-29_02h11.50.055,classification_task,2021.2.3,Win32,59.80861244,614b55e22ff3944a165736bb,626b377229c10585ec392f8a,626b3ae6363e73d9495d7bff,,,,,,,,,,,,,,,,,,,,,,,l,1,0.9217,"[""0.035"",""0.186"",""0.604"",""0.133""]","[1,1,1,0]",0,56,56,56,1,1,1,,,1,FALSE,,,,,,,,,,,,,,,,,,,,,,,,,,,,,,
,,001,2022-04-29_02h11.50.055,classification_task,2021.2.3,Win32,59.80861244,614b55e22ff3944a165736bb,626b377229c10585ec392f8a,626b3ae6363e73d9495d7bff,,,,,,,,,,,,,,,,,,,,,,,a,1,1.7461,"[""0.225"",""0.409"",""0.808"",""0.116""]","[1,1,1,0]",0,57,57,57,1,0,0,,,1,FALSE,,,,,,,,,,,,,,,,,,,,,,,,,,,,,,
,,001,2022-04-29_02h11.50.055,classification_task,2021.2.3,Win32,59.80861244,614b55e22ff3944a165736bb,626b377229c10585ec392f8a,626b3ae6363e73d9495d7bff,,,,,,,,,,,,,,,,,,,,,,,l,1,0.9629,"[""0.035"",""0.362"",""0.604"",""0.773""]","[1,0,1,1]",0,58,58,58,1,1,1,,,1,FALSE,,,,,,,,,,,,,,,,,,,,,,,,,,,,,,
,,001,2022-04-29_02h11.50.055,classification_task,2021.2.3,Win32,59.80861244,614b55e22ff3944a165736bb,626b377229c10585ec392f8a,626b3ae6363e73d9495d7bff,,,,,,,,,,,,,,,,,,,,,,,a,1,2.0314,"[""0.672"",""0.409"",""0.808"",""0.934""]","[0,1,1,1]",0,59,59,59,1,0,0,,,1,FALSE,,,,,,,,,,,,,,,,,,,,,,,,,,,,,,
,,001,2022-04-29_02h11.50.055,classification_task,2021.2.3,Win32,59.80861244,614b55e22ff3944a165736bb,626b377229c10585ec392f8a,626b3ae6363e73d9495d7bff,,,,,,,,,,,,,,,,,,,,,,,l,1,0.8443,"[""0.035"",""0.186"",""0.673"",""0.773""]","[1,1,0,1]",0,60,60,60,1,1,1,,,1,FALSE,,,,,,,,,,,,,,,,,,,,,,,,,,,,,,
,,001,2022-04-29_02h11.50.055,classification_task,2021.2.3,Win32,59.80861244,614b55e22ff3944a165736bb,626b377229c10585ec392f8a,626b3ae6363e73d9495d7bff,,,,,,,,,,,,,,,,,,,,,,,l,1,1.877,"[""0.137"",""0.274"",""0.515"",""0.729""]","[0,1,1,1]",0,61,61,61,1,1,0,,,1,FALSE,,,,,,,,,,,,,,,,,,,,,,,,,,,,,,
,,001,2022-04-29_02h11.50.055,classification_task,2021.2.3,Win32,59.80861244,614b55e22ff3944a165736bb,626b377229c10585ec392f8a,626b3ae6363e73d9495d7bff,,,,,,,,,,,,,,,,,,,,,,,l,1,2.4648,"[""0.076"",""0.274"",""0.515"",""0.148""]","[1,1,1,0]",0,62,62,62,1,1,0,,,1,FALSE,,,,,,,,,,,,,,,,,,,,,,,,,,,,,,
,,001,2022-04-29_02h11.50.055,classification_task,2021.2.3,Win32,59.80861244,614b55e22ff3944a165736bb,626b377229c10585ec392f8a,626b3ae6363e73d9495d7bff,,,,,,,,,,,,,,,,,,,,,,,a,1,0.9669,"[""0.362"",""0.445"",""0.893"",""0.975""]","[0,1,1,1]",0,63,63,63,1,0,1,,,1,FALSE,,,,,,,,,,,,,,,,,,,,,,,,,,,,,,
,,001,2022-04-29_02h11.50.055,classification_task,2021.2.3,Win32,59.80861244,614b55e22ff3944a165736bb,626b377229c10585ec392f8a,626b3ae6363e73d9495d7bff,,,,,,,,,,,,,,,,,,,,,,,,,,,,,,,,,,,,,,,0, ,,0,0.40098924,179.5618,0,1,1,1,1,2,2,,,,,,,,,,,,,,,,,
,,001,2022-04-29_02h11.50.055,classification_task,2021.2.3,Win32,59.80861244,614b55e22ff3944a165736bb,626b377229c10585ec392f8a,626b3ae6363e73d9495d7bff,,,,,,,,,,,,,,,,,,,,,,,,,,,,,,,,,,,,,,,1,  ,,0,1.086861044,182.8515,0,1,1,1,1,2,2,,,,,,,,,,,,,,,,,
,,001,2022-04-29_02h11.50.055,classification_task,2021.2.3,Win32,59.80861244,614b55e22ff3944a165736bb,626b377229c10585ec392f8a,626b3ae6363e73d9495d7bff,,,,,,,,,,,,,,,,,,,,,,,,,,,,,,,,,,,,,,,2,  ,,0,1.062366023,185.0311,0,1,1,1,1,2,2,,,,,,,,,,,,,,,,,
,,001,2022-04-29_02h11.50.055,classification_task,2021.2.3,Win32,59.80861244,614b55e22ff3944a165736bb,626b377229c10585ec392f8a,626b3ae6363e73d9495d7bff,,,,,,,,,,,,,,,,,,,,,,,,,,,,,,,,,,,,,,,,,,,,,0,1,1,1,1,,2,,,,,,,,,,,,,,,,,
,,001,2022-04-29_02h11.50.055,classification_task,2021.2.3,Win32,59.80861244,614b55e22ff3944a165736bb,626b377229c10585ec392f8a,626b3ae6363e73d9495d7bff,,,,,,,,,,,,,,,,,,,,,space,4.5988,a,1,2.2661,"[""0.225"",""0.409"",""0.149"",""0.934""]","[1,1,0,1]",0,0,0,0,1,0,0,,,1,FALSE,,,,,,,,,,,,,,,,,,,,,,,,,,,,,,
,,001,2022-04-29_02h11.50.055,classification_task,2021.2.3,Win32,59.80861244,614b55e22ff3944a165736bb,626b377229c10585ec392f8a,626b3ae6363e73d9495d7bff,,,,,,,,,,,,,,,,,,,,,,,l,1,4.5876,"[""0.151"",""0.186"",""0.604"",""0.773""]","[0,1,1,1]",0,1,1,1,1,1,1,,,1,FALSE,,,,,,,,,,,,,,,,,,,,,,,,,,,,,,
,,001,2022-04-29_02h11.50.055,classification_task,2021.2.3,Win32,59.80861244,614b55e22ff3944a165736bb,626b377229c10585ec392f8a,626b3ae6363e73d9495d7bff,,,,,,,,,,,,,,,,,,,,,,,l,1,2.3223,"[""0.076"",""0.356"",""0.515"",""0.729""]","[1,0,1,1]",0,2,2,2,1,1,0,,,1,FALSE,,,,,,,,,,,,,,,,,,,,,,,,,,,,,,
,,001,2022-04-29_02h11.50.055,classification_task,2021.2.3,Win32,59.80861244,614b55e22ff3944a165736bb,626b377229c10585ec392f8a,626b3ae6363e73d9495d7bff,,,,,,,,,,,,,,,,,,,,,,,a,1,4.022,"[""0.312"",""0.445"",""0.148"",""0.975""]","[1,1,0,1]",0,3,3,3,1,0,1,,,1,FALSE,,,,,,,,,,,,,,,,,,,,,,,,,,,,,,
,,001,2022-04-29_02h11.50.055,classification_task,2021.2.3,Win32,59.80861244,614b55e22ff3944a165736bb,626b377229c10585ec392f8a,626b3ae6363e73d9495d7bff,,,,,,,,,,,,,,,,,,,,,,,a,1,0.5622,"[""0.225"",""0.409"",""0.808"",""0.647""]","[1,1,1,0]",0,4,4,4,1,0,0,,,1,FALSE,,,,,,,,,,,,,,,,,,,,,,,,,,,,,,
,,001,2022-04-29_02h11.50.055,classification_task,2021.2.3,Win32,59.80861244,614b55e22ff3944a165736bb,626b377229c10585ec392f8a,626b3ae6363e73d9495d7bff,,,,,,,,,,,,,,,,,,,,,,,l,1,0.9178,"[""0.149"",""0.274"",""0.515"",""0.729""]","[0,1,1,1]",0,5,5,5,1,1,0,,,1,FALSE,,,,,,,,,,,,,,,,,,,,,,,,,,,,,,
,,001,2022-04-29_02h11.50.055,classification_task,2021.2.3,Win32,59.80861244,614b55e22ff3944a165736bb,626b377229c10585ec392f8a,626b3ae6363e73d9495d7bff,,,,,,,,,,,,,,,,,,,,,,,a,1,1.3347,"[""0.312"",""0.445"",""0.893"",""0.647""]","[1,1,1,0]",0,6,6,6,1,0,1,,,1,FALSE,,,,,,,,,,,,,,,,,,,,,,,,,,,,,,
,,001,2022-04-29_02h11.50.055,classification_task,2021.2.3,Win32,59.80861244,614b55e22ff3944a165736bb,626b377229c10585ec392f8a,626b3ae6363e73d9495d7bff,,,,,,,,,,,,,,,,,,,,,,,a,1,0.9344,"[""0.225"",""0.846"",""0.808"",""0.934""]","[1,0,1,1]",0,7,7,7,1,0,0,,,1,FALSE,,,,,,,,,,,,,,,,,,,,,,,,,,,,,,
,,001,2022-04-29_02h11.50.055,classification_task,2021.2.3,Win32,59.80861244,614b55e22ff3944a165736bb,626b377229c10585ec392f8a,626b3ae6363e73d9495d7bff,,,,,,,,,,,,,,,,,,,,,,,l,1,1.3504,"[""0.076"",""0.274"",""0.515"",""0.647""]","[1,1,1,0]",0,8,8,8,1,1,0,,,1,FALSE,,,,,,,,,,,,,,,,,,,,,,,,,,,,,,
,,001,2022-04-29_02h11.50.055,classification_task,2021.2.3,Win32,59.80861244,614b55e22ff3944a165736bb,626b377229c10585ec392f8a,626b3ae6363e73d9495d7bff,,,,,,,,,,,,,,,,,,,,,,,l,0,1.2172,"[""0.151"",""0.409"",""0.808"",""0.934""]","[0,1,1,1]",0,9,9,9,1,0,0,,,1,FALSE,,,,,,,,,,,,,,,,,,,,,,,,,,,,,,
,,001,2022-04-29_02h11.50.055,classification_task,2021.2.3,Win32,59.80861244,614b55e22ff3944a165736bb,626b377229c10585ec392f8a,626b3ae6363e73d9495d7bff,,,,,,,,,,,,,,,,,,,,,,,l,0,1.4678,"[""0.151"",""0.445"",""0.893"",""0.975""]","[0,1,1,1]",0,10,10,10,1,0,1,,,1,FALSE,,,,,,,,,,,,,,,,,,,,,,,,,,,,,,
,,001,2022-04-29_02h11.50.055,classification_task,2021.2.3,Win32,59.80861244,614b55e22ff3944a165736bb,626b377229c10585ec392f8a,626b3ae6363e73d9495d7bff,,,,,,,,,,,,,,,,,,,,,,,a,0,2.9572,"[""0.035"",""0.186"",""0.604"",""0.352""]","[1,1,1,0]",0,11,11,11,1,1,1,,,1,FALSE,,,,,,,,,,,,,,,,,,,,,,,,,,,,,,
,,001,2022-04-29_02h11.50.055,classification_task,2021.2.3,Win32,59.80861244,614b55e22ff3944a165736bb,626b377229c10585ec392f8a,626b3ae6363e73d9495d7bff,,,,,,,,,,,,,,,,,,,,,,,a,0,3.5479,"[""0.035"",""0.352"",""0.604"",""0.773""]","[1,0,1,1]",0,12,12,12,1,1,1,,,1,FALSE,,,,,,,,,,,,,,,,,,,,,,,,,,,,,,
,,001,2022-04-29_02h11.50.055,classification_task,2021.2.3,Win32,59.80861244,614b55e22ff3944a165736bb,626b377229c10585ec392f8a,626b3ae6363e73d9495d7bff,,,,,,,,,,,,,,,,,,,,,,,l,1,1.3754,"[""0.035"",""0.186"",""0.672"",""0.773""]","[1,1,0,1]",0,13,13,13,1,1,1,,,1,FALSE,,,,,,,,,,,,,,,,,,,,,,,,,,,,,,
,,001,2022-04-29_02h11.50.055,classification_task,2021.2.3,Win32,59.80861244,614b55e22ff3944a165736bb,626b377229c10585ec392f8a,626b3ae6363e73d9495d7bff,,,,,,,,,,,,,,,,,,,,,,,l,0,1.6171,"[""0.312"",""0.116"",""0.893"",""0.975""]","[1,0,1,1]",0,14,14,14,1,0,1,,,1,FALSE,,,,,,,,,,,,,,,,,,,,,,,,,,,,,,
,,001,2022-04-29_02h11.50.055,classification_task,2021.2.3,Win32,59.80861244,614b55e22ff3944a165736bb,626b377229c10585ec392f8a,626b3ae6363e73d9495d7bff,,,,,,,,,,,,,,,,,,,,,,,l,1,1.1664,"[""0.076"",""0.274"",""0.561"",""0.729""]","[1,1,0,1]",0,15,15,15,1,1,0,,,1,FALSE,,,,,,,,,,,,,,,,,,,,,,,,,,,,,,
,,001,2022-04-29_02h11.50.055,classification_task,2021.2.3,Win32,59.80861244,614b55e22ff3944a165736bb,626b377229c10585ec392f8a,626b3ae6363e73d9495d7bff,,,,,,,,,,,,,,,,,,,,,,,l,0,1.651,"[""0.312"",""0.561"",""0.893"",""0.975""]","[1,0,1,1]",0,16,16,16,1,0,1,,,1,FALSE,,,,,,,,,,,,,,,,,,,,,,,,,,,,,,
,,001,2022-04-29_02h11.50.055,classification_task,2021.2.3,Win32,59.80861244,614b55e22ff3944a165736bb,626b377229c10585ec392f8a,626b3ae6363e73d9495d7bff,,,,,,,,,,,,,,,,,,,,,,,l,0,3.3193,"[""0.312"",""0.445"",""0.846"",""0.975""]","[1,1,0,1]",0,17,17,17,1,0,1,,,1,FALSE,,,,,,,,,,,,,,,,,,,,,,,,,,,,,,
,,001,2022-04-29_02h11.50.055,classification_task,2021.2.3,Win32,59.80861244,614b55e22ff3944a165736bb,626b377229c10585ec392f8a,626b3ae6363e73d9495d7bff,,,,,,,,,,,,,,,,,,,,,,,a,1,0.9134,"[""0.312"",""0.445"",""0.893"",""0.673""]","[1,1,1,0]",0,18,18,18,1,0,1,,,1,FALSE,,,,,,,,,,,,,,,,,,,,,,,,,,,,,,
,,001,2022-04-29_02h11.50.055,classification_task,2021.2.3,Win32,59.80861244,614b55e22ff3944a165736bb,626b377229c10585ec392f8a,626b3ae6363e73d9495d7bff,,,,,,,,,,,,,,,,,,,,,,,l,0,1.2169,"[""0.356"",""0.409"",""0.808"",""0.934""]","[0,1,1,1]",0,19,19,19,1,0,0,,,1,FALSE,,,,,,,,,,,,,,,,,,,,,,,,,,,,,,
,,001,2022-04-29_02h11.50.055,classification_task,2021.2.3,Win32,59.80861244,614b55e22ff3944a165736bb,626b377229c10585ec392f8a,626b3ae6363e73d9495d7bff,,,,,,,,,,,,,,,,,,,,,,,a,0,1.3153,"[""0.035"",""0.186"",""0.133"",""0.773""]","[1,1,0,1]",0,20,20,20,1,1,1,,,1,FALSE,,,,,,,,,,,,,,,,,,,,,,,,,,,,,,
,,001,2022-04-29_02h11.50.055,classification_task,2021.2.3,Win32,59.80861244,614b55e22ff3944a165736bb,626b377229c10585ec392f8a,626b3ae6363e73d9495d7bff,,,,,,,,,,,,,,,,,,,,,,,a,1,0.969,"[""0.225"",""0.409"",""0.116"",""0.934""]","[1,1,0,1]",0,21,21,21,1,0,0,,,1,FALSE,,,,,,,,,,,,,,,,,,,,,,,,,,,,,,
,,001,2022-04-29_02h11.50.055,classification_task,2021.2.3,Win32,59.80861244,614b55e22ff3944a165736bb,626b377229c10585ec392f8a,626b3ae6363e73d9495d7bff,,,,,,,,,,,,,,,,,,,,,,,l,1,1.9162,"[""0.565"",""0.186"",""0.604"",""0.773""]","[0,1,1,1]",0,22,22,22,1,1,1,,,1,FALSE,,,,,,,,,,,,,,,,,,,,,,,,,,,,,,
,,001,2022-04-29_02h11.50.055,classification_task,2021.2.3,Win32,59.80861244,614b55e22ff3944a165736bb,626b377229c10585ec392f8a,626b3ae6363e73d9495d7bff,,,,,,,,,,,,,,,,,,,,,,,a,1,0.9308,"[""0.352"",""0.445"",""0.893"",""0.975""]","[0,1,1,1]",0,23,23,23,1,0,1,,,1,FALSE,,,,,,,,,,,,,,,,,,,,,,,,,,,,,,
,,001,2022-04-29_02h11.50.055,classification_task,2021.2.3,Win32,59.80861244,614b55e22ff3944a165736bb,626b377229c10585ec392f8a,626b3ae6363e73d9495d7bff,,,,,,,,,,,,,,,,,,,,,,,a,1,0.9904,"[""0.225"",""0.846"",""0.808"",""0.934""]","[1,0,1,1]",0,24,24,24,1,0,0,,,1,FALSE,,,,,,,,,,,,,,,,,,,,,,,,,,,,,,
,,001,2022-04-29_02h11.50.055,classification_task,2021.2.3,Win32,59.80861244,614b55e22ff3944a165736bb,626b377229c10585ec392f8a,626b3ae6363e73d9495d7bff,,,,,,,,,,,,,,,,,,,,,,,l,1,1.4583,"[""0.076"",""0.274"",""0.672"",""0.729""]","[1,1,0,1]",0,25,25,25,1,1,0,,,1,FALSE,,,,,,,,,,,,,,,,,,,,,,,,,,,,,,
,,001,2022-04-29_02h11.50.055,classification_task,2021.2.3,Win32,59.80861244,614b55e22ff3944a165736bb,626b377229c10585ec392f8a,626b3ae6363e73d9495d7bff,,,,,,,,,,,,,,,,,,,,,,,a,0,1.1186,"[""0.035"",""0.186"",""0.604"",""0.137""]","[1,1,1,0]",0,26,26,26,1,1,1,,,1,FALSE,,,,,,,,,,,,,,,,,,,,,,,,,,,,,,
,,001,2022-04-29_02h11.50.055,classification_task,2021.2.3,Win32,59.80861244,614b55e22ff3944a165736bb,626b377229c10585ec392f8a,626b3ae6363e73d9495d7bff,,,,,,,,,,,,,,,,,,,,,,,l,1,0.9164,"[""0.076"",""0.274"",""0.515"",""0.672""]","[1,1,1,0]",0,27,27,27,1,1,0,,,1,FALSE,,,,,,,,,,,,,,,,,,,,,,,,,,,,,,
,,001,2022-04-29_02h11.50.055,classification_task,2021.2.3,Win32,59.80861244,614b55e22ff3944a165736bb,626b377229c10585ec392f8a,626b3ae6363e73d9495d7bff,,,,,,,,,,,,,,,,,,,,,,,l,1,0.9328,"[""0.143"",""0.274"",""0.515"",""0.729""]","[0,1,1,1]",0,28,28,28,1,1,0,,,1,FALSE,,,,,,,,,,,,,,,,,,,,,,,,,,,,,,
,,001,2022-04-29_02h11.50.055,classification_task,2021.2.3,Win32,59.80861244,614b55e22ff3944a165736bb,626b377229c10585ec392f8a,626b3ae6363e73d9495d7bff,,,,,,,,,,,,,,,,,,,,,,,a,1,0.9234,"[""0.225"",""0.409"",""0.808"",""0.116""]","[1,1,1,0]",0,29,29,29,1,0,0,,,1,FALSE,,,,,,,,,,,,,,,,,,,,,,,,,,,,,,
,,001,2022-04-29_02h11.50.055,classification_task,2021.2.3,Win32,59.80861244,614b55e22ff3944a165736bb,626b377229c10585ec392f8a,626b3ae6363e73d9495d7bff,,,,,,,,,,,,,,,,,,,,,,,l,1,0.95,"[""0.076"",""0.137"",""0.515"",""0.729""]","[1,0,1,1]",0,30,30,30,1,1,0,,,1,FALSE,,,,,,,,,,,,,,,,,,,,,,,,,,,,,,
,,001,2022-04-29_02h11.50.055,classification_task,2021.2.3,Win32,59.80861244,614b55e22ff3944a165736bb,626b377229c10585ec392f8a,626b3ae6363e73d9495d7bff,,,,,,,,,,,,,,,,,,,,,,,a,0,1.7063,"[""0.035"",""0.673"",""0.604"",""0.773""]","[1,0,1,1]",0,31,31,31,1,1,1,,,1,FALSE,,,,,,,,,,,,,,,,,,,,,,,,,,,,,,
,,001,2022-04-29_02h11.50.055,classification_task,2021.2.3,Win32,59.80861244,614b55e22ff3944a165736bb,626b377229c10585ec392f8a,626b3ae6363e73d9495d7bff,,,,,,,,,,,,,,,,,,,,,,,l,1,1.3076,"[""0.035"",""0.186"",""0.143"",""0.773""]","[1,1,0,1]",0,32,32,32,1,1,1,,,1,FALSE,,,,,,,,,,,,,,,,,,,,,,,,,,,,,,
,,001,2022-04-29_02h11.50.055,classification_task,2021.2.3,Win32,59.80861244,614b55e22ff3944a165736bb,626b377229c10585ec392f8a,626b3ae6363e73d9495d7bff,,,,,,,,,,,,,,,,,,,,,,,a,1,0.9155,"[""0.225"",""0.409"",""0.808"",""0.151""]","[1,1,1,0]",0,33,33,33,1,0,0,,,1,FALSE,,,,,,,,,,,,,,,,,,,,,,,,,,,,,,
,,001,2022-04-29_02h11.50.055,classification_task,2021.2.3,Win32,59.80861244,614b55e22ff3944a165736bb,626b377229c10585ec392f8a,626b3ae6363e73d9495d7bff,,,,,,,,,,,,,,,,,,,,,,,l,1,0.9858,"[""0.076"",""0.647"",""0.515"",""0.729""]","[1,0,1,1]",0,34,34,34,1,1,0,,,1,FALSE,,,,,,,,,,,,,,,,,,,,,,,,,,,,,,
,,001,2022-04-29_02h11.50.055,classification_task,2021.2.3,Win32,59.80861244,614b55e22ff3944a165736bb,626b377229c10585ec392f8a,626b3ae6363e73d9495d7bff,,,,,,,,,,,,,,,,,,,,,,,a,1,1.5066,"[""0.312"",""0.445"",""0.893"",""0.561""]","[1,1,1,0]",0,35,35,35,1,0,1,,,1,FALSE,,,,,,,,,,,,,,,,,,,,,,,,,,,,,,
,,001,2022-04-29_02h11.50.055,classification_task,2021.2.3,Win32,59.80861244,614b55e22ff3944a165736bb,626b377229c10585ec392f8a,626b3ae6363e73d9495d7bff,,,,,,,,,,,,,,,,,,,,,,,l,1,2.9725,"[""0.035"",""0.186"",""0.604"",""0.352""]","[1,1,1,0]",0,36,36,36,1,1,1,,,1,FALSE,,,,,,,,,,,,,,,,,,,,,,,,,,,,,,
,,001,2022-04-29_02h11.50.055,classification_task,2021.2.3,Win32,59.80861244,614b55e22ff3944a165736bb,626b377229c10585ec392f8a,626b3ae6363e73d9495d7bff,,,,,,,,,,,,,,,,,,,,,,,l,1,1.4043,"[""0.133"",""0.274"",""0.515"",""0.729""]","[0,1,1,1]",0,37,37,37,1,1,0,,,1,FALSE,,,,,,,,,,,,,,,,,,,,,,,,,,,,,,
,,001,2022-04-29_02h11.50.055,classification_task,2021.2.3,Win32,59.80861244,614b55e22ff3944a165736bb,626b377229c10585ec392f8a,626b3ae6363e73d9495d7bff,,,,,,,,,,,,,,,,,,,,,,,l,1,2.2045,"[""0.076"",""0.274"",""0.515"",""0.356""]","[1,1,1,0]",0,38,38,38,1,1,0,,,1,FALSE,,,,,,,,,,,,,,,,,,,,,,,,,,,,,,
,,001,2022-04-29_02h11.50.055,classification_task,2021.2.3,Win32,59.80861244,614b55e22ff3944a165736bb,626b377229c10585ec392f8a,626b3ae6363e73d9495d7bff,,,,,,,,,,,,,,,,,,,,,,,l,0,2.4561,"[""0.312"",""0.133"",""0.893"",""0.975""]","[1,0,1,1]",0,39,39,39,1,0,1,,,1,FALSE,,,,,,,,,,,,,,,,,,,,,,,,,,,,,,
,,001,2022-04-29_02h11.50.055,classification_task,2021.2.3,Win32,59.80861244,614b55e22ff3944a165736bb,626b377229c10585ec392f8a,626b3ae6363e73d9495d7bff,,,,,,,,,,,,,,,,,,,,,,,a,0,2.3869,"[""0.035"",""0.362"",""0.604"",""0.773""]","[1,0,1,1]",0,40,40,40,1,1,1,,,1,FALSE,,,,,,,,,,,,,,,,,,,,,,,,,,,,,,
,,001,2022-04-29_02h11.50.055,classification_task,2021.2.3,Win32,59.80861244,614b55e22ff3944a165736bb,626b377229c10585ec392f8a,626b3ae6363e73d9495d7bff,,,,,,,,,,,,,,,,,,,,,,,l,0,1.9918,"[""0.312"",""0.445"",""0.116"",""0.975""]","[1,1,0,1]",0,41,41,41,1,0,1,,,1,FALSE,,,,,,,,,,,,,,,,,,,,,,,,,,,,,,
,,001,2022-04-29_02h11.50.055,classification_task,2021.2.3,Win32,59.80861244,614b55e22ff3944a165736bb,626b377229c10585ec392f8a,626b3ae6363e73d9495d7bff,,,,,,,,,,,,,,,,,,,,,,,l,1,1.4077,"[""0.076"",""0.274"",""0.137"",""0.729""]","[1,1,0,1]",0,42,42,42,1,1,0,,,1,FALSE,,,,,,,,,,,,,,,,,,,,,,,,,,,,,,
,,001,2022-04-29_02h11.50.055,classification_task,2021.2.3,Win32,59.80861244,614b55e22ff3944a165736bb,626b377229c10585ec392f8a,626b3ae6363e73d9495d7bff,,,,,,,,,,,,,,,,,,,,,,,a,0,0.9964,"[""0.362"",""0.186"",""0.604"",""0.773""]","[0,1,1,1]",0,43,43,43,1,1,1,,,1,FALSE,,,,,,,,,,,,,,,,,,,,,,,,,,,,,,
,,001,2022-04-29_02h11.50.055,classification_task,2021.2.3,Win32,59.80861244,614b55e22ff3944a165736bb,626b377229c10585ec392f8a,626b3ae6363e73d9495d7bff,,,,,,,,,,,,,,,,,,,,,,,a,1,0.6311,"[""0.225"",""0.673"",""0.808"",""0.934""]","[1,0,1,1]",0,44,44,44,1,0,0,,,1,FALSE,,,,,,,,,,,,,,,,,,,,,,,,,,,,,,
,,001,2022-04-29_02h11.50.055,classification_task,2021.2.3,Win32,59.80861244,614b55e22ff3944a165736bb,626b377229c10585ec392f8a,626b3ae6363e73d9495d7bff,,,,,,,,,,,,,,,,,,,,,,,l,0,1.27,"[""0.133"",""0.409"",""0.808"",""0.934""]","[0,1,1,1]",0,45,45,45,1,0,0,,,1,FALSE,,,,,,,,,,,,,,,,,,,,,,,,,,,,,,
,,001,2022-04-29_02h11.50.055,classification_task,2021.2.3,Win32,59.80861244,614b55e22ff3944a165736bb,626b377229c10585ec392f8a,626b3ae6363e73d9495d7bff,,,,,,,,,,,,,,,,,,,,,,,a,1,0.604,"[""0.225"",""0.409"",""0.565"",""0.934""]","[1,1,0,1]",0,46,46,46,1,0,0,,,1,FALSE,,,,,,,,,,,,,,,,,,,,,,,,,,,,,,
,,001,2022-04-29_02h11.50.055,classification_task,2021.2.3,Win32,59.80861244,614b55e22ff3944a165736bb,626b377229c10585ec392f8a,626b3ae6363e73d9495d7bff,,,,,,,,,,,,,,,,,,,,,,,a,1,1.6714,"[""0.151"",""0.445"",""0.893"",""0.975""]","[0,1,1,1]",0,47,47,47,1,0,1,,,1,FALSE,,,,,,,,,,,,,,,,,,,,,,,,,,,,,,
,,001,2022-04-29_02h11.50.055,classification_task,2021.2.3,Win32,59.80861244,614b55e22ff3944a165736bb,626b377229c10585ec392f8a,626b3ae6363e73d9495d7bff,,,,,,,,,,,,,,,,,,,,,,,a,1,1.0532,"[""0.312"",""0.445"",""0.352"",""0.975""]","[1,1,0,1]",0,48,48,48,1,0,1,,,1,FALSE,,,,,,,,,,,,,,,,,,,,,,,,,,,,,,
,,001,2022-04-29_02h11.50.055,classification_task,2021.2.3,Win32,59.80861244,614b55e22ff3944a165736bb,626b377229c10585ec392f8a,626b3ae6363e73d9495d7bff,,,,,,,,,,,,,,,,,,,,,,,l,1,1.2335,"[""0.076"",""0.274"",""0.515"",""0.148""]","[1,1,1,0]",0,49,49,49,1,1,0,,,1,FALSE,,,,,,,,,,,,,,,,,,,,,,,,,,,,,,
,,001,2022-04-29_02h11.50.055,classification_task,2021.2.3,Win32,59.80861244,614b55e22ff3944a165736bb,626b377229c10585ec392f8a,626b3ae6363e73d9495d7bff,,,,,,,,,,,,,,,,,,,,,,,a,1,0.5004,"[""0.225"",""0.409"",""0.808"",""0.352""]","[1,1,1,0]",0,50,50,50,1,0,0,,,1,FALSE,,,,,,,,,,,,,,,,,,,,,,,,,,,,,,
,,001,2022-04-29_02h11.50.055,classification_task,2021.2.3,Win32,59.80861244,614b55e22ff3944a165736bb,626b377229c10585ec392f8a,626b3ae6363e73d9495d7bff,,,,,,,,,,,,,,,,,,,,,,,l,1,0.9003,"[""0.076"",""0.274"",""0.137"",""0.729""]","[1,1,0,1]",0,51,51,51,1,1,0,,,1,FALSE,,,,,,,,,,,,,,,,,,,,,,,,,,,,,,
,,001,2022-04-29_02h11.50.055,classification_task,2021.2.3,Win32,59.80861244,614b55e22ff3944a165736bb,626b377229c10585ec392f8a,626b3ae6363e73d9495d7bff,,,,,,,,,,,,,,,,,,,,,,,l,1,1.4003,"[""0.137"",""0.186"",""0.604"",""0.773""]","[0,1,1,1]",0,52,52,52,1,1,1,,,1,FALSE,,,,,,,,,,,,,,,,,,,,,,,,,,,,,,
,,001,2022-04-29_02h11.50.055,classification_task,2021.2.3,Win32,59.80861244,614b55e22ff3944a165736bb,626b377229c10585ec392f8a,626b3ae6363e73d9495d7bff,,,,,,,,,,,,,,,,,,,,,,,l,0,1.2564,"[""0.312"",""0.846"",""0.893"",""0.975""]","[1,0,1,1]",0,53,53,53,1,0,1,,,1,FALSE,,,,,,,,,,,,,,,,,,,,,,,,,,,,,,
,,001,2022-04-29_02h11.50.055,classification_task,2021.2.3,Win32,59.80861244,614b55e22ff3944a165736bb,626b377229c10585ec392f8a,626b3ae6363e73d9495d7bff,,,,,,,,,,,,,,,,,,,,,,,a,1,1.3525,"[""0.312"",""0.445"",""0.893"",""0.672""]","[1,1,1,0]",0,54,54,54,1,0,1,,,1,FALSE,,,,,,,,,,,,,,,,,,,,,,,,,,,,,,
,,001,2022-04-29_02h11.50.055,classification_task,2021.2.3,Win32,59.80861244,614b55e22ff3944a165736bb,626b377229c10585ec392f8a,626b3ae6363e73d9495d7bff,,,,,,,,,,,,,,,,,,,,,,,a,1,0.8167,"[""0.225"",""0.133"",""0.808"",""0.934""]","[1,0,1,1]",0,55,55,55,1,0,0,,,1,FALSE,,,,,,,,,,,,,,,,,,,,,,,,,,,,,,
,,001,2022-04-29_02h11.50.055,classification_task,2021.2.3,Win32,59.80861244,614b55e22ff3944a165736bb,626b377229c10585ec392f8a,626b3ae6363e73d9495d7bff,,,,,,,,,,,,,,,,,,,,,,,l,1,1.1516,"[""0.035"",""0.186"",""0.561"",""0.773""]","[1,1,0,1]",0,56,56,56,1,1,1,,,1,FALSE,,,,,,,,,,,,,,,,,,,,,,,,,,,,,,
,,001,2022-04-29_02h11.50.055,classification_task,2021.2.3,Win32,59.80861244,614b55e22ff3944a165736bb,626b377229c10585ec392f8a,626b3ae6363e73d9495d7bff,,,,,,,,,,,,,,,,,,,,,,,l,1,1.1548,"[""0.035"",""0.148"",""0.604"",""0.773""]","[1,0,1,1]",0,57,57,57,1,1,1,,,1,FALSE,,,,,,,,,,,,,,,,,,,,,,,,,,,,,,
,,001,2022-04-29_02h11.50.055,classification_task,2021.2.3,Win32,59.80861244,614b55e22ff3944a165736bb,626b377229c10585ec392f8a,626b3ae6363e73d9495d7bff,,,,,,,,,,,,,,,,,,,,,,,l,1,1.2703,"[""0.076"",""0.356"",""0.515"",""0.729""]","[1,0,1,1]",0,58,58,58,1,1,0,,,1,FALSE,,,,,,,,,,,,,,,,,,,,,,,,,,,,,,
,,001,2022-04-29_02h11.50.055,classification_task,2021.2.3,Win32,59.80861244,614b55e22ff3944a165736bb,626b377229c10585ec392f8a,626b3ae6363e73d9495d7bff,,,,,,,,,,,,,,,,,,,,,,,l,1,3.2662,"[""0.362"",""0.274"",""0.515"",""0.729""]","[0,1,1,1]",0,59,59,59,1,1,0,,,1,FALSE,,,,,,,,,,,,,,,,,,,,,,,,,,,,,,
,,001,2022-04-29_02h11.50.055,classification_task,2021.2.3,Win32,59.80861244,614b55e22ff3944a165736bb,626b377229c10585ec392f8a,626b3ae6363e73d9495d7bff,,,,,,,,,,,,,,,,,,,,,,,a,1,0.5646,"[""0.225"",""0.409"",""0.151"",""0.934""]","[1,1,0,1]",0,60,60,60,1,0,0,,,1,FALSE,,,,,,,,,,,,,,,,,,,,,,,,,,,,,,
,,001,2022-04-29_02h11.50.055,classification_task,2021.2.3,Win32,59.80861244,614b55e22ff3944a165736bb,626b377229c10585ec392f8a,626b3ae6363e73d9495d7bff,,,,,,,,,,,,,,,,,,,,,,,l,1,2.0488,"[""0.035"",""0.186"",""0.604"",""0.561""]","[1,1,1,0]",0,61,61,61,1,1,1,,,1,FALSE,,,,,,,,,,,,,,,,,,,,,,,,,,,,,,
,,001,2022-04-29_02h11.50.055,classification_task,2021.2.3,Win32,59.80861244,614b55e22ff3944a165736bb,626b377229c10585ec392f8a,626b3ae6363e73d9495d7bff,,,,,,,,,,,,,,,,,,,,,,,a,1,0.8112,"[""0.362"",""0.445"",""0.893"",""0.975""]","[0,1,1,1]",0,62,62,62,1,0,1,,,1,FALSE,,,,,,,,,,,,,,,,,,,,,,,,,,,,,,
,,001,2022-04-29_02h11.50.055,classification_task,2021.2.3,Win32,59.80861244,614b55e22ff3944a165736bb,626b377229c10585ec392f8a,626b3ae6363e73d9495d7bff,,,,,,,,,,,,,,,,,,,,,,,l,0,1.0221,"[""0.362"",""0.409"",""0.808"",""0.934""]","[0,1,1,1]",0,63,63,63,1,0,0,,,1,FALSE,,,,,,,,,,,,,,,,,,,,,,,,,,,,,,
,,001,2022-04-29_02h11.50.055,classification_task,2021.2.3,Win32,59.80861244,614b55e22ff3944a165736bb,626b377229c10585ec392f8a,626b3ae6363e73d9495d7bff,,,,,,,,,,,,,,,,,,,,,,,,,,,,,,,,,,,,,,,0, ,,0,3.070987654,185.2245,0,2,2,2,1,2,3,,,,,,,,,,,,,,,,,
,,001,2022-04-29_02h11.50.055,classification_task,2021.2.3,Win32,59.80861244,614b55e22ff3944a165736bb,626b377229c10585ec392f8a,626b3ae6363e73d9495d7bff,,,,,,,,,,,,,,,,,,,,,,,,,,,,,,,,,,,,,,,1,  ,,0,3.438418577,186.9092,0,2,2,2,1,2,3,,,,,,,,,,,,,,,,,
,,001,2022-04-29_02h11.50.055,classification_task,2021.2.3,Win32,59.80861244,614b55e22ff3944a165736bb,626b377229c10585ec392f8a,626b3ae6363e73d9495d7bff,,,,,,,,,,,,,,,,,,,,,,,,,,,,,,,,,,,,,,,2,  ,,0,2.850528727,188.4573,0,2,2,2,1,2,3,,,,,,,,,,,,,,,,,
,,001,2022-04-29_02h11.50.055,classification_task,2021.2.3,Win32,59.80861244,614b55e22ff3944a165736bb,626b377229c10585ec392f8a,626b3ae6363e73d9495d7bff,,,,,,,,,,,,,,,,,,,,,,,,,,,,,,,,,,,,,,,,,,,,,0,2,2,2,1,,3,,,,,,,,,,,,,,,,,
,,001,2022-04-29_02h11.50.055,classification_task,2021.2.3,Win32,59.80861244,614b55e22ff3944a165736bb,626b377229c10585ec392f8a,626b3ae6363e73d9495d7bff,,,,,,,,,,,,,,,,,,,,,,,,,,,,,,,,,,,,,,,,,,,,,,,,,,,,,I believe the aid is a competent performer,,0.7,0,4,965.0576,0,0,0,0,1,0,,,,
,,001,2022-04-29_02h11.50.055,classification_task,2021.2.3,Win32,59.80861244,614b55e22ff3944a165736bb,626b377229c10585ec392f8a,626b3ae6363e73d9495d7bff,,,,,,,,,,,,,,,,,,,,,,,,,,,,,,,,,,,,,,,,,,,,,,,,,,,,,I trust the aid,,0.7,0,4,966.0232,0,0,0,0,1,0,,,,
,,001,2022-04-29_02h11.50.055,classification_task,2021.2.3,Win32,59.80861244,614b55e22ff3944a165736bb,626b377229c10585ec392f8a,626b3ae6363e73d9495d7bff,,,,,,,,,,,,,,,,,,,,,,,,,,,,,,,,,,,,,,,,,,,,,,,,,,,,,I have confidence in the advice given by the aid,,0.7,0,3,947.0964,0,0,0,0,1,0,,,,
,,001,2022-04-29_02h11.50.055,classification_task,2021.2.3,Win32,59.80861244,614b55e22ff3944a165736bb,626b377229c10585ec392f8a,626b3ae6363e73d9495d7bff,,,,,,,,,,,,,,,,,,,,,,,,,,,,,,,,,,,,,,,,,,,,,,,,,,,,,I can depend on the aid,,0.7,0,3,950.2461,0,0,0,0,1,0,,,,
,,001,2022-04-29_02h11.50.055,classification_task,2021.2.3,Win32,59.80861244,614b55e22ff3944a165736bb,626b377229c10585ec392f8a,626b3ae6363e73d9495d7bff,,,,,,,,,,,,,,,,,,,,,,,,,,,,,,,,,,,,,,,,,,,,,,,,,,,,,I can rely on the aid to behave in consistent ways,,0.7,0,3,952.6347,0,0,0,0,1,0,,,,
,,001,2022-04-29_02h11.50.055,classification_task,2021.2.3,Win32,59.80861244,614b55e22ff3944a165736bb,626b377229c10585ec392f8a,626b3ae6363e73d9495d7bff,,,,,,,,,,,,,,,,,,,,,,,,,,,,,,,,,,,,,,,,,,,,,,,,,,,,,I can rely on the aid to do its best every time I take its advice,,0.7,0,3,954.7775,0,0,0,0,1,0,,,,
,,001,2022-04-29_02h11.50.055,classification_task,2021.2.3,Win32,59.80861244,614b55e22ff3944a165736bb,626b377229c10585ec392f8a,626b3ae6363e73d9495d7bff,,,,,,,,,,,,,,,,,,,,,,,,,,,,,,,,,,,,,,,,,,,,,,,,,,,,,"On trials you completed with assistance from the aid, how frequently did you think the aid was correct?",,0.7,0,70,,0,0,0,0,1,0,,,,
,,001,2022-04-29_02h11.50.055,classification_task,2021.2.3,Win32,59.80861244,614b55e22ff3944a165736bb,626b377229c10585ec392f8a,626b3ae6363e73d9495d7bff,,,,,,,,,,,,,,,,,,,,,,,,,,,,,,,,,,,,,,,,,,,,,,,,,,,,,"On trials you completed without the aid, how frequently did you think you were correct?",,0.7,0,40,,0,0,0,0,1,0,,,,
,,001,2022-04-29_02h11.50.055,classification_task,2021.2.3,Win32,59.80861244,614b55e22ff3944a165736bb,626b377229c10585ec392f8a,626b3ae6363e73d9495d7bff,,,,,,,,,,,,,,,,,,,,,,,,,,,,,,,,,,,,,,,,,,,,,,,,,,,,,,,,,,,0,0,0,0,1,,,,,
,,001,2022-04-29_02h11.50.055,classification_task,2021.2.3,Win32,59.80861244,614b55e22ff3944a165736bb,626b377229c10585ec392f8a,626b3ae6363e73d9495d7bff,,,,,,,,,,,,,,,,,,,,,,,,,,,,,,,,,,,,,,,,,,,,,,,,,,,,,,,,,,,,,,,,,space,20.7869,1001.0157,
,,001,2022-04-29_02h11.50.055,classification_task,2021.2.3,Win32,59.80861244,614b55e22ff3944a165736bb,626b377229c10585ec392f8a,626b3ae6363e73d9495d7bff,,,,,,,,,,,,,,,,,,,,,,,,,,,,,,,,,,,,,,,,,,,,,,,,,,,,,,,,,,,,,,,,,,,,"Mozilla/5.0 (Windows NT 10.0; Win64; x64) AppleWebKit/537.36 (KHTML, like Gecko) Chrome/100.0.4896.127 Safari/537.36 Edg/100.0.1185.50"
