usingWebGL,participant,session,date,expName,psychopyVersion,OS,frameRate,PROLIFIC_PID,STUDY_ID,SESSION_ID,signatures_friend,signatures_foe,band_ranges_top,band_ranges_bottom,formitemText,formtype,formundefined,formitemWidth,formindex,formresponse,formrt,key_resp_2.keys,key_resp_2.rt,tute_resp.keys,tute_resp.rt,tutorial.thisRepN,tutorial.thisTrialN,tutorial.thisN,tutorial.thisIndex,tutorial.ran,key_resp_4.keys,key_resp_4.rt,key_resp.keys,key_resp.corr,lines_presented,is_signal_presented,trials.thisRepN,trials.thisTrialN,trials.thisN,trials.thisIndex,trials.ran,vessel,active_band,lines,is_signal,supported_pos,catch_trial,key_resp.rt,debrief_formindex,debrief_formitemText,debrief_formtype,debrief_formitemWidth,debrief_formresponse,debrief_formrt,phases.thisRepN,phases.thisTrialN,phases.thisN,phases.thisIndex,phases.ran,phases.order,phase,key_resp_3.keys,trustitemText,trusttype,trustitemWidth,trustindex,trustresponse,trustrt,support_status.thisRepN,support_status.thisTrialN,support_status.thisN,support_status.thisIndex,support_status.ran,support_status.order,key_resp_5.keys,key_resp_5.rt,globalClockTime,userAgent
TRUE,,001,2022-04-28_20h15.26.308,classification_task,2021.2.3,MacIntel,59.93407252,613a9833c9a297f3ac00743f,626b377229c10585ec392f8a,626b3b477fd5610a2c41f186,,,,,,,,,,,,,,,,,,,,,,,,,,,,,,,,,,,,,,,,,,,,,,,,,,,,,,,,,,,,,,,,,,,,
,,001,2022-04-28_20h15.26.308,classification_task,2021.2.3,MacIntel,59.93407252,613a9833c9a297f3ac00743f,626b377229c10585ec392f8a,626b3b477fd5610a2c41f186,"[[""0.208"",""0.353"",""0.875"",""0.960""],[""0.315"",""0.386"",""0.723"",""0.914""]]","[[""0.145"",""0.429"",""0.490"",""0.771""],[""0.038"",""0.076"",""0.534"",""0.807""]]","[1,10]","[100,1000]",Video game experience,,,0.7,0,,,,,,,,,,,,,,,,,,,,,,,,,,,,,,,,,,,,,,,,,,,,,,,,,,,,,,,,,,,
,,001,2022-04-28_20h15.26.308,classification_task,2021.2.3,MacIntel,59.93407252,613a9833c9a297f3ac00743f,626b377229c10585ec392f8a,626b3b477fd5610a2c41f186,,,,,Approximately how many hours did you spend playing video games in the last week?,,,0.7,0,3,,,,,,,,,,,,,,,,,,,,,,,,,,,,,,,,,,,,,,,,,,,,,,,,,,,,,,,,,,
,,001,2022-04-28_20h15.26.308,classification_task,2021.2.3,MacIntel,59.93407252,613a9833c9a297f3ac00743f,626b377229c10585ec392f8a,626b3b477fd5610a2c41f186,,,,,"Which game did you play the most this year? (Enter ""None"" if you didn't play any)",,,0.7,0,Bioshock,,,,,,,,,,,,,,,,,,,,,,,,,,,,,,,,,,,,,,,,,,,,,,,,,,,,,,,,,,
,,001,2022-04-28_20h15.26.308,classification_task,2021.2.3,MacIntel,59.93407252,613a9833c9a297f3ac00743f,626b377229c10585ec392f8a,626b3b477fd5610a2c41f186,,,,,Visual perception,,,0.7,0,,,,,,,,,,,,,,,,,,,,,,,,,,,,,,,,,,,,,,,,,,,,,,,,,,,,,,,,,,,
,,001,2022-04-28_20h15.26.308,classification_task,2021.2.3,MacIntel,59.93407252,613a9833c9a297f3ac00743f,626b377229c10585ec392f8a,626b3b477fd5610a2c41f186,,,,,Do you have any form of color blindness?,,,0.7,0,No,72.4296,,,,,,,,,,,,,,,,,,,,,,,,,,,,,,,,,,,,,,,,,,,,,,,,,,,,,,,,,
,,001,2022-04-28_20h15.26.308,classification_task,2021.2.3,MacIntel,59.93407252,613a9833c9a297f3ac00743f,626b377229c10585ec392f8a,626b3b477fd5610a2c41f186,,,,,Do you use software to change the colour temperature of your screen (e.g. f.lux)?,,,0.7,0,No,76.44,,,,,,,,,,,,,,,,,,,,,,,,,,,,,,,,,,,,,,,,,,,,,,,,,,,,,,,,,
,,001,2022-04-28_20h15.26.308,classification_task,2021.2.3,MacIntel,59.93407252,613a9833c9a297f3ac00743f,626b377229c10585ec392f8a,626b3b477fd5610a2c41f186,,,,,,,,,,,,space,59.0627,space,13.059,0,0,0,0,1,,,,,,,,,,,,,,,,,,,,,,,,,,,,,,,,,,,,,,,,,,,,,,,,
,,001,2022-04-28_20h15.26.308,classification_task,2021.2.3,MacIntel,59.93407252,613a9833c9a297f3ac00743f,626b377229c10585ec392f8a,626b3b477fd5610a2c41f186,,,,,,,,,,,,,,space,11.9505,1,0,1,0,1,,,,,,,,,,,,,,,,,,,,,,,,,,,,,,,,,,,,,,,,,,,,,,,,
,,001,2022-04-28_20h15.26.308,classification_task,2021.2.3,MacIntel,59.93407252,613a9833c9a297f3ac00743f,626b377229c10585ec392f8a,626b3b477fd5610a2c41f186,,,,,,,,,,,,,,space,27.9931,2,0,2,0,1,,,,,,,,,,,,,,,,,,,,,,,,,,,,,,,,,,,,,,,,,,,,,,,,
,,001,2022-04-28_20h15.26.308,classification_task,2021.2.3,MacIntel,59.93407252,613a9833c9a297f3ac00743f,626b377229c10585ec392f8a,626b3b477fd5610a2c41f186,,,,,,,,,,,,,,space,13.3262,3,0,3,0,1,,,,,,,,,,,,,,,,,,,,,,,,,,,,,,,,,,,,,,,,,,,,,,,,
,,001,2022-04-28_20h15.26.308,classification_task,2021.2.3,MacIntel,59.93407252,613a9833c9a297f3ac00743f,626b377229c10585ec392f8a,626b3b477fd5610a2c41f186,,,,,,,,,,,,,,space,49.0145,4,0,4,0,1,,,,,,,,,,,,,,,,,,,,,,,,,,,,,,,,,,,,,,,,,,,,,,,,
,,001,2022-04-28_20h15.26.308,classification_task,2021.2.3,MacIntel,59.93407252,613a9833c9a297f3ac00743f,626b377229c10585ec392f8a,626b3b477fd5610a2c41f186,,,,,,,,,,,,,,,,,,,,,space,25.8494,,0,"[""0.208"",""0.353"",""0.645"",""0.960""]","[1,1,0,1]",0,0,0,0,1,0,0,,,0,FALSE,,,,,,,,,,,,,,,,,,,,,,,,,,,,,,,
,,001,2022-04-28_20h15.26.308,classification_task,2021.2.3,MacIntel,59.93407252,613a9833c9a297f3ac00743f,626b377229c10585ec392f8a,626b3b477fd5610a2c41f186,,,,,,,,,,,,,,,,,,,,,,,l,1,"[""0.676"",""0.076"",""0.534"",""0.807""]","[0,1,1,1]",0,1,1,1,1,1,1,,,0,FALSE,3.4116,,,,,,,,,,,,,,,,,,,,,,,,,,,,,,
,,001,2022-04-28_20h15.26.308,classification_task,2021.2.3,MacIntel,59.93407252,613a9833c9a297f3ac00743f,626b377229c10585ec392f8a,626b3b477fd5610a2c41f186,,,,,,,,,,,,,,,,,,,,,,,l,0,"[""0.208"",""0.353"",""0.875"",""0.659""]","[1,1,1,0]",0,2,2,2,1,0,0,,,0,FALSE,4.7883,,,,,,,,,,,,,,,,,,,,,,,,,,,,,,
,,001,2022-04-28_20h15.26.308,classification_task,2021.2.3,MacIntel,59.93407252,613a9833c9a297f3ac00743f,626b377229c10585ec392f8a,626b3b477fd5610a2c41f186,,,,,,,,,,,,,,,,,,,,,,,l,0,"[""0.208"",""0.661"",""0.875"",""0.960""]","[1,0,1,1]",0,3,3,3,1,0,0,,,0,FALSE,6.4206,,,,,,,,,,,,,,,,,,,,,,,,,,,,,,
,,001,2022-04-28_20h15.26.308,classification_task,2021.2.3,MacIntel,59.93407252,613a9833c9a297f3ac00743f,626b377229c10585ec392f8a,626b3b477fd5610a2c41f186,,,,,,,,,,,,,,,,,,,,,,,a,1,"[""0.661"",""0.386"",""0.723"",""0.914""]","[0,1,1,1]",0,4,4,4,1,0,1,,,0,FALSE,6.9397,,,,,,,,,,,,,,,,,,,,,,,,,,,,,,
,,001,2022-04-28_20h15.26.308,classification_task,2021.2.3,MacIntel,59.93407252,613a9833c9a297f3ac00743f,626b377229c10585ec392f8a,626b3b477fd5610a2c41f186,,,,,,,,,,,,,,,,,,,,,,,l,1,"[""0.661"",""0.429"",""0.490"",""0.771""]","[0,1,1,1]",0,5,5,5,1,1,0,,,0,FALSE,6.5474,,,,,,,,,,,,,,,,,,,,,,,,,,,,,,
,,001,2022-04-28_20h15.26.308,classification_task,2021.2.3,MacIntel,59.93407252,613a9833c9a297f3ac00743f,626b377229c10585ec392f8a,626b3b477fd5610a2c41f186,,,,,,,,,,,,,,,,,,,,,,,l,1,"[""0.145"",""0.429"",""0.490"",""0.580""]","[1,1,1,0]",0,6,6,6,1,1,0,,,0,FALSE,6.1993,,,,,,,,,,,,,,,,,,,,,,,,,,,,,,
,,001,2022-04-28_20h15.26.308,classification_task,2021.2.3,MacIntel,59.93407252,613a9833c9a297f3ac00743f,626b377229c10585ec392f8a,626b3b477fd5610a2c41f186,,,,,,,,,,,,,,,,,,,,,,,l,1,"[""0.038"",""0.076"",""0.534"",""0.615""]","[1,1,1,0]",0,7,7,7,1,1,1,,,0,FALSE,5.7302,,,,,,,,,,,,,,,,,,,,,,,,,,,,,,
,,001,2022-04-28_20h15.26.308,classification_task,2021.2.3,MacIntel,59.93407252,613a9833c9a297f3ac00743f,626b377229c10585ec392f8a,626b3b477fd5610a2c41f186,,,,,,,,,,,,,,,,,,,,,,,a,1,"[""0.315"",""0.386"",""0.723"",""0.580""]","[1,1,1,0]",0,8,8,8,1,0,1,,,0,FALSE,7.0046,,,,,,,,,,,,,,,,,,,,,,,,,,,,,,
,,001,2022-04-28_20h15.26.308,classification_task,2021.2.3,MacIntel,59.93407252,613a9833c9a297f3ac00743f,626b377229c10585ec392f8a,626b3b477fd5610a2c41f186,,,,,,,,,,,,,,,,,,,,,,,l,1,"[""0.038"",""0.672"",""0.534"",""0.807""]","[1,0,1,1]",0,9,9,9,1,1,1,,,0,FALSE,5.1903,,,,,,,,,,,,,,,,,,,,,,,,,,,,,,
,,001,2022-04-28_20h15.26.308,classification_task,2021.2.3,MacIntel,59.93407252,613a9833c9a297f3ac00743f,626b377229c10585ec392f8a,626b3b477fd5610a2c41f186,,,,,,,,,,,,,,,,,,,,,,,l,0,"[""0.584"",""0.353"",""0.875"",""0.960""]","[0,1,1,1]",0,10,10,10,1,0,0,,,0,FALSE,5.0817,,,,,,,,,,,,,,,,,,,,,,,,,,,,,,
,,001,2022-04-28_20h15.26.308,classification_task,2021.2.3,MacIntel,59.93407252,613a9833c9a297f3ac00743f,626b377229c10585ec392f8a,626b3b477fd5610a2c41f186,,,,,,,,,,,,,,,,,,,,,,,l,0,"[""0.315"",""0.386"",""0.659"",""0.914""]","[1,1,0,1]",0,11,11,11,1,0,1,,,0,FALSE,6.6239,,,,,,,,,,,,,,,,,,,,,,,,,,,,,,
,,001,2022-04-28_20h15.26.308,classification_task,2021.2.3,MacIntel,59.93407252,613a9833c9a297f3ac00743f,626b377229c10585ec392f8a,626b3b477fd5610a2c41f186,,,,,,,,,,,,,,,,,,,,,,,l,1,"[""0.145"",""0.661"",""0.490"",""0.771""]","[1,0,1,1]",0,12,12,12,1,1,0,,,0,FALSE,7.8587,,,,,,,,,,,,,,,,,,,,,,,,,,,,,,
,,001,2022-04-28_20h15.26.308,classification_task,2021.2.3,MacIntel,59.93407252,613a9833c9a297f3ac00743f,626b377229c10585ec392f8a,626b3b477fd5610a2c41f186,,,,,,,,,,,,,,,,,,,,,,,a,1,"[""0.315"",""0.580"",""0.723"",""0.914""]","[1,0,1,1]",0,13,13,13,1,0,1,,,0,FALSE,7.353,,,,,,,,,,,,,,,,,,,,,,,,,,,,,,
,,001,2022-04-28_20h15.26.308,classification_task,2021.2.3,MacIntel,59.93407252,613a9833c9a297f3ac00743f,626b377229c10585ec392f8a,626b3b477fd5610a2c41f186,,,,,,,,,,,,,,,,,,,,,,,l,1,"[""0.038"",""0.076"",""0.676"",""0.807""]","[1,1,0,1]",0,14,14,14,1,1,1,,,0,FALSE,5.8524,,,,,,,,,,,,,,,,,,,,,,,,,,,,,,
,,001,2022-04-28_20h15.26.308,classification_task,2021.2.3,MacIntel,59.93407252,613a9833c9a297f3ac00743f,626b377229c10585ec392f8a,626b3b477fd5610a2c41f186,,,,,,,,,,,,,,,,,,,,,,,l,1,"[""0.145"",""0.429"",""0.682"",""0.771""]","[1,1,0,1]",0,15,15,15,1,1,0,,,0,FALSE,5.5969,,,,,,,,,,,,,,,,,,,,,,,,,,,,,,
,,001,2022-04-28_20h15.26.308,classification_task,2021.2.3,MacIntel,59.93407252,613a9833c9a297f3ac00743f,626b377229c10585ec392f8a,626b3b477fd5610a2c41f186,,,,,,,,,,,,,,,,,,,,,,,l,1,"[""0.660"",""0.076"",""0.534"",""0.807""]","[0,1,1,1]",0,16,16,16,1,1,1,,,0,FALSE,5.7461,,,,,,,,,,,,,,,,,,,,,,,,,,,,,,
,,001,2022-04-28_20h15.26.308,classification_task,2021.2.3,MacIntel,59.93407252,613a9833c9a297f3ac00743f,626b377229c10585ec392f8a,626b3b477fd5610a2c41f186,,,,,,,,,,,,,,,,,,,,,,,a,1,"[""0.315"",""0.660"",""0.723"",""0.914""]","[1,0,1,1]",0,17,17,17,1,0,1,,,0,FALSE,6.8845,,,,,,,,,,,,,,,,,,,,,,,,,,,,,,
,,001,2022-04-28_20h15.26.308,classification_task,2021.2.3,MacIntel,59.93407252,613a9833c9a297f3ac00743f,626b377229c10585ec392f8a,626b3b477fd5610a2c41f186,,,,,,,,,,,,,,,,,,,,,,,l,1,"[""0.145"",""0.429"",""0.490"",""0.615""]","[1,1,1,0]",0,18,18,18,1,1,0,,,0,FALSE,5.3709,,,,,,,,,,,,,,,,,,,,,,,,,,,,,,
,,001,2022-04-28_20h15.26.308,classification_task,2021.2.3,MacIntel,59.93407252,613a9833c9a297f3ac00743f,626b377229c10585ec392f8a,626b3b477fd5610a2c41f186,,,,,,,,,,,,,,,,,,,,,,,l,1,"[""0.145"",""0.429"",""0.584"",""0.771""]","[1,1,0,1]",0,19,19,19,1,1,0,,,0,FALSE,4.8915,,,,,,,,,,,,,,,,,,,,,,,,,,,,,,
,,001,2022-04-28_20h15.26.308,classification_task,2021.2.3,MacIntel,59.93407252,613a9833c9a297f3ac00743f,626b377229c10585ec392f8a,626b3b477fd5610a2c41f186,,,,,,,,,,,,,,,,,,,,,,,a,1,"[""0.315"",""0.386"",""0.595"",""0.914""]","[1,1,0,1]",0,20,20,20,1,0,1,,,0,FALSE,7.7,,,,,,,,,,,,,,,,,,,,,,,,,,,,,,
,,001,2022-04-28_20h15.26.308,classification_task,2021.2.3,MacIntel,59.93407252,613a9833c9a297f3ac00743f,626b377229c10585ec392f8a,626b3b477fd5610a2c41f186,,,,,,,,,,,,,,,,,,,,,,,a,0,"[""0.038"",""0.076"",""0.636"",""0.807""]","[1,1,0,1]",0,21,21,21,1,1,1,,,0,FALSE,5.0191,,,,,,,,,,,,,,,,,,,,,,,,,,,,,,
,,001,2022-04-28_20h15.26.308,classification_task,2021.2.3,MacIntel,59.93407252,613a9833c9a297f3ac00743f,626b377229c10585ec392f8a,626b3b477fd5610a2c41f186,,,,,,,,,,,,,,,,,,,,,,,l,1,"[""0.145"",""0.682"",""0.490"",""0.771""]","[1,0,1,1]",0,22,22,22,1,1,0,,,0,FALSE,5.1509,,,,,,,,,,,,,,,,,,,,,,,,,,,,,,
,,001,2022-04-28_20h15.26.308,classification_task,2021.2.3,MacIntel,59.93407252,613a9833c9a297f3ac00743f,626b377229c10585ec392f8a,626b3b477fd5610a2c41f186,,,,,,,,,,,,,,,,,,,,,,,a,1,"[""0.676"",""0.386"",""0.723"",""0.914""]","[0,1,1,1]",0,23,23,23,1,0,1,,,0,FALSE,6.364,,,,,,,,,,,,,,,,,,,,,,,,,,,,,,
,,001,2022-04-28_20h15.26.308,classification_task,2021.2.3,MacIntel,59.93407252,613a9833c9a297f3ac00743f,626b377229c10585ec392f8a,626b3b477fd5610a2c41f186,,,,,,,,,,,,,,,,,,,,,,,a,1,"[""0.315"",""0.386"",""0.723"",""0.580""]","[1,1,1,0]",0,24,24,24,1,0,1,,,0,FALSE,7.1175,,,,,,,,,,,,,,,,,,,,,,,,,,,,,,
,,001,2022-04-28_20h15.26.308,classification_task,2021.2.3,MacIntel,59.93407252,613a9833c9a297f3ac00743f,626b377229c10585ec392f8a,626b3b477fd5610a2c41f186,,,,,,,,,,,,,,,,,,,,,,,l,0,"[""0.208"",""0.353"",""0.875"",""0.660""]","[1,1,1,0]",0,25,25,25,1,0,0,,,0,FALSE,8.4777,,,,,,,,,,,,,,,,,,,,,,,,,,,,,,
,,001,2022-04-28_20h15.26.308,classification_task,2021.2.3,MacIntel,59.93407252,613a9833c9a297f3ac00743f,626b377229c10585ec392f8a,626b3b477fd5610a2c41f186,,,,,,,,,,,,,,,,,,,,,,,a,1,"[""0.660"",""0.353"",""0.875"",""0.960""]","[0,1,1,1]",0,26,26,26,1,0,0,,,0,FALSE,5.6825,,,,,,,,,,,,,,,,,,,,,,,,,,,,,,
,,001,2022-04-28_20h15.26.308,classification_task,2021.2.3,MacIntel,59.93407252,613a9833c9a297f3ac00743f,626b377229c10585ec392f8a,626b3b477fd5610a2c41f186,,,,,,,,,,,,,,,,,,,,,,,l,1,"[""0.038"",""0.076"",""0.534"",""0.609""]","[1,1,1,0]",0,27,27,27,1,1,1,,,0,FALSE,6.3396,,,,,,,,,,,,,,,,,,,,,,,,,,,,,,
,,001,2022-04-28_20h15.26.308,classification_task,2021.2.3,MacIntel,59.93407252,613a9833c9a297f3ac00743f,626b377229c10585ec392f8a,626b3b477fd5610a2c41f186,,,,,,,,,,,,,,,,,,,,,,,a,1,"[""0.208"",""0.353"",""0.661"",""0.960""]","[1,1,0,1]",0,28,28,28,1,0,0,,,0,FALSE,6.0804,,,,,,,,,,,,,,,,,,,,,,,,,,,,,,
,,001,2022-04-28_20h15.26.308,classification_task,2021.2.3,MacIntel,59.93407252,613a9833c9a297f3ac00743f,626b377229c10585ec392f8a,626b3b477fd5610a2c41f186,,,,,,,,,,,,,,,,,,,,,,,a,1,"[""0.208"",""0.661"",""0.875"",""0.960""]","[1,0,1,1]",0,29,29,29,1,0,0,,,0,FALSE,6.4585,,,,,,,,,,,,,,,,,,,,,,,,,,,,,,
,,001,2022-04-28_20h15.26.308,classification_task,2021.2.3,MacIntel,59.93407252,613a9833c9a297f3ac00743f,626b377229c10585ec392f8a,626b3b477fd5610a2c41f186,,,,,,,,,,,,,,,,,,,,,,,l,1,"[""0.676"",""0.429"",""0.490"",""0.771""]","[0,1,1,1]",0,30,30,30,1,1,0,,,0,FALSE,6.451,,,,,,,,,,,,,,,,,,,,,,,,,,,,,,
,,001,2022-04-28_20h15.26.308,classification_task,2021.2.3,MacIntel,59.93407252,613a9833c9a297f3ac00743f,626b377229c10585ec392f8a,626b3b477fd5610a2c41f186,,,,,,,,,,,,,,,,,,,,,,,l,1,"[""0.038"",""0.636"",""0.534"",""0.807""]","[1,0,1,1]",0,31,31,31,1,1,1,,,0,FALSE,6.0527,,,,,,,,,,,,,,,,,,,,,,,,,,,,,,
,,001,2022-04-28_20h15.26.308,classification_task,2021.2.3,MacIntel,59.93407252,613a9833c9a297f3ac00743f,626b377229c10585ec392f8a,626b3b477fd5610a2c41f186,,,,,,,,,,,,,,,,,,,,,,,l,1,"[""0.660"",""0.076"",""0.534"",""0.807""]","[0,1,1,1]",0,32,32,32,1,1,1,,,0,FALSE,2.6667,,,,,,,,,,,,,,,,,,,,,,,,,,,,,,
,,001,2022-04-28_20h15.26.308,classification_task,2021.2.3,MacIntel,59.93407252,613a9833c9a297f3ac00743f,626b377229c10585ec392f8a,626b3b477fd5610a2c41f186,,,,,,,,,,,,,,,,,,,,,,,l,1,"[""0.038"",""0.076"",""0.636"",""0.807""]","[1,1,0,1]",0,33,33,33,1,1,1,,,0,FALSE,1.0988,,,,,,,,,,,,,,,,,,,,,,,,,,,,,,
,,001,2022-04-28_20h15.26.308,classification_task,2021.2.3,MacIntel,59.93407252,613a9833c9a297f3ac00743f,626b377229c10585ec392f8a,626b3b477fd5610a2c41f186,,,,,,,,,,,,,,,,,,,,,,,l,1,"[""0.038"",""0.076"",""0.534"",""0.615""]","[1,1,1,0]",0,34,34,34,1,1,1,,,0,FALSE,1.3706,,,,,,,,,,,,,,,,,,,,,,,,,,,,,,
,,001,2022-04-28_20h15.26.308,classification_task,2021.2.3,MacIntel,59.93407252,613a9833c9a297f3ac00743f,626b377229c10585ec392f8a,626b3b477fd5610a2c41f186,,,,,,,,,,,,,,,,,,,,,,,l,0,"[""0.584"",""0.353"",""0.875"",""0.960""]","[0,1,1,1]",0,35,35,35,1,0,0,,,0,FALSE,4.4658,,,,,,,,,,,,,,,,,,,,,,,,,,,,,,
,,001,2022-04-28_20h15.26.308,classification_task,2021.2.3,MacIntel,59.93407252,613a9833c9a297f3ac00743f,626b377229c10585ec392f8a,626b3b477fd5610a2c41f186,,,,,,,,,,,,,,,,,,,,,,,a,0,"[""0.145"",""0.429"",""0.490"",""0.660""]","[1,1,1,0]",0,36,36,36,1,1,0,,,0,FALSE,1.6502,,,,,,,,,,,,,,,,,,,,,,,,,,,,,,
,,001,2022-04-28_20h15.26.308,classification_task,2021.2.3,MacIntel,59.93407252,613a9833c9a297f3ac00743f,626b377229c10585ec392f8a,626b3b477fd5610a2c41f186,,,,,,,,,,,,,,,,,,,,,,,a,1,"[""0.315"",""0.386"",""0.660"",""0.914""]","[1,1,0,1]",0,37,37,37,1,0,1,,,0,FALSE,1.7687,,,,,,,,,,,,,,,,,,,,,,,,,,,,,,
,,001,2022-04-28_20h15.26.308,classification_task,2021.2.3,MacIntel,59.93407252,613a9833c9a297f3ac00743f,626b377229c10585ec392f8a,626b3b477fd5610a2c41f186,,,,,,,,,,,,,,,,,,,,,,,a,1,"[""0.315"",""0.386"",""0.723"",""0.676""]","[1,1,1,0]",0,38,38,38,1,0,1,,,0,FALSE,1.3278,,,,,,,,,,,,,,,,,,,,,,,,,,,,,,
,,001,2022-04-28_20h15.26.308,classification_task,2021.2.3,MacIntel,59.93407252,613a9833c9a297f3ac00743f,626b377229c10585ec392f8a,626b3b477fd5610a2c41f186,,,,,,,,,,,,,,,,,,,,,,,l,1,"[""0.038"",""0.661"",""0.534"",""0.807""]","[1,0,1,1]",0,39,39,39,1,1,1,,,0,FALSE,1.027,,,,,,,,,,,,,,,,,,,,,,,,,,,,,,
,,001,2022-04-28_20h15.26.308,classification_task,2021.2.3,MacIntel,59.93407252,613a9833c9a297f3ac00743f,626b377229c10585ec392f8a,626b3b477fd5610a2c41f186,,,,,,,,,,,,,,,,,,,,,,,l,0,"[""0.208"",""0.584"",""0.875"",""0.960""]","[1,0,1,1]",0,40,40,40,1,0,0,,,0,FALSE,4.1454,,,,,,,,,,,,,,,,,,,,,,,,,,,,,,
,,001,2022-04-28_20h15.26.308,classification_task,2021.2.3,MacIntel,59.93407252,613a9833c9a297f3ac00743f,626b377229c10585ec392f8a,626b3b477fd5610a2c41f186,,,,,,,,,,,,,,,,,,,,,,,a,0,"[""0.145"",""0.277"",""0.490"",""0.771""]","[1,0,1,1]",0,41,41,41,1,1,0,,,0,FALSE,0.8719,,,,,,,,,,,,,,,,,,,,,,,,,,,,,,
,,001,2022-04-28_20h15.26.308,classification_task,2021.2.3,MacIntel,59.93407252,613a9833c9a297f3ac00743f,626b377229c10585ec392f8a,626b3b477fd5610a2c41f186,,,,,,,,,,,,,,,,,,,,,,,a,1,"[""0.208"",""0.353"",""0.661"",""0.960""]","[1,1,0,1]",0,42,42,42,1,0,0,,,0,FALSE,1.6185,,,,,,,,,,,,,,,,,,,,,,,,,,,,,,
,,001,2022-04-28_20h15.26.308,classification_task,2021.2.3,MacIntel,59.93407252,613a9833c9a297f3ac00743f,626b377229c10585ec392f8a,626b3b477fd5610a2c41f186,,,,,,,,,,,,,,,,,,,,,,,a,0,"[""0.145"",""0.429"",""0.584"",""0.771""]","[1,1,0,1]",0,43,43,43,1,1,0,,,0,FALSE,0.9437,,,,,,,,,,,,,,,,,,,,,,,,,,,,,,
,,001,2022-04-28_20h15.26.308,classification_task,2021.2.3,MacIntel,59.93407252,613a9833c9a297f3ac00743f,626b377229c10585ec392f8a,626b3b477fd5610a2c41f186,,,,,,,,,,,,,,,,,,,,,,,a,1,"[""0.315"",""0.581"",""0.723"",""0.914""]","[1,0,1,1]",0,44,44,44,1,0,1,,,0,FALSE,2.3216,,,,,,,,,,,,,,,,,,,,,,,,,,,,,,
,,001,2022-04-28_20h15.26.308,classification_task,2021.2.3,MacIntel,59.93407252,613a9833c9a297f3ac00743f,626b377229c10585ec392f8a,626b3b477fd5610a2c41f186,,,,,,,,,,,,,,,,,,,,,,,a,1,"[""0.208"",""0.353"",""0.875"",""0.580""]","[1,1,1,0]",0,45,45,45,1,0,0,,,0,FALSE,1.379,,,,,,,,,,,,,,,,,,,,,,,,,,,,,,
,,001,2022-04-28_20h15.26.308,classification_task,2021.2.3,MacIntel,59.93407252,613a9833c9a297f3ac00743f,626b377229c10585ec392f8a,626b3b477fd5610a2c41f186,,,,,,,,,,,,,,,,,,,,,,,a,1,"[""0.676"",""0.386"",""0.723"",""0.914""]","[0,1,1,1]",0,46,46,46,1,0,1,,,0,FALSE,3.1569,,,,,,,,,,,,,,,,,,,,,,,,,,,,,,
,,001,2022-04-28_20h15.26.308,classification_task,2021.2.3,MacIntel,59.93407252,613a9833c9a297f3ac00743f,626b377229c10585ec392f8a,626b3b477fd5610a2c41f186,,,,,,,,,,,,,,,,,,,,,,,l,1,"[""0.277"",""0.429"",""0.490"",""0.771""]","[0,1,1,1]",0,47,47,47,1,1,0,,,0,FALSE,3.8303,,,,,,,,,,,,,,,,,,,,,,,,,,,,,,
,,001,2022-04-28_20h15.26.308,classification_task,2021.2.3,MacIntel,59.93407252,613a9833c9a297f3ac00743f,626b377229c10585ec392f8a,626b3b477fd5610a2c41f186,,,,,,,,,,,,,,,,,,,,,,,l,0,"[""0.584"",""0.353"",""0.875"",""0.960""]","[0,1,1,1]",0,48,48,48,1,0,0,,,0,FALSE,2.4293,,,,,,,,,,,,,,,,,,,,,,,,,,,,,,
,,001,2022-04-28_20h15.26.308,classification_task,2021.2.3,MacIntel,59.93407252,613a9833c9a297f3ac00743f,626b377229c10585ec392f8a,626b3b477fd5610a2c41f186,,,,,,,,,,,,,,,,,,,,,,,a,1,"[""0.682"",""0.386"",""0.723"",""0.914""]","[0,1,1,1]",0,49,49,49,1,0,1,,,0,FALSE,2.6958,,,,,,,,,,,,,,,,,,,,,,,,,,,,,,
,,001,2022-04-28_20h15.26.308,classification_task,2021.2.3,MacIntel,59.93407252,613a9833c9a297f3ac00743f,626b377229c10585ec392f8a,626b3b477fd5610a2c41f186,,,,,,,,,,,,,,,,,,,,,,,a,0,"[""0.145"",""0.429"",""0.490"",""0.636""]","[1,1,1,0]",0,50,50,50,1,1,0,,,0,FALSE,1.7983,,,,,,,,,,,,,,,,,,,,,,,,,,,,,,
,,001,2022-04-28_20h15.26.308,classification_task,2021.2.3,MacIntel,59.93407252,613a9833c9a297f3ac00743f,626b377229c10585ec392f8a,626b3b477fd5610a2c41f186,,,,,,,,,,,,,,,,,,,,,,,a,0,"[""0.672"",""0.429"",""0.490"",""0.771""]","[0,1,1,1]",0,51,51,51,1,1,0,,,0,FALSE,1.135,,,,,,,,,,,,,,,,,,,,,,,,,,,,,,
,,001,2022-04-28_20h15.26.308,classification_task,2021.2.3,MacIntel,59.93407252,613a9833c9a297f3ac00743f,626b377229c10585ec392f8a,626b3b477fd5610a2c41f186,,,,,,,,,,,,,,,,,,,,,,,a,1,"[""0.208"",""0.581"",""0.875"",""0.960""]","[1,0,1,1]",0,52,52,52,1,0,0,,,0,FALSE,2.0358,,,,,,,,,,,,,,,,,,,,,,,,,,,,,,
,,001,2022-04-28_20h15.26.308,classification_task,2021.2.3,MacIntel,59.93407252,613a9833c9a297f3ac00743f,626b377229c10585ec392f8a,626b3b477fd5610a2c41f186,,,,,,,,,,,,,,,,,,,,,,,a,1,"[""0.315"",""0.580"",""0.723"",""0.914""]","[1,0,1,1]",0,53,53,53,1,0,1,,,0,FALSE,3.0458,,,,,,,,,,,,,,,,,,,,,,,,,,,,,,
,,001,2022-04-28_20h15.26.308,classification_task,2021.2.3,MacIntel,59.93407252,613a9833c9a297f3ac00743f,626b377229c10585ec392f8a,626b3b477fd5610a2c41f186,,,,,,,,,,,,,,,,,,,,,,,a,1,"[""0.315"",""0.386"",""0.645"",""0.914""]","[1,1,0,1]",0,54,54,54,1,0,1,,,0,FALSE,1.2014,,,,,,,,,,,,,,,,,,,,,,,,,,,,,,
,,001,2022-04-28_20h15.26.308,classification_task,2021.2.3,MacIntel,59.93407252,613a9833c9a297f3ac00743f,626b377229c10585ec392f8a,626b3b477fd5610a2c41f186,,,,,,,,,,,,,,,,,,,,,,,l,1,"[""0.038"",""0.076"",""0.534"",""0.661""]","[1,1,1,0]",0,55,55,55,1,1,1,,,0,FALSE,1.1515,,,,,,,,,,,,,,,,,,,,,,,,,,,,,,
,,001,2022-04-28_20h15.26.308,classification_task,2021.2.3,MacIntel,59.93407252,613a9833c9a297f3ac00743f,626b377229c10585ec392f8a,626b3b477fd5610a2c41f186,,,,,,,,,,,,,,,,,,,,,,,a,1,"[""0.315"",""0.386"",""0.723"",""0.661""]","[1,1,1,0]",0,56,56,56,1,0,1,,,0,FALSE,2.7194,,,,,,,,,,,,,,,,,,,,,,,,,,,,,,
,,001,2022-04-28_20h15.26.308,classification_task,2021.2.3,MacIntel,59.93407252,613a9833c9a297f3ac00743f,626b377229c10585ec392f8a,626b3b477fd5610a2c41f186,,,,,,,,,,,,,,,,,,,,,,,l,0,"[""0.208"",""0.353"",""0.615"",""0.960""]","[1,1,0,1]",0,57,57,57,1,0,0,,,0,FALSE,2.6958,,,,,,,,,,,,,,,,,,,,,,,,,,,,,,
,,001,2022-04-28_20h15.26.308,classification_task,2021.2.3,MacIntel,59.93407252,613a9833c9a297f3ac00743f,626b377229c10585ec392f8a,626b3b477fd5610a2c41f186,,,,,,,,,,,,,,,,,,,,,,,a,0,"[""0.145"",""0.429"",""0.659"",""0.771""]","[1,1,0,1]",0,58,58,58,1,1,0,,,0,FALSE,0.9443,,,,,,,,,,,,,,,,,,,,,,,,,,,,,,
,,001,2022-04-28_20h15.26.308,classification_task,2021.2.3,MacIntel,59.93407252,613a9833c9a297f3ac00743f,626b377229c10585ec392f8a,626b3b477fd5610a2c41f186,,,,,,,,,,,,,,,,,,,,,,,a,1,"[""0.208"",""0.353"",""0.875"",""0.277""]","[1,1,1,0]",0,59,59,59,1,0,0,,,0,FALSE,0.9281,,,,,,,,,,,,,,,,,,,,,,,,,,,,,,
,,001,2022-04-28_20h15.26.308,classification_task,2021.2.3,MacIntel,59.93407252,613a9833c9a297f3ac00743f,626b377229c10585ec392f8a,626b3b477fd5610a2c41f186,,,,,,,,,,,,,,,,,,,,,,,a,0,"[""0.145"",""0.672"",""0.490"",""0.771""]","[1,0,1,1]",0,60,60,60,1,1,0,,,0,FALSE,1.2684,,,,,,,,,,,,,,,,,,,,,,,,,,,,,,
,,001,2022-04-28_20h15.26.308,classification_task,2021.2.3,MacIntel,59.93407252,613a9833c9a297f3ac00743f,626b377229c10585ec392f8a,626b3b477fd5610a2c41f186,,,,,,,,,,,,,,,,,,,,,,,l,1,"[""0.038"",""0.659"",""0.534"",""0.807""]","[1,0,1,1]",0,61,61,61,1,1,1,,,0,FALSE,3.1457,,,,,,,,,,,,,,,,,,,,,,,,,,,,,,
,,001,2022-04-28_20h15.26.308,classification_task,2021.2.3,MacIntel,59.93407252,613a9833c9a297f3ac00743f,626b377229c10585ec392f8a,626b3b477fd5610a2c41f186,,,,,,,,,,,,,,,,,,,,,,,l,1,"[""0.038"",""0.076"",""0.609"",""0.807""]","[1,1,0,1]",0,62,62,62,1,1,1,,,0,FALSE,1.2022,,,,,,,,,,,,,,,,,,,,,,,,,,,,,,
,,001,2022-04-28_20h15.26.308,classification_task,2021.2.3,MacIntel,59.93407252,613a9833c9a297f3ac00743f,626b377229c10585ec392f8a,626b3b477fd5610a2c41f186,,,,,,,,,,,,,,,,,,,,,,,l,1,"[""0.682"",""0.076"",""0.534"",""0.807""]","[0,1,1,1]",0,63,63,63,1,1,1,,,0,FALSE,1.0253,,,,,,,,,,,,,,,,,,,,,,,,,,,,,,
,,001,2022-04-28_20h15.26.308,classification_task,2021.2.3,MacIntel,59.93407252,613a9833c9a297f3ac00743f,626b377229c10585ec392f8a,626b3b477fd5610a2c41f186,,,,,,,,,,,,,,,,,,,,,,,,,,,,,,,,,,,,,,,0, ,,0,6.566078624,652.8994,0,0,0,0,1,2,1,,,,,,,,,,,,,,,,,
,,001,2022-04-28_20h15.26.308,classification_task,2021.2.3,MacIntel,59.93407252,613a9833c9a297f3ac00743f,626b377229c10585ec392f8a,626b3b477fd5610a2c41f186,,,,,,,,,,,,,,,,,,,,,,,,,,,,,,,,,,,,,,,1,  ,,0,10,638.1485,0,0,0,0,1,2,1,,,,,,,,,,,,,,,,,
,,001,2022-04-28_20h15.26.308,classification_task,2021.2.3,MacIntel,59.93407252,613a9833c9a297f3ac00743f,626b377229c10585ec392f8a,626b3b477fd5610a2c41f186,,,,,,,,,,,,,,,,,,,,,,,,,,,,,,,,,,,,,,,2,  ,,0,2.348851931,643.1762,0,0,0,0,1,2,1,,,,,,,,,,,,,,,,,
,,001,2022-04-28_20h15.26.308,classification_task,2021.2.3,MacIntel,59.93407252,613a9833c9a297f3ac00743f,626b377229c10585ec392f8a,626b3b477fd5610a2c41f186,,,,,,,,,,,,,,,,,,,,,,,,,,,,,,,,,,,,,,,,,,,,,0,0,0,0,1,,1,,,,,,,,,,,,,,,,,
,,001,2022-04-28_20h15.26.308,classification_task,2021.2.3,MacIntel,59.93407252,613a9833c9a297f3ac00743f,626b377229c10585ec392f8a,626b3b477fd5610a2c41f186,,,,,,,,,,,,,,,,,,,,,space,100.9841,l,1,"[""0.609"",""0.076"",""0.534"",""0.807""]","[0,1,1,1]",0,0,0,0,1,1,1,,,0,FALSE,4.7311,,,,,,,,,,,,,,,,,,,,,,,,,,,,,,
,,001,2022-04-28_20h15.26.308,classification_task,2021.2.3,MacIntel,59.93407252,613a9833c9a297f3ac00743f,626b377229c10585ec392f8a,626b3b477fd5610a2c41f186,,,,,,,,,,,,,,,,,,,,,,,l,1,"[""0.145"",""0.661"",""0.490"",""0.771""]","[1,0,1,1]",0,1,1,1,1,1,0,,,0,FALSE,2.6586,,,,,,,,,,,,,,,,,,,,,,,,,,,,,,
,,001,2022-04-28_20h15.26.308,classification_task,2021.2.3,MacIntel,59.93407252,613a9833c9a297f3ac00743f,626b377229c10585ec392f8a,626b3b477fd5610a2c41f186,,,,,,,,,,,,,,,,,,,,,,,a,1,"[""0.208"",""0.353"",""0.659"",""0.960""]","[1,1,0,1]",0,2,2,2,1,0,0,,,0,FALSE,0.8165,,,,,,,,,,,,,,,,,,,,,,,,,,,,,,
,,001,2022-04-28_20h15.26.308,classification_task,2021.2.3,MacIntel,59.93407252,613a9833c9a297f3ac00743f,626b377229c10585ec392f8a,626b3b477fd5610a2c41f186,,,,,,,,,,,,,,,,,,,,,,,l,1,"[""0.145"",""0.429"",""0.490"",""0.661""]","[1,1,1,0]",0,3,3,3,1,1,0,,,0,FALSE,0.802,,,,,,,,,,,,,,,,,,,,,,,,,,,,,,
,,001,2022-04-28_20h15.26.308,classification_task,2021.2.3,MacIntel,59.93407252,613a9833c9a297f3ac00743f,626b377229c10585ec392f8a,626b3b477fd5610a2c41f186,,,,,,,,,,,,,,,,,,,,,,,l,1,"[""0.038"",""0.076"",""0.534"",""0.661""]","[1,1,1,0]",0,4,4,4,1,1,1,,,0,FALSE,2.2885,,,,,,,,,,,,,,,,,,,,,,,,,,,,,,
,,001,2022-04-28_20h15.26.308,classification_task,2021.2.3,MacIntel,59.93407252,613a9833c9a297f3ac00743f,626b377229c10585ec392f8a,626b3b477fd5610a2c41f186,,,,,,,,,,,,,,,,,,,,,,,a,0,"[""0.038"",""0.609"",""0.534"",""0.807""]","[1,0,1,1]",0,5,5,5,1,1,1,,,0,FALSE,2.1501,,,,,,,,,,,,,,,,,,,,,,,,,,,,,,
,,001,2022-04-28_20h15.26.308,classification_task,2021.2.3,MacIntel,59.93407252,613a9833c9a297f3ac00743f,626b377229c10585ec392f8a,626b3b477fd5610a2c41f186,,,,,,,,,,,,,,,,,,,,,,,a,1,"[""0.208"",""0.676"",""0.875"",""0.960""]","[1,0,1,1]",0,6,6,6,1,0,0,,,0,FALSE,1.4861,,,,,,,,,,,,,,,,,,,,,,,,,,,,,,
,,001,2022-04-28_20h15.26.308,classification_task,2021.2.3,MacIntel,59.93407252,613a9833c9a297f3ac00743f,626b377229c10585ec392f8a,626b3b477fd5610a2c41f186,,,,,,,,,,,,,,,,,,,,,,,a,1,"[""0.595"",""0.386"",""0.723"",""0.914""]","[0,1,1,1]",0,7,7,7,1,0,1,,,0,FALSE,2.1797,,,,,,,,,,,,,,,,,,,,,,,,,,,,,,
,,001,2022-04-28_20h15.26.308,classification_task,2021.2.3,MacIntel,59.93407252,613a9833c9a297f3ac00743f,626b377229c10585ec392f8a,626b3b477fd5610a2c41f186,,,,,,,,,,,,,,,,,,,,,,,a,1,"[""0.208"",""0.353"",""0.875"",""0.659""]","[1,1,1,0]",0,8,8,8,1,0,0,,,0,FALSE,1.0214,,,,,,,,,,,,,,,,,,,,,,,,,,,,,,
,,001,2022-04-28_20h15.26.308,classification_task,2021.2.3,MacIntel,59.93407252,613a9833c9a297f3ac00743f,626b377229c10585ec392f8a,626b3b477fd5610a2c41f186,,,,,,,,,,,,,,,,,,,,,,,a,1,"[""0.645"",""0.353"",""0.875"",""0.960""]","[0,1,1,1]",0,9,9,9,1,0,0,,,0,FALSE,0.6339,,,,,,,,,,,,,,,,,,,,,,,,,,,,,,
,,001,2022-04-28_20h15.26.308,classification_task,2021.2.3,MacIntel,59.93407252,613a9833c9a297f3ac00743f,626b377229c10585ec392f8a,626b3b477fd5610a2c41f186,,,,,,,,,,,,,,,,,,,,,,,a,0,"[""0.038"",""0.076"",""0.580"",""0.807""]","[1,1,0,1]",0,10,10,10,1,1,1,,,0,FALSE,3.0172,,,,,,,,,,,,,,,,,,,,,,,,,,,,,,
,,001,2022-04-28_20h15.26.308,classification_task,2021.2.3,MacIntel,59.93407252,613a9833c9a297f3ac00743f,626b377229c10585ec392f8a,626b3b477fd5610a2c41f186,,,,,,,,,,,,,,,,,,,,,,,a,1,"[""0.315"",""0.386"",""0.723"",""0.609""]","[1,1,1,0]",0,11,11,11,1,0,1,,,0,FALSE,1.6828,,,,,,,,,,,,,,,,,,,,,,,,,,,,,,
,,001,2022-04-28_20h15.26.308,classification_task,2021.2.3,MacIntel,59.93407252,613a9833c9a297f3ac00743f,626b377229c10585ec392f8a,626b3b477fd5610a2c41f186,,,,,,,,,,,,,,,,,,,,,,,a,1,"[""0.315"",""0.615"",""0.723"",""0.914""]","[1,0,1,1]",0,12,12,12,1,0,1,,,0,FALSE,1.3396,,,,,,,,,,,,,,,,,,,,,,,,,,,,,,
,,001,2022-04-28_20h15.26.308,classification_task,2021.2.3,MacIntel,59.93407252,613a9833c9a297f3ac00743f,626b377229c10585ec392f8a,626b3b477fd5610a2c41f186,,,,,,,,,,,,,,,,,,,,,,,l,1,"[""0.145"",""0.429"",""0.659"",""0.771""]","[1,1,0,1]",0,13,13,13,1,1,0,,,0,FALSE,0.8442,,,,,,,,,,,,,,,,,,,,,,,,,,,,,,
,,001,2022-04-28_20h15.26.308,classification_task,2021.2.3,MacIntel,59.93407252,613a9833c9a297f3ac00743f,626b377229c10585ec392f8a,626b3b477fd5610a2c41f186,,,,,,,,,,,,,,,,,,,,,,,l,1,"[""0.277"",""0.429"",""0.490"",""0.771""]","[0,1,1,1]",0,14,14,14,1,1,0,,,0,FALSE,0.955,,,,,,,,,,,,,,,,,,,,,,,,,,,,,,
,,001,2022-04-28_20h15.26.308,classification_task,2021.2.3,MacIntel,59.93407252,613a9833c9a297f3ac00743f,626b377229c10585ec392f8a,626b3b477fd5610a2c41f186,,,,,,,,,,,,,,,,,,,,,,,a,1,"[""0.315"",""0.386"",""0.636"",""0.914""]","[1,1,0,1]",0,15,15,15,1,0,1,,,0,FALSE,1.4012,,,,,,,,,,,,,,,,,,,,,,,,,,,,,,
,,001,2022-04-28_20h15.26.308,classification_task,2021.2.3,MacIntel,59.93407252,613a9833c9a297f3ac00743f,626b377229c10585ec392f8a,626b3b477fd5610a2c41f186,,,,,,,,,,,,,,,,,,,,,,,l,1,"[""0.145"",""0.429"",""0.490"",""0.584""]","[1,1,1,0]",0,16,16,16,1,1,0,,,0,FALSE,0.9243,,,,,,,,,,,,,,,,,,,,,,,,,,,,,,
,,001,2022-04-28_20h15.26.308,classification_task,2021.2.3,MacIntel,59.93407252,613a9833c9a297f3ac00743f,626b377229c10585ec392f8a,626b3b477fd5610a2c41f186,,,,,,,,,,,,,,,,,,,,,,,a,1,"[""0.208"",""0.353"",""0.875"",""0.584""]","[1,1,1,0]",0,17,17,17,1,0,0,,,0,FALSE,0.8908,,,,,,,,,,,,,,,,,,,,,,,,,,,,,,
,,001,2022-04-28_20h15.26.308,classification_task,2021.2.3,MacIntel,59.93407252,613a9833c9a297f3ac00743f,626b377229c10585ec392f8a,626b3b477fd5610a2c41f186,,,,,,,,,,,,,,,,,,,,,,,a,1,"[""0.208"",""0.353"",""0.615"",""0.960""]","[1,1,0,1]",0,18,18,18,1,0,0,,,0,FALSE,0.6559,,,,,,,,,,,,,,,,,,,,,,,,,,,,,,
,,001,2022-04-28_20h15.26.308,classification_task,2021.2.3,MacIntel,59.93407252,613a9833c9a297f3ac00743f,626b377229c10585ec392f8a,626b3b477fd5610a2c41f186,,,,,,,,,,,,,,,,,,,,,,,l,1,"[""0.145"",""0.636"",""0.490"",""0.771""]","[1,0,1,1]",0,19,19,19,1,1,0,,,0,FALSE,0.4709,,,,,,,,,,,,,,,,,,,,,,,,,,,,,,
,,001,2022-04-28_20h15.26.308,classification_task,2021.2.3,MacIntel,59.93407252,613a9833c9a297f3ac00743f,626b377229c10585ec392f8a,626b3b477fd5610a2c41f186,,,,,,,,,,,,,,,,,,,,,,,l,1,"[""0.038"",""0.076"",""0.534"",""0.595""]","[1,1,1,0]",0,20,20,20,1,1,1,,,0,FALSE,2.017,,,,,,,,,,,,,,,,,,,,,,,,,,,,,,
,,001,2022-04-28_20h15.26.308,classification_task,2021.2.3,MacIntel,59.93407252,613a9833c9a297f3ac00743f,626b377229c10585ec392f8a,626b3b477fd5610a2c41f186,,,,,,,,,,,,,,,,,,,,,,,a,1,"[""0.315"",""0.386"",""0.723"",""0.672""]","[1,1,1,0]",0,21,21,21,1,0,1,,,0,FALSE,3.4352,,,,,,,,,,,,,,,,,,,,,,,,,,,,,,
,,001,2022-04-28_20h15.26.308,classification_task,2021.2.3,MacIntel,59.93407252,613a9833c9a297f3ac00743f,626b377229c10585ec392f8a,626b3b477fd5610a2c41f186,,,,,,,,,,,,,,,,,,,,,,,a,1,"[""0.315"",""0.386"",""0.676"",""0.914""]","[1,1,0,1]",0,22,22,22,1,0,1,,,0,FALSE,1.5269,,,,,,,,,,,,,,,,,,,,,,,,,,,,,,
,,001,2022-04-28_20h15.26.308,classification_task,2021.2.3,MacIntel,59.93407252,613a9833c9a297f3ac00743f,626b377229c10585ec392f8a,626b3b477fd5610a2c41f186,,,,,,,,,,,,,,,,,,,,,,,a,1,"[""0.584"",""0.386"",""0.723"",""0.914""]","[0,1,1,1]",0,23,23,23,1,0,1,,,0,FALSE,1.8568,,,,,,,,,,,,,,,,,,,,,,,,,,,,,,
,,001,2022-04-28_20h15.26.308,classification_task,2021.2.3,MacIntel,59.93407252,613a9833c9a297f3ac00743f,626b377229c10585ec392f8a,626b3b477fd5610a2c41f186,,,,,,,,,,,,,,,,,,,,,,,a,1,"[""0.208"",""0.661"",""0.875"",""0.960""]","[1,0,1,1]",0,24,24,24,1,0,0,,,0,FALSE,0.8076,,,,,,,,,,,,,,,,,,,,,,,,,,,,,,
,,001,2022-04-28_20h15.26.308,classification_task,2021.2.3,MacIntel,59.93407252,613a9833c9a297f3ac00743f,626b377229c10585ec392f8a,626b3b477fd5610a2c41f186,,,,,,,,,,,,,,,,,,,,,,,a,0,"[""0.038"",""0.661"",""0.534"",""0.807""]","[1,0,1,1]",0,25,25,25,1,1,1,,,0,FALSE,1.8331,,,,,,,,,,,,,,,,,,,,,,,,,,,,,,
,,001,2022-04-28_20h15.26.308,classification_task,2021.2.3,MacIntel,59.93407252,613a9833c9a297f3ac00743f,626b377229c10585ec392f8a,626b3b477fd5610a2c41f186,,,,,,,,,,,,,,,,,,,,,,,l,1,"[""0.038"",""0.076"",""0.659"",""0.807""]","[1,1,0,1]",0,26,26,26,1,1,1,,,0,FALSE,1.0607,,,,,,,,,,,,,,,,,,,,,,,,,,,,,,
,,001,2022-04-28_20h15.26.308,classification_task,2021.2.3,MacIntel,59.93407252,613a9833c9a297f3ac00743f,626b377229c10585ec392f8a,626b3b477fd5610a2c41f186,,,,,,,,,,,,,,,,,,,,,,,l,1,"[""0.682"",""0.076"",""0.534"",""0.807""]","[0,1,1,1]",0,27,27,27,1,1,1,,,0,FALSE,1.5363,,,,,,,,,,,,,,,,,,,,,,,,,,,,,,
,,001,2022-04-28_20h15.26.308,classification_task,2021.2.3,MacIntel,59.93407252,613a9833c9a297f3ac00743f,626b377229c10585ec392f8a,626b3b477fd5610a2c41f186,,,,,,,,,,,,,,,,,,,,,,,l,1,"[""0.661"",""0.429"",""0.490"",""0.771""]","[0,1,1,1]",0,28,28,28,1,1,0,,,0,FALSE,0.7013,,,,,,,,,,,,,,,,,,,,,,,,,,,,,,
,,001,2022-04-28_20h15.26.308,classification_task,2021.2.3,MacIntel,59.93407252,613a9833c9a297f3ac00743f,626b377229c10585ec392f8a,626b3b477fd5610a2c41f186,,,,,,,,,,,,,,,,,,,,,,,a,1,"[""0.672"",""0.353"",""0.875"",""0.960""]","[0,1,1,1]",0,29,29,29,1,0,0,,,0,FALSE,0.6169,,,,,,,,,,,,,,,,,,,,,,,,,,,,,,
,,001,2022-04-28_20h15.26.308,classification_task,2021.2.3,MacIntel,59.93407252,613a9833c9a297f3ac00743f,626b377229c10585ec392f8a,626b3b477fd5610a2c41f186,,,,,,,,,,,,,,,,,,,,,,,l,1,"[""0.145"",""0.429"",""0.661"",""0.771""]","[1,1,0,1]",0,30,30,30,1,1,0,,,0,FALSE,0.7839,,,,,,,,,,,,,,,,,,,,,,,,,,,,,,
,,001,2022-04-28_20h15.26.308,classification_task,2021.2.3,MacIntel,59.93407252,613a9833c9a297f3ac00743f,626b377229c10585ec392f8a,626b3b477fd5610a2c41f186,,,,,,,,,,,,,,,,,,,,,,,a,1,"[""0.315"",""0.580"",""0.723"",""0.914""]","[1,0,1,1]",0,31,31,31,1,0,1,,,0,FALSE,1.3503,,,,,,,,,,,,,,,,,,,,,,,,,,,,,,
,,001,2022-04-28_20h15.26.308,classification_task,2021.2.3,MacIntel,59.93407252,613a9833c9a297f3ac00743f,626b377229c10585ec392f8a,626b3b477fd5610a2c41f186,,,,,,,,,,,,,,,,,,,,,,,l,1,"[""0.145"",""0.429"",""0.682"",""0.771""]","[1,1,0,1]",0,32,32,32,1,1,0,,,0,FALSE,0.7584,,,,,,,,,,,,,,,,,,,,,,,,,,,,,,
,,001,2022-04-28_20h15.26.308,classification_task,2021.2.3,MacIntel,59.93407252,613a9833c9a297f3ac00743f,626b377229c10585ec392f8a,626b3b477fd5610a2c41f186,,,,,,,,,,,,,,,,,,,,,,,a,1,"[""0.315"",""0.386"",""0.723"",""0.584""]","[1,1,1,0]",0,33,33,33,1,0,1,,,0,FALSE,1.1653,,,,,,,,,,,,,,,,,,,,,,,,,,,,,,
,,001,2022-04-28_20h15.26.308,classification_task,2021.2.3,MacIntel,59.93407252,613a9833c9a297f3ac00743f,626b377229c10585ec392f8a,626b3b477fd5610a2c41f186,,,,,,,,,,,,,,,,,,,,,,,a,1,"[""0.315"",""0.386"",""0.636"",""0.914""]","[1,1,0,1]",0,34,34,34,1,0,1,,,0,FALSE,1.0721,,,,,,,,,,,,,,,,,,,,,,,,,,,,,,
,,001,2022-04-28_20h15.26.308,classification_task,2021.2.3,MacIntel,59.93407252,613a9833c9a297f3ac00743f,626b377229c10585ec392f8a,626b3b477fd5610a2c41f186,,,,,,,,,,,,,,,,,,,,,,,l,1,"[""0.584"",""0.429"",""0.490"",""0.771""]","[0,1,1,1]",0,35,35,35,1,1,0,,,0,FALSE,0.7375,,,,,,,,,,,,,,,,,,,,,,,,,,,,,,
,,001,2022-04-28_20h15.26.308,classification_task,2021.2.3,MacIntel,59.93407252,613a9833c9a297f3ac00743f,626b377229c10585ec392f8a,626b3b477fd5610a2c41f186,,,,,,,,,,,,,,,,,,,,,,,l,1,"[""0.145"",""0.659"",""0.490"",""0.771""]","[1,0,1,1]",0,36,36,36,1,1,0,,,0,FALSE,0.7223,,,,,,,,,,,,,,,,,,,,,,,,,,,,,,
,,001,2022-04-28_20h15.26.308,classification_task,2021.2.3,MacIntel,59.93407252,613a9833c9a297f3ac00743f,626b377229c10585ec392f8a,626b3b477fd5610a2c41f186,,,,,,,,,,,,,,,,,,,,,,,l,1,"[""0.038"",""0.076"",""0.534"",""0.277""]","[1,1,1,0]",0,37,37,37,1,1,1,,,0,FALSE,1.6282,,,,,,,,,,,,,,,,,,,,,,,,,,,,,,
,,001,2022-04-28_20h15.26.308,classification_task,2021.2.3,MacIntel,59.93407252,613a9833c9a297f3ac00743f,626b377229c10585ec392f8a,626b3b477fd5610a2c41f186,,,,,,,,,,,,,,,,,,,,,,,a,1,"[""0.208"",""0.353"",""0.875"",""0.672""]","[1,1,1,0]",0,38,38,38,1,0,0,,,0,FALSE,1.2078,,,,,,,,,,,,,,,,,,,,,,,,,,,,,,
,,001,2022-04-28_20h15.26.308,classification_task,2021.2.3,MacIntel,59.93407252,613a9833c9a297f3ac00743f,626b377229c10585ec392f8a,626b3b477fd5610a2c41f186,,,,,,,,,,,,,,,,,,,,,,,a,1,"[""0.660"",""0.386"",""0.723"",""0.914""]","[0,1,1,1]",0,39,39,39,1,0,1,,,0,FALSE,1.9035,,,,,,,,,,,,,,,,,,,,,,,,,,,,,,
,,001,2022-04-28_20h15.26.308,classification_task,2021.2.3,MacIntel,59.93407252,613a9833c9a297f3ac00743f,626b377229c10585ec392f8a,626b3b477fd5610a2c41f186,,,,,,,,,,,,,,,,,,,,,,,l,1,"[""0.595"",""0.076"",""0.534"",""0.807""]","[0,1,1,1]",0,40,40,40,1,1,1,,,0,FALSE,1.7614,,,,,,,,,,,,,,,,,,,,,,,,,,,,,,
,,001,2022-04-28_20h15.26.308,classification_task,2021.2.3,MacIntel,59.93407252,613a9833c9a297f3ac00743f,626b377229c10585ec392f8a,626b3b477fd5610a2c41f186,,,,,,,,,,,,,,,,,,,,,,,l,1,"[""0.038"",""0.580"",""0.534"",""0.807""]","[1,0,1,1]",0,41,41,41,1,1,1,,,0,FALSE,1.6021,,,,,,,,,,,,,,,,,,,,,,,,,,,,,,
,,001,2022-04-28_20h15.26.308,classification_task,2021.2.3,MacIntel,59.93407252,613a9833c9a297f3ac00743f,626b377229c10585ec392f8a,626b3b477fd5610a2c41f186,,,,,,,,,,,,,,,,,,,,,,,a,1,"[""0.315"",""0.636"",""0.723"",""0.914""]","[1,0,1,1]",0,42,42,42,1,0,1,,,0,FALSE,1.6115,,,,,,,,,,,,,,,,,,,,,,,,,,,,,,
,,001,2022-04-28_20h15.26.308,classification_task,2021.2.3,MacIntel,59.93407252,613a9833c9a297f3ac00743f,626b377229c10585ec392f8a,626b3b477fd5610a2c41f186,,,,,,,,,,,,,,,,,,,,,,,a,1,"[""0.208"",""0.661"",""0.875"",""0.960""]","[1,0,1,1]",0,43,43,43,1,0,0,,,0,FALSE,0.8405,,,,,,,,,,,,,,,,,,,,,,,,,,,,,,
,,001,2022-04-28_20h15.26.308,classification_task,2021.2.3,MacIntel,59.93407252,613a9833c9a297f3ac00743f,626b377229c10585ec392f8a,626b3b477fd5610a2c41f186,,,,,,,,,,,,,,,,,,,,,,,a,1,"[""0.661"",""0.353"",""0.875"",""0.960""]","[0,1,1,1]",0,44,44,44,1,0,0,,,0,FALSE,0.6844,,,,,,,,,,,,,,,,,,,,,,,,,,,,,,
,,001,2022-04-28_20h15.26.308,classification_task,2021.2.3,MacIntel,59.93407252,613a9833c9a297f3ac00743f,626b377229c10585ec392f8a,626b3b477fd5610a2c41f186,,,,,,,,,,,,,,,,,,,,,,,a,1,"[""0.208"",""0.353"",""0.682"",""0.960""]","[1,1,0,1]",0,45,45,45,1,0,0,,,0,FALSE,0.643,,,,,,,,,,,,,,,,,,,,,,,,,,,,,,
,,001,2022-04-28_20h15.26.308,classification_task,2021.2.3,MacIntel,59.93407252,613a9833c9a297f3ac00743f,626b377229c10585ec392f8a,626b3b477fd5610a2c41f186,,,,,,,,,,,,,,,,,,,,,,,l,1,"[""0.038"",""0.076"",""0.661"",""0.807""]","[1,1,0,1]",0,46,46,46,1,1,1,,,0,FALSE,1.5344,,,,,,,,,,,,,,,,,,,,,,,,,,,,,,
,,001,2022-04-28_20h15.26.308,classification_task,2021.2.3,MacIntel,59.93407252,613a9833c9a297f3ac00743f,626b377229c10585ec392f8a,626b3b477fd5610a2c41f186,,,,,,,,,,,,,,,,,,,,,,,l,1,"[""0.145"",""0.429"",""0.490"",""0.659""]","[1,1,1,0]",0,47,47,47,1,1,0,,,0,FALSE,0.6929,,,,,,,,,,,,,,,,,,,,,,,,,,,,,,
,,001,2022-04-28_20h15.26.308,classification_task,2021.2.3,MacIntel,59.93407252,613a9833c9a297f3ac00743f,626b377229c10585ec392f8a,626b3b477fd5610a2c41f186,,,,,,,,,,,,,,,,,,,,,,,a,1,"[""0.315"",""0.660"",""0.723"",""0.914""]","[1,0,1,1]",0,48,48,48,1,0,1,,,0,FALSE,1.9173,,,,,,,,,,,,,,,,,,,,,,,,,,,,,,
,,001,2022-04-28_20h15.26.308,classification_task,2021.2.3,MacIntel,59.93407252,613a9833c9a297f3ac00743f,626b377229c10585ec392f8a,626b3b477fd5610a2c41f186,,,,,,,,,,,,,,,,,,,,,,,a,1,"[""0.660"",""0.353"",""0.875"",""0.960""]","[0,1,1,1]",0,49,49,49,1,0,0,,,0,FALSE,0.7908,,,,,,,,,,,,,,,,,,,,,,,,,,,,,,
,,001,2022-04-28_20h15.26.308,classification_task,2021.2.3,MacIntel,59.93407252,613a9833c9a297f3ac00743f,626b377229c10585ec392f8a,626b3b477fd5610a2c41f186,,,,,,,,,,,,,,,,,,,,,,,a,1,"[""0.315"",""0.386"",""0.723"",""0.636""]","[1,1,1,0]",0,50,50,50,1,0,1,,,0,FALSE,1.9425,,,,,,,,,,,,,,,,,,,,,,,,,,,,,,
,,001,2022-04-28_20h15.26.308,classification_task,2021.2.3,MacIntel,59.93407252,613a9833c9a297f3ac00743f,626b377229c10585ec392f8a,626b3b477fd5610a2c41f186,,,,,,,,,,,,,,,,,,,,,,,a,1,"[""0.208"",""0.353"",""0.875"",""0.595""]","[1,1,1,0]",0,51,51,51,1,0,0,,,0,FALSE,0.7236,,,,,,,,,,,,,,,,,,,,,,,,,,,,,,
,,001,2022-04-28_20h15.26.308,classification_task,2021.2.3,MacIntel,59.93407252,613a9833c9a297f3ac00743f,626b377229c10585ec392f8a,626b3b477fd5610a2c41f186,,,,,,,,,,,,,,,,,,,,,,,a,1,"[""0.208"",""0.353"",""0.661"",""0.960""]","[1,1,0,1]",0,52,52,52,1,0,0,,,0,FALSE,0.6769,,,,,,,,,,,,,,,,,,,,,,,,,,,,,,
,,001,2022-04-28_20h15.26.308,classification_task,2021.2.3,MacIntel,59.93407252,613a9833c9a297f3ac00743f,626b377229c10585ec392f8a,626b3b477fd5610a2c41f186,,,,,,,,,,,,,,,,,,,,,,,a,1,"[""0.315"",""0.386"",""0.659"",""0.914""]","[1,1,0,1]",0,53,53,53,1,0,1,,,0,FALSE,0.9486,,,,,,,,,,,,,,,,,,,,,,,,,,,,,,
,,001,2022-04-28_20h15.26.308,classification_task,2021.2.3,MacIntel,59.93407252,613a9833c9a297f3ac00743f,626b377229c10585ec392f8a,626b3b477fd5610a2c41f186,,,,,,,,,,,,,,,,,,,,,,,l,1,"[""0.145"",""0.659"",""0.490"",""0.771""]","[1,0,1,1]",0,54,54,54,1,1,0,,,0,FALSE,0.7158,,,,,,,,,,,,,,,,,,,,,,,,,,,,,,
,,001,2022-04-28_20h15.26.308,classification_task,2021.2.3,MacIntel,59.93407252,613a9833c9a297f3ac00743f,626b377229c10585ec392f8a,626b3b477fd5610a2c41f186,,,,,,,,,,,,,,,,,,,,,,,a,0,"[""0.659"",""0.076"",""0.534"",""0.807""]","[0,1,1,1]",0,55,55,55,1,1,1,,,0,FALSE,2.1171,,,,,,,,,,,,,,,,,,,,,,,,,,,,,,
,,001,2022-04-28_20h15.26.308,classification_task,2021.2.3,MacIntel,59.93407252,613a9833c9a297f3ac00743f,626b377229c10585ec392f8a,626b3b477fd5610a2c41f186,,,,,,,,,,,,,,,,,,,,,,,a,0,"[""0.038"",""0.672"",""0.534"",""0.807""]","[1,0,1,1]",0,56,56,56,1,1,1,,,0,FALSE,1.6184,,,,,,,,,,,,,,,,,,,,,,,,,,,,,,
,,001,2022-04-28_20h15.26.308,classification_task,2021.2.3,MacIntel,59.93407252,613a9833c9a297f3ac00743f,626b377229c10585ec392f8a,626b3b477fd5610a2c41f186,,,,,,,,,,,,,,,,,,,,,,,a,1,"[""0.672"",""0.386"",""0.723"",""0.914""]","[0,1,1,1]",0,57,57,57,1,0,1,,,0,FALSE,0.8263,,,,,,,,,,,,,,,,,,,,,,,,,,,,,,
,,001,2022-04-28_20h15.26.308,classification_task,2021.2.3,MacIntel,59.93407252,613a9833c9a297f3ac00743f,626b377229c10585ec392f8a,626b3b477fd5610a2c41f186,,,,,,,,,,,,,,,,,,,,,,,l,1,"[""0.581"",""0.429"",""0.490"",""0.771""]","[0,1,1,1]",0,58,58,58,1,1,0,,,0,FALSE,0.7227,,,,,,,,,,,,,,,,,,,,,,,,,,,,,,
,,001,2022-04-28_20h15.26.308,classification_task,2021.2.3,MacIntel,59.93407252,613a9833c9a297f3ac00743f,626b377229c10585ec392f8a,626b3b477fd5610a2c41f186,,,,,,,,,,,,,,,,,,,,,,,l,1,"[""0.038"",""0.076"",""0.534"",""0.661""]","[1,1,1,0]",0,59,59,59,1,1,1,,,0,FALSE,1.2491,,,,,,,,,,,,,,,,,,,,,,,,,,,,,,
,,001,2022-04-28_20h15.26.308,classification_task,2021.2.3,MacIntel,59.93407252,613a9833c9a297f3ac00743f,626b377229c10585ec392f8a,626b3b477fd5610a2c41f186,,,,,,,,,,,,,,,,,,,,,,,l,1,"[""0.038"",""0.076"",""0.661"",""0.807""]","[1,1,0,1]",0,60,60,60,1,1,1,,,0,FALSE,0.852,,,,,,,,,,,,,,,,,,,,,,,,,,,,,,
,,001,2022-04-28_20h15.26.308,classification_task,2021.2.3,MacIntel,59.93407252,613a9833c9a297f3ac00743f,626b377229c10585ec392f8a,626b3b477fd5610a2c41f186,,,,,,,,,,,,,,,,,,,,,,,a,1,"[""0.208"",""0.682"",""0.875"",""0.960""]","[1,0,1,1]",0,61,61,61,1,0,0,,,0,FALSE,0.8344,,,,,,,,,,,,,,,,,,,,,,,,,,,,,,
,,001,2022-04-28_20h15.26.308,classification_task,2021.2.3,MacIntel,59.93407252,613a9833c9a297f3ac00743f,626b377229c10585ec392f8a,626b3b477fd5610a2c41f186,,,,,,,,,,,,,,,,,,,,,,,l,1,"[""0.145"",""0.429"",""0.584"",""0.771""]","[1,1,0,1]",0,62,62,62,1,1,0,,,0,FALSE,1.1218,,,,,,,,,,,,,,,,,,,,,,,,,,,,,,
,,001,2022-04-28_20h15.26.308,classification_task,2021.2.3,MacIntel,59.93407252,613a9833c9a297f3ac00743f,626b377229c10585ec392f8a,626b3b477fd5610a2c41f186,,,,,,,,,,,,,,,,,,,,,,,l,1,"[""0.145"",""0.429"",""0.490"",""0.672""]","[1,1,1,0]",0,63,63,63,1,1,0,,,0,FALSE,1.1515,,,,,,,,,,,,,,,,,,,,,,,,,,,,,,
,,001,2022-04-28_20h15.26.308,classification_task,2021.2.3,MacIntel,59.93407252,613a9833c9a297f3ac00743f,626b377229c10585ec392f8a,626b3b477fd5610a2c41f186,,,,,,,,,,,,,,,,,,,,,,,,,,,,,,,,,,,,,,,0, ,,0,6.452596053,277.8439,0,1,1,1,1,2,2,,,,,,,,,,,,,,,,,
,,001,2022-04-28_20h15.26.308,classification_task,2021.2.3,MacIntel,59.93407252,613a9833c9a297f3ac00743f,626b377229c10585ec392f8a,626b3b477fd5610a2c41f186,,,,,,,,,,,,,,,,,,,,,,,,,,,,,,,,,,,,,,,1,  ,,0,7.791422478,281.5384,0,1,1,1,1,2,2,,,,,,,,,,,,,,,,,
,,001,2022-04-28_20h15.26.308,classification_task,2021.2.3,MacIntel,59.93407252,613a9833c9a297f3ac00743f,626b377229c10585ec392f8a,626b3b477fd5610a2c41f186,,,,,,,,,,,,,,,,,,,,,,,,,,,,,,,,,,,,,,,2,  ,,0,5.072912074,285.5195,0,1,1,1,1,2,2,,,,,,,,,,,,,,,,,
,,001,2022-04-28_20h15.26.308,classification_task,2021.2.3,MacIntel,59.93407252,613a9833c9a297f3ac00743f,626b377229c10585ec392f8a,626b3b477fd5610a2c41f186,,,,,,,,,,,,,,,,,,,,,,,,,,,,,,,,,,,,,,,,,,,,,0,1,1,1,1,,2,,,,,,,,,,,,,,,,,
,,001,2022-04-28_20h15.26.308,classification_task,2021.2.3,MacIntel,59.93407252,613a9833c9a297f3ac00743f,626b377229c10585ec392f8a,626b3b477fd5610a2c41f186,,,,,,,,,,,,,,,,,,,,,space,46.1668,a,0,"[""0.145"",""0.429"",""0.584"",""0.771""]","[1,1,0,1]",0,0,0,0,1,1,0,,,0,FALSE,1.6371,,,,,,,,,,,,,,,,,,,,,,,,,,,,,,
,,001,2022-04-28_20h15.26.308,classification_task,2021.2.3,MacIntel,59.93407252,613a9833c9a297f3ac00743f,626b377229c10585ec392f8a,626b3b477fd5610a2c41f186,,,,,,,,,,,,,,,,,,,,,,,a,0,"[""0.145"",""0.661"",""0.490"",""0.771""]","[1,0,1,1]",0,1,1,1,1,1,0,,,0,FALSE,2.9704,,,,,,,,,,,,,,,,,,,,,,,,,,,,,,
,,001,2022-04-28_20h15.26.308,classification_task,2021.2.3,MacIntel,59.93407252,613a9833c9a297f3ac00743f,626b377229c10585ec392f8a,626b3b477fd5610a2c41f186,,,,,,,,,,,,,,,,,,,,,,,l,1,"[""0.145"",""0.429"",""0.490"",""0.615""]","[1,1,1,0]",0,2,2,2,1,1,0,,,0,FALSE,2.5038,,,,,,,,,,,,,,,,,,,,,,,,,,,,,,
,,001,2022-04-28_20h15.26.308,classification_task,2021.2.3,MacIntel,59.93407252,613a9833c9a297f3ac00743f,626b377229c10585ec392f8a,626b3b477fd5610a2c41f186,,,,,,,,,,,,,,,,,,,,,,,l,1,"[""0.038"",""0.076"",""0.534"",""0.615""]","[1,1,1,0]",0,3,3,3,1,1,1,,,0,FALSE,1.2799,,,,,,,,,,,,,,,,,,,,,,,,,,,,,,
,,001,2022-04-28_20h15.26.308,classification_task,2021.2.3,MacIntel,59.93407252,613a9833c9a297f3ac00743f,626b377229c10585ec392f8a,626b3b477fd5610a2c41f186,,,,,,,,,,,,,,,,,,,,,,,a,0,"[""0.038"",""0.659"",""0.534"",""0.807""]","[1,0,1,1]",0,4,4,4,1,1,1,,,0,FALSE,1.0754,,,,,,,,,,,,,,,,,,,,,,,,,,,,,,
,,001,2022-04-28_20h15.26.308,classification_task,2021.2.3,MacIntel,59.93407252,613a9833c9a297f3ac00743f,626b377229c10585ec392f8a,626b3b477fd5610a2c41f186,,,,,,,,,,,,,,,,,,,,,,,l,1,"[""0.038"",""0.076"",""0.595"",""0.807""]","[1,1,0,1]",0,5,5,5,1,1,1,,,0,FALSE,1.6899,,,,,,,,,,,,,,,,,,,,,,,,,,,,,,
,,001,2022-04-28_20h15.26.308,classification_task,2021.2.3,MacIntel,59.93407252,613a9833c9a297f3ac00743f,626b377229c10585ec392f8a,626b3b477fd5610a2c41f186,,,,,,,,,,,,,,,,,,,,,,,l,0,"[""0.208"",""0.609"",""0.875"",""0.960""]","[1,0,1,1]",0,6,6,6,1,0,0,,,0,FALSE,2.2626,,,,,,,,,,,,,,,,,,,,,,,,,,,,,,
,,001,2022-04-28_20h15.26.308,classification_task,2021.2.3,MacIntel,59.93407252,613a9833c9a297f3ac00743f,626b377229c10585ec392f8a,626b3b477fd5610a2c41f186,,,,,,,,,,,,,,,,,,,,,,,l,1,"[""0.661"",""0.429"",""0.490"",""0.771""]","[0,1,1,1]",0,7,7,7,1,1,0,,,0,FALSE,1.1546,,,,,,,,,,,,,,,,,,,,,,,,,,,,,,
,,001,2022-04-28_20h15.26.308,classification_task,2021.2.3,MacIntel,59.93407252,613a9833c9a297f3ac00743f,626b377229c10585ec392f8a,626b3b477fd5610a2c41f186,,,,,,,,,,,,,,,,,,,,,,,a,1,"[""0.315"",""0.386"",""0.595"",""0.914""]","[1,1,0,1]",0,8,8,8,1,0,1,,,0,FALSE,1.6187,,,,,,,,,,,,,,,,,,,,,,,,,,,,,,
,,001,2022-04-28_20h15.26.308,classification_task,2021.2.3,MacIntel,59.93407252,613a9833c9a297f3ac00743f,626b377229c10585ec392f8a,626b3b477fd5610a2c41f186,,,,,,,,,,,,,,,,,,,,,,,l,1,"[""0.580"",""0.076"",""0.534"",""0.807""]","[0,1,1,1]",0,9,9,9,1,1,1,,,0,FALSE,1.5021,,,,,,,,,,,,,,,,,,,,,,,,,,,,,,
,,001,2022-04-28_20h15.26.308,classification_task,2021.2.3,MacIntel,59.93407252,613a9833c9a297f3ac00743f,626b377229c10585ec392f8a,626b3b477fd5610a2c41f186,,,,,,,,,,,,,,,,,,,,,,,a,1,"[""0.580"",""0.353"",""0.875"",""0.960""]","[0,1,1,1]",0,10,10,10,1,0,0,,,0,FALSE,3.4564,,,,,,,,,,,,,,,,,,,,,,,,,,,,,,
,,001,2022-04-28_20h15.26.308,classification_task,2021.2.3,MacIntel,59.93407252,613a9833c9a297f3ac00743f,626b377229c10585ec392f8a,626b3b477fd5610a2c41f186,,,,,,,,,,,,,,,,,,,,,,,a,1,"[""0.208"",""0.353"",""0.875"",""0.584""]","[1,1,1,0]",0,11,11,11,1,0,0,,,0,FALSE,1.1169,,,,,,,,,,,,,,,,,,,,,,,,,,,,,,
,,001,2022-04-28_20h15.26.308,classification_task,2021.2.3,MacIntel,59.93407252,613a9833c9a297f3ac00743f,626b377229c10585ec392f8a,626b3b477fd5610a2c41f186,,,,,,,,,,,,,,,,,,,,,,,a,1,"[""0.315"",""0.581"",""0.723"",""0.914""]","[1,0,1,1]",0,12,12,12,1,0,1,,,0,FALSE,2.992,,,,,,,,,,,,,,,,,,,,,,,,,,,,,,
,,001,2022-04-28_20h15.26.308,classification_task,2021.2.3,MacIntel,59.93407252,613a9833c9a297f3ac00743f,626b377229c10585ec392f8a,626b3b477fd5610a2c41f186,,,,,,,,,,,,,,,,,,,,,,,a,1,"[""0.676"",""0.386"",""0.723"",""0.914""]","[0,1,1,1]",0,13,13,13,1,0,1,,,0,FALSE,2.9454,,,,,,,,,,,,,,,,,,,,,,,,,,,,,,
,,001,2022-04-28_20h15.26.308,classification_task,2021.2.3,MacIntel,59.93407252,613a9833c9a297f3ac00743f,626b377229c10585ec392f8a,626b3b477fd5610a2c41f186,,,,,,,,,,,,,,,,,,,,,,,a,1,"[""0.208"",""0.353"",""0.277"",""0.960""]","[1,1,0,1]",0,14,14,14,1,0,0,,,0,FALSE,1.636,,,,,,,,,,,,,,,,,,,,,,,,,,,,,,
,,001,2022-04-28_20h15.26.308,classification_task,2021.2.3,MacIntel,59.93407252,613a9833c9a297f3ac00743f,626b377229c10585ec392f8a,626b3b477fd5610a2c41f186,,,,,,,,,,,,,,,,,,,,,,,l,0,"[""0.315"",""0.386"",""0.723"",""0.595""]","[1,1,1,0]",0,15,15,15,1,0,1,,,0,FALSE,2.5562,,,,,,,,,,,,,,,,,,,,,,,,,,,,,,
,,001,2022-04-28_20h15.26.308,classification_task,2021.2.3,MacIntel,59.93407252,613a9833c9a297f3ac00743f,626b377229c10585ec392f8a,626b3b477fd5610a2c41f186,,,,,,,,,,,,,,,,,,,,,,,a,0,"[""0.145"",""0.429"",""0.661"",""0.771""]","[1,1,0,1]",0,16,16,16,1,1,0,,,0,FALSE,1.8613,,,,,,,,,,,,,,,,,,,,,,,,,,,,,,
,,001,2022-04-28_20h15.26.308,classification_task,2021.2.3,MacIntel,59.93407252,613a9833c9a297f3ac00743f,626b377229c10585ec392f8a,626b3b477fd5610a2c41f186,,,,,,,,,,,,,,,,,,,,,,,l,1,"[""0.682"",""0.076"",""0.534"",""0.807""]","[0,1,1,1]",0,17,17,17,1,1,1,,,0,FALSE,2.1529,,,,,,,,,,,,,,,,,,,,,,,,,,,,,,
,,001,2022-04-28_20h15.26.308,classification_task,2021.2.3,MacIntel,59.93407252,613a9833c9a297f3ac00743f,626b377229c10585ec392f8a,626b3b477fd5610a2c41f186,,,,,,,,,,,,,,,,,,,,,,,l,1,"[""0.038"",""0.076"",""0.534"",""0.615""]","[1,1,1,0]",0,18,18,18,1,1,1,,,0,FALSE,0.778,,,,,,,,,,,,,,,,,,,,,,,,,,,,,,
,,001,2022-04-28_20h15.26.308,classification_task,2021.2.3,MacIntel,59.93407252,613a9833c9a297f3ac00743f,626b377229c10585ec392f8a,626b3b477fd5610a2c41f186,,,,,,,,,,,,,,,,,,,,,,,l,1,"[""0.038"",""0.076"",""0.595"",""0.807""]","[1,1,0,1]",0,19,19,19,1,1,1,,,0,FALSE,0.8027,,,,,,,,,,,,,,,,,,,,,,,,,,,,,,
,,001,2022-04-28_20h15.26.308,classification_task,2021.2.3,MacIntel,59.93407252,613a9833c9a297f3ac00743f,626b377229c10585ec392f8a,626b3b477fd5610a2c41f186,,,,,,,,,,,,,,,,,,,,,,,l,1,"[""0.659"",""0.429"",""0.490"",""0.771""]","[0,1,1,1]",0,20,20,20,1,1,0,,,0,FALSE,1.4519,,,,,,,,,,,,,,,,,,,,,,,,,,,,,,
,,001,2022-04-28_20h15.26.308,classification_task,2021.2.3,MacIntel,59.93407252,613a9833c9a297f3ac00743f,626b377229c10585ec392f8a,626b3b477fd5610a2c41f186,,,,,,,,,,,,,,,,,,,,,,,l,0,"[""0.315"",""0.277"",""0.723"",""0.914""]","[1,0,1,1]",0,21,21,21,1,0,1,,,0,FALSE,2.2863,,,,,,,,,,,,,,,,,,,,,,,,,,,,,,
,,001,2022-04-28_20h15.26.308,classification_task,2021.2.3,MacIntel,59.93407252,613a9833c9a297f3ac00743f,626b377229c10585ec392f8a,626b3b477fd5610a2c41f186,,,,,,,,,,,,,,,,,,,,,,,a,1,"[""0.315"",""0.386"",""0.723"",""0.595""]","[1,1,1,0]",0,22,22,22,1,0,1,,,0,FALSE,2.5307,,,,,,,,,,,,,,,,,,,,,,,,,,,,,,
,,001,2022-04-28_20h15.26.308,classification_task,2021.2.3,MacIntel,59.93407252,613a9833c9a297f3ac00743f,626b377229c10585ec392f8a,626b3b477fd5610a2c41f186,,,,,,,,,,,,,,,,,,,,,,,a,0,"[""0.145"",""0.581"",""0.490"",""0.771""]","[1,0,1,1]",0,23,23,23,1,1,0,,,0,FALSE,2.0122,,,,,,,,,,,,,,,,,,,,,,,,,,,,,,
,,001,2022-04-28_20h15.26.308,classification_task,2021.2.3,MacIntel,59.93407252,613a9833c9a297f3ac00743f,626b377229c10585ec392f8a,626b3b477fd5610a2c41f186,,,,,,,,,,,,,,,,,,,,,,,a,0,"[""0.145"",""0.429"",""0.490"",""0.660""]","[1,1,1,0]",0,24,24,24,1,1,0,,,0,FALSE,2.8302,,,,,,,,,,,,,,,,,,,,,,,,,,,,,,
,,001,2022-04-28_20h15.26.308,classification_task,2021.2.3,MacIntel,59.93407252,613a9833c9a297f3ac00743f,626b377229c10585ec392f8a,626b3b477fd5610a2c41f186,,,,,,,,,,,,,,,,,,,,,,,l,0,"[""0.277"",""0.353"",""0.875"",""0.960""]","[0,1,1,1]",0,25,25,25,1,0,0,,,0,FALSE,1.4184,,,,,,,,,,,,,,,,,,,,,,,,,,,,,,
,,001,2022-04-28_20h15.26.308,classification_task,2021.2.3,MacIntel,59.93407252,613a9833c9a297f3ac00743f,626b377229c10585ec392f8a,626b3b477fd5610a2c41f186,,,,,,,,,,,,,,,,,,,,,,,l,0,"[""0.584"",""0.386"",""0.723"",""0.914""]","[0,1,1,1]",0,26,26,26,1,0,1,,,0,FALSE,3.4802,,,,,,,,,,,,,,,,,,,,,,,,,,,,,,
,,001,2022-04-28_20h15.26.308,classification_task,2021.2.3,MacIntel,59.93407252,613a9833c9a297f3ac00743f,626b377229c10585ec392f8a,626b3b477fd5610a2c41f186,,,,,,,,,,,,,,,,,,,,,,,l,1,"[""0.038"",""0.580"",""0.534"",""0.807""]","[1,0,1,1]",0,27,27,27,1,1,1,,,0,FALSE,1.4796,,,,,,,,,,,,,,,,,,,,,,,,,,,,,,
,,001,2022-04-28_20h15.26.308,classification_task,2021.2.3,MacIntel,59.93407252,613a9833c9a297f3ac00743f,626b377229c10585ec392f8a,626b3b477fd5610a2c41f186,,,,,,,,,,,,,,,,,,,,,,,l,0,"[""0.208"",""0.676"",""0.875"",""0.960""]","[1,0,1,1]",0,28,28,28,1,0,0,,,0,FALSE,4.0606,,,,,,,,,,,,,,,,,,,,,,,,,,,,,,
,,001,2022-04-28_20h15.26.308,classification_task,2021.2.3,MacIntel,59.93407252,613a9833c9a297f3ac00743f,626b377229c10585ec392f8a,626b3b477fd5610a2c41f186,,,,,,,,,,,,,,,,,,,,,,,l,0,"[""0.208"",""0.353"",""0.875"",""0.661""]","[1,1,1,0]",0,29,29,29,1,0,0,,,0,FALSE,3.5141,,,,,,,,,,,,,,,,,,,,,,,,,,,,,,
,,001,2022-04-28_20h15.26.308,classification_task,2021.2.3,MacIntel,59.93407252,613a9833c9a297f3ac00743f,626b377229c10585ec392f8a,626b3b477fd5610a2c41f186,,,,,,,,,,,,,,,,,,,,,,,a,1,"[""0.315"",""0.386"",""0.581"",""0.914""]","[1,1,0,1]",0,30,30,30,1,0,1,,,0,FALSE,4.2401,,,,,,,,,,,,,,,,,,,,,,,,,,,,,,
,,001,2022-04-28_20h15.26.308,classification_task,2021.2.3,MacIntel,59.93407252,613a9833c9a297f3ac00743f,626b377229c10585ec392f8a,626b3b477fd5610a2c41f186,,,,,,,,,,,,,,,,,,,,,,,l,0,"[""0.208"",""0.353"",""0.595"",""0.960""]","[1,1,0,1]",0,31,31,31,1,0,0,,,0,FALSE,4.0142,,,,,,,,,,,,,,,,,,,,,,,,,,,,,,
,,001,2022-04-28_20h15.26.308,classification_task,2021.2.3,MacIntel,59.93407252,613a9833c9a297f3ac00743f,626b377229c10585ec392f8a,626b3b477fd5610a2c41f186,,,,,,,,,,,,,,,,,,,,,,,a,0,"[""0.145"",""0.429"",""0.490"",""0.584""]","[1,1,1,0]",0,32,32,32,1,1,0,,,0,FALSE,1.6106,,,,,,,,,,,,,,,,,,,,,,,,,,,,,,
,,001,2022-04-28_20h15.26.308,classification_task,2021.2.3,MacIntel,59.93407252,613a9833c9a297f3ac00743f,626b377229c10585ec392f8a,626b3b477fd5610a2c41f186,,,,,,,,,,,,,,,,,,,,,,,a,1,"[""0.315"",""0.386"",""0.723"",""0.676""]","[1,1,1,0]",0,33,33,33,1,0,1,,,0,FALSE,4.1967,,,,,,,,,,,,,,,,,,,,,,,,,,,,,,
,,001,2022-04-28_20h15.26.308,classification_task,2021.2.3,MacIntel,59.93407252,613a9833c9a297f3ac00743f,626b377229c10585ec392f8a,626b3b477fd5610a2c41f186,,,,,,,,,,,,,,,,,,,,,,,l,1,"[""0.145"",""0.429"",""0.659"",""0.771""]","[1,1,0,1]",0,34,34,34,1,1,0,,,0,FALSE,3.5698,,,,,,,,,,,,,,,,,,,,,,,,,,,,,,
,,001,2022-04-28_20h15.26.308,classification_task,2021.2.3,MacIntel,59.93407252,613a9833c9a297f3ac00743f,626b377229c10585ec392f8a,626b3b477fd5610a2c41f186,,,,,,,,,,,,,,,,,,,,,,,l,1,"[""0.145"",""0.277"",""0.490"",""0.771""]","[1,0,1,1]",0,35,35,35,1,1,0,,,0,FALSE,5.7825,,,,,,,,,,,,,,,,,,,,,,,,,,,,,,
,,001,2022-04-28_20h15.26.308,classification_task,2021.2.3,MacIntel,59.93407252,613a9833c9a297f3ac00743f,626b377229c10585ec392f8a,626b3b477fd5610a2c41f186,,,,,,,,,,,,,,,,,,,,,,,a,1,"[""0.661"",""0.386"",""0.723"",""0.914""]","[0,1,1,1]",0,36,36,36,1,0,1,,,0,FALSE,2.3451,,,,,,,,,,,,,,,,,,,,,,,,,,,,,,
,,001,2022-04-28_20h15.26.308,classification_task,2021.2.3,MacIntel,59.93407252,613a9833c9a297f3ac00743f,626b377229c10585ec392f8a,626b3b477fd5610a2c41f186,,,,,,,,,,,,,,,,,,,,,,,a,1,"[""0.208"",""0.353"",""0.875"",""0.277""]","[1,1,1,0]",0,37,37,37,1,0,0,,,0,FALSE,1.9136,,,,,,,,,,,,,,,,,,,,,,,,,,,,,,
,,001,2022-04-28_20h15.26.308,classification_task,2021.2.3,MacIntel,59.93407252,613a9833c9a297f3ac00743f,626b377229c10585ec392f8a,626b3b477fd5610a2c41f186,,,,,,,,,,,,,,,,,,,,,,,a,1,"[""0.315"",""0.661"",""0.723"",""0.914""]","[1,0,1,1]",0,38,38,38,1,0,1,,,0,FALSE,2.6723,,,,,,,,,,,,,,,,,,,,,,,,,,,,,,
,,001,2022-04-28_20h15.26.308,classification_task,2021.2.3,MacIntel,59.93407252,613a9833c9a297f3ac00743f,626b377229c10585ec392f8a,626b3b477fd5610a2c41f186,,,,,,,,,,,,,,,,,,,,,,,l,0,"[""0.277"",""0.353"",""0.875"",""0.960""]","[0,1,1,1]",0,39,39,39,1,0,0,,,0,FALSE,2.7689,,,,,,,,,,,,,,,,,,,,,,,,,,,,,,
,,001,2022-04-28_20h15.26.308,classification_task,2021.2.3,MacIntel,59.93407252,613a9833c9a297f3ac00743f,626b377229c10585ec392f8a,626b3b477fd5610a2c41f186,,,,,,,,,,,,,,,,,,,,,,,l,1,"[""0.682"",""0.076"",""0.534"",""0.807""]","[0,1,1,1]",0,40,40,40,1,1,1,,,0,FALSE,1.1214,,,,,,,,,,,,,,,,,,,,,,,,,,,,,,
,,001,2022-04-28_20h15.26.308,classification_task,2021.2.3,MacIntel,59.93407252,613a9833c9a297f3ac00743f,626b377229c10585ec392f8a,626b3b477fd5610a2c41f186,,,,,,,,,,,,,,,,,,,,,,,l,1,"[""0.038"",""0.076"",""0.595"",""0.807""]","[1,1,0,1]",0,41,41,41,1,1,1,,,0,FALSE,2.512,,,,,,,,,,,,,,,,,,,,,,,,,,,,,,
,,001,2022-04-28_20h15.26.308,classification_task,2021.2.3,MacIntel,59.93407252,613a9833c9a297f3ac00743f,626b377229c10585ec392f8a,626b3b477fd5610a2c41f186,,,,,,,,,,,,,,,,,,,,,,,l,1,"[""0.038"",""0.661"",""0.534"",""0.807""]","[1,0,1,1]",0,42,42,42,1,1,1,,,0,FALSE,1.1128,,,,,,,,,,,,,,,,,,,,,,,,,,,,,,
,,001,2022-04-28_20h15.26.308,classification_task,2021.2.3,MacIntel,59.93407252,613a9833c9a297f3ac00743f,626b377229c10585ec392f8a,626b3b477fd5610a2c41f186,,,,,,,,,,,,,,,,,,,,,,,a,1,"[""0.208"",""0.645"",""0.875"",""0.960""]","[1,0,1,1]",0,43,43,43,1,0,0,,,0,FALSE,2.0203,,,,,,,,,,,,,,,,,,,,,,,,,,,,,,
,,001,2022-04-28_20h15.26.308,classification_task,2021.2.3,MacIntel,59.93407252,613a9833c9a297f3ac00743f,626b377229c10585ec392f8a,626b3b477fd5610a2c41f186,,,,,,,,,,,,,,,,,,,,,,,a,1,"[""0.208"",""0.353"",""0.682"",""0.960""]","[1,1,0,1]",0,44,44,44,1,0,0,,,0,FALSE,1.5521,,,,,,,,,,,,,,,,,,,,,,,,,,,,,,
,,001,2022-04-28_20h15.26.308,classification_task,2021.2.3,MacIntel,59.93407252,613a9833c9a297f3ac00743f,626b377229c10585ec392f8a,626b3b477fd5610a2c41f186,,,,,,,,,,,,,,,,,,,,,,,l,0,"[""0.315"",""0.386"",""0.659"",""0.914""]","[1,1,0,1]",0,45,45,45,1,0,1,,,0,FALSE,5.1819,,,,,,,,,,,,,,,,,,,,,,,,,,,,,,
,,001,2022-04-28_20h15.26.308,classification_task,2021.2.3,MacIntel,59.93407252,613a9833c9a297f3ac00743f,626b377229c10585ec392f8a,626b3b477fd5610a2c41f186,,,,,,,,,,,,,,,,,,,,,,,l,1,"[""0.581"",""0.429"",""0.490"",""0.771""]","[0,1,1,1]",0,46,46,46,1,1,0,,,0,FALSE,3.016,,,,,,,,,,,,,,,,,,,,,,,,,,,,,,
,,001,2022-04-28_20h15.26.308,classification_task,2021.2.3,MacIntel,59.93407252,613a9833c9a297f3ac00743f,626b377229c10585ec392f8a,626b3b477fd5610a2c41f186,,,,,,,,,,,,,,,,,,,,,,,l,1,"[""0.038"",""0.076"",""0.534"",""0.661""]","[1,1,1,0]",0,47,47,47,1,1,1,,,0,FALSE,1.0272,,,,,,,,,,,,,,,,,,,,,,,,,,,,,,
,,001,2022-04-28_20h15.26.308,classification_task,2021.2.3,MacIntel,59.93407252,613a9833c9a297f3ac00743f,626b377229c10585ec392f8a,626b3b477fd5610a2c41f186,,,,,,,,,,,,,,,,,,,,,,,l,0,"[""0.315"",""0.386"",""0.723"",""0.645""]","[1,1,1,0]",0,48,48,48,1,0,1,,,0,FALSE,3.9987,,,,,,,,,,,,,,,,,,,,,,,,,,,,,,
,,001,2022-04-28_20h15.26.308,classification_task,2021.2.3,MacIntel,59.93407252,613a9833c9a297f3ac00743f,626b377229c10585ec392f8a,626b3b477fd5610a2c41f186,,,,,,,,,,,,,,,,,,,,,,,l,1,"[""0.145"",""0.636"",""0.490"",""0.771""]","[1,0,1,1]",0,49,49,49,1,1,0,,,0,FALSE,1.8525,,,,,,,,,,,,,,,,,,,,,,,,,,,,,,
,,001,2022-04-28_20h15.26.308,classification_task,2021.2.3,MacIntel,59.93407252,613a9833c9a297f3ac00743f,626b377229c10585ec392f8a,626b3b477fd5610a2c41f186,,,,,,,,,,,,,,,,,,,,,,,l,0,"[""0.315"",""0.660"",""0.723"",""0.914""]","[1,0,1,1]",0,50,50,50,1,0,1,,,0,FALSE,2.0225,,,,,,,,,,,,,,,,,,,,,,,,,,,,,,
,,001,2022-04-28_20h15.26.308,classification_task,2021.2.3,MacIntel,59.93407252,613a9833c9a297f3ac00743f,626b377229c10585ec392f8a,626b3b477fd5610a2c41f186,,,,,,,,,,,,,,,,,,,,,,,a,1,"[""0.315"",""0.386"",""0.584"",""0.914""]","[1,1,0,1]",0,51,51,51,1,0,1,,,0,FALSE,2.1531,,,,,,,,,,,,,,,,,,,,,,,,,,,,,,
,,001,2022-04-28_20h15.26.308,classification_task,2021.2.3,MacIntel,59.93407252,613a9833c9a297f3ac00743f,626b377229c10585ec392f8a,626b3b477fd5610a2c41f186,,,,,,,,,,,,,,,,,,,,,,,a,1,"[""0.208"",""0.353"",""0.676"",""0.960""]","[1,1,0,1]",0,52,52,52,1,0,0,,,0,FALSE,1.2164,,,,,,,,,,,,,,,,,,,,,,,,,,,,,,
,,001,2022-04-28_20h15.26.308,classification_task,2021.2.3,MacIntel,59.93407252,613a9833c9a297f3ac00743f,626b377229c10585ec392f8a,626b3b477fd5610a2c41f186,,,,,,,,,,,,,,,,,,,,,,,l,1,"[""0.145"",""0.429"",""0.581"",""0.771""]","[1,1,0,1]",0,53,53,53,1,1,0,,,0,FALSE,3.2874,,,,,,,,,,,,,,,,,,,,,,,,,,,,,,
,,001,2022-04-28_20h15.26.308,classification_task,2021.2.3,MacIntel,59.93407252,613a9833c9a297f3ac00743f,626b377229c10585ec392f8a,626b3b477fd5610a2c41f186,,,,,,,,,,,,,,,,,,,,,,,a,1,"[""0.659"",""0.386"",""0.723"",""0.914""]","[0,1,1,1]",0,54,54,54,1,0,1,,,0,FALSE,2.403,,,,,,,,,,,,,,,,,,,,,,,,,,,,,,
,,001,2022-04-28_20h15.26.308,classification_task,2021.2.3,MacIntel,59.93407252,613a9833c9a297f3ac00743f,626b377229c10585ec392f8a,626b3b477fd5610a2c41f186,,,,,,,,,,,,,,,,,,,,,,,l,1,"[""0.038"",""0.076"",""0.534"",""0.277""]","[1,1,1,0]",0,55,55,55,1,1,1,,,0,FALSE,1.2109,,,,,,,,,,,,,,,,,,,,,,,,,,,,,,
,,001,2022-04-28_20h15.26.308,classification_task,2021.2.3,MacIntel,59.93407252,613a9833c9a297f3ac00743f,626b377229c10585ec392f8a,626b3b477fd5610a2c41f186,,,,,,,,,,,,,,,,,,,,,,,l,1,"[""0.145"",""0.429"",""0.490"",""0.661""]","[1,1,1,0]",0,56,56,56,1,1,0,,,0,FALSE,2.5196,,,,,,,,,,,,,,,,,,,,,,,,,,,,,,
,,001,2022-04-28_20h15.26.308,classification_task,2021.2.3,MacIntel,59.93407252,613a9833c9a297f3ac00743f,626b377229c10585ec392f8a,626b3b477fd5610a2c41f186,,,,,,,,,,,,,,,,,,,,,,,l,1,"[""0.584"",""0.076"",""0.534"",""0.807""]","[0,1,1,1]",0,57,57,57,1,1,1,,,0,FALSE,5.0331,,,,,,,,,,,,,,,,,,,,,,,,,,,,,,
,,001,2022-04-28_20h15.26.308,classification_task,2021.2.3,MacIntel,59.93407252,613a9833c9a297f3ac00743f,626b377229c10585ec392f8a,626b3b477fd5610a2c41f186,,,,,,,,,,,,,,,,,,,,,,,a,1,"[""0.208"",""0.609"",""0.875"",""0.960""]","[1,0,1,1]",0,58,58,58,1,0,0,,,0,FALSE,1.5314,,,,,,,,,,,,,,,,,,,,,,,,,,,,,,
,,001,2022-04-28_20h15.26.308,classification_task,2021.2.3,MacIntel,59.93407252,613a9833c9a297f3ac00743f,626b377229c10585ec392f8a,626b3b477fd5610a2c41f186,,,,,,,,,,,,,,,,,,,,,,,a,1,"[""0.208"",""0.353"",""0.875"",""0.636""]","[1,1,1,0]",0,59,59,59,1,0,0,,,0,FALSE,1.5074,,,,,,,,,,,,,,,,,,,,,,,,,,,,,,
,,001,2022-04-28_20h15.26.308,classification_task,2021.2.3,MacIntel,59.93407252,613a9833c9a297f3ac00743f,626b377229c10585ec392f8a,626b3b477fd5610a2c41f186,,,,,,,,,,,,,,,,,,,,,,,l,1,"[""0.038"",""0.076"",""0.645"",""0.807""]","[1,1,0,1]",0,60,60,60,1,1,1,,,0,FALSE,1.1915,,,,,,,,,,,,,,,,,,,,,,,,,,,,,,
,,001,2022-04-28_20h15.26.308,classification_task,2021.2.3,MacIntel,59.93407252,613a9833c9a297f3ac00743f,626b377229c10585ec392f8a,626b3b477fd5610a2c41f186,,,,,,,,,,,,,,,,,,,,,,,l,1,"[""0.581"",""0.429"",""0.490"",""0.771""]","[0,1,1,1]",0,61,61,61,1,1,0,,,0,FALSE,1.5444,,,,,,,,,,,,,,,,,,,,,,,,,,,,,,
,,001,2022-04-28_20h15.26.308,classification_task,2021.2.3,MacIntel,59.93407252,613a9833c9a297f3ac00743f,626b377229c10585ec392f8a,626b3b477fd5610a2c41f186,,,,,,,,,,,,,,,,,,,,,,,l,0,"[""0.581"",""0.353"",""0.875"",""0.960""]","[0,1,1,1]",0,62,62,62,1,0,0,,,0,FALSE,2.9994,,,,,,,,,,,,,,,,,,,,,,,,,,,,,,
,,001,2022-04-28_20h15.26.308,classification_task,2021.2.3,MacIntel,59.93407252,613a9833c9a297f3ac00743f,626b377229c10585ec392f8a,626b3b477fd5610a2c41f186,,,,,,,,,,,,,,,,,,,,,,,l,1,"[""0.038"",""0.609"",""0.534"",""0.807""]","[1,0,1,1]",0,63,63,63,1,1,1,,,0,FALSE,3.2886,,,,,,,,,,,,,,,,,,,,,,,,,,,,,,
,,001,2022-04-28_20h15.26.308,classification_task,2021.2.3,MacIntel,59.93407252,613a9833c9a297f3ac00743f,626b377229c10585ec392f8a,626b3b477fd5610a2c41f186,,,,,,,,,,,,,,,,,,,,,,,,,,,,,,,,,,,,,,,0, ,,0,6.439774244,270.0532,0,2,2,2,1,2,3,,,,,,,,,,,,,,,,,
,,001,2022-04-28_20h15.26.308,classification_task,2021.2.3,MacIntel,59.93407252,613a9833c9a297f3ac00743f,626b377229c10585ec392f8a,626b3b477fd5610a2c41f186,,,,,,,,,,,,,,,,,,,,,,,,,,,,,,,,,,,,,,,1,  ,,0,5.292031036,276.2701,0,2,2,2,1,2,3,,,,,,,,,,,,,,,,,
,,001,2022-04-28_20h15.26.308,classification_task,2021.2.3,MacIntel,59.93407252,613a9833c9a297f3ac00743f,626b377229c10585ec392f8a,626b3b477fd5610a2c41f186,,,,,,,,,,,,,,,,,,,,,,,,,,,,,,,,,,,,,,,2,  ,,0,4.616398289,278.4633,0,2,2,2,1,2,3,,,,,,,,,,,,,,,,,
,,001,2022-04-28_20h15.26.308,classification_task,2021.2.3,MacIntel,59.93407252,613a9833c9a297f3ac00743f,626b377229c10585ec392f8a,626b3b477fd5610a2c41f186,,,,,,,,,,,,,,,,,,,,,,,,,,,,,,,,,,,,,,,,,,,,,0,2,2,2,1,,3,,,,,,,,,,,,,,,,,
,,001,2022-04-28_20h15.26.308,classification_task,2021.2.3,MacIntel,59.93407252,613a9833c9a297f3ac00743f,626b377229c10585ec392f8a,626b3b477fd5610a2c41f186,,,,,,,,,,,,,,,,,,,,,,,,,,,,,,,,,,,,,,,,,,,,,,,,,,,,,I believe the aid is a competent performer,,0.7,0,5,1272.69,0,0,0,0,1,0,,,,
,,001,2022-04-28_20h15.26.308,classification_task,2021.2.3,MacIntel,59.93407252,613a9833c9a297f3ac00743f,626b377229c10585ec392f8a,626b3b477fd5610a2c41f186,,,,,,,,,,,,,,,,,,,,,,,,,,,,,,,,,,,,,,,,,,,,,,,,,,,,,I trust the aid,,0.7,0,5,1274.9262,0,0,0,0,1,0,,,,
,,001,2022-04-28_20h15.26.308,classification_task,2021.2.3,MacIntel,59.93407252,613a9833c9a297f3ac00743f,626b377229c10585ec392f8a,626b3b477fd5610a2c41f186,,,,,,,,,,,,,,,,,,,,,,,,,,,,,,,,,,,,,,,,,,,,,,,,,,,,,I have confidence in the advice given by the aid,,0.7,0,5,1281.5713,0,0,0,0,1,0,,,,
,,001,2022-04-28_20h15.26.308,classification_task,2021.2.3,MacIntel,59.93407252,613a9833c9a297f3ac00743f,626b377229c10585ec392f8a,626b3b477fd5610a2c41f186,,,,,,,,,,,,,,,,,,,,,,,,,,,,,,,,,,,,,,,,,,,,,,,,,,,,,I can depend on the aid,,0.7,0,5,1284.9886,0,0,0,0,1,0,,,,
,,001,2022-04-28_20h15.26.308,classification_task,2021.2.3,MacIntel,59.93407252,613a9833c9a297f3ac00743f,626b377229c10585ec392f8a,626b3b477fd5610a2c41f186,,,,,,,,,,,,,,,,,,,,,,,,,,,,,,,,,,,,,,,,,,,,,,,,,,,,,I can rely on the aid to behave in consistent ways,,0.7,0,5,1290.2182,0,0,0,0,1,0,,,,
,,001,2022-04-28_20h15.26.308,classification_task,2021.2.3,MacIntel,59.93407252,613a9833c9a297f3ac00743f,626b377229c10585ec392f8a,626b3b477fd5610a2c41f186,,,,,,,,,,,,,,,,,,,,,,,,,,,,,,,,,,,,,,,,,,,,,,,,,,,,,I can rely on the aid to do its best every time I take its advice,,0.7,0,5,1294.1094,0,0,0,0,1,0,,,,
,,001,2022-04-28_20h15.26.308,classification_task,2021.2.3,MacIntel,59.93407252,613a9833c9a297f3ac00743f,626b377229c10585ec392f8a,626b3b477fd5610a2c41f186,,,,,,,,,,,,,,,,,,,,,,,,,,,,,,,,,,,,,,,,,,,,,,,,,,,,,"On trials you completed with assistance from the aid, how frequently did you think the aid was correct?",,0.7,0,100,,0,0,0,0,1,0,,,,
,,001,2022-04-28_20h15.26.308,classification_task,2021.2.3,MacIntel,59.93407252,613a9833c9a297f3ac00743f,626b377229c10585ec392f8a,626b3b477fd5610a2c41f186,,,,,,,,,,,,,,,,,,,,,,,,,,,,,,,,,,,,,,,,,,,,,,,,,,,,,"On trials you completed without the aid, how frequently did you think you were correct?",,0.7,0,74,,0,0,0,0,1,0,,,,
,,001,2022-04-28_20h15.26.308,classification_task,2021.2.3,MacIntel,59.93407252,613a9833c9a297f3ac00743f,626b377229c10585ec392f8a,626b3b477fd5610a2c41f186,,,,,,,,,,,,,,,,,,,,,,,,,,,,,,,,,,,,,,,,,,,,,,,,,,,,,,,,,,,0,0,0,0,1,,,,,
,,001,2022-04-28_20h15.26.308,classification_task,2021.2.3,MacIntel,59.93407252,613a9833c9a297f3ac00743f,626b377229c10585ec392f8a,626b3b477fd5610a2c41f186,,,,,,,,,,,,,,,,,,,,,,,,,,,,,,,,,,,,,,,,,,,,,,,,,,,,,,,,,,,,,,,,,space,17.8299,1336.0297,
,,001,2022-04-28_20h15.26.308,classification_task,2021.2.3,MacIntel,59.93407252,613a9833c9a297f3ac00743f,626b377229c10585ec392f8a,626b3b477fd5610a2c41f186,,,,,,,,,,,,,,,,,,,,,,,,,,,,,,,,,,,,,,,,,,,,,,,,,,,,,,,,,,,,,,,,,,,,"Mozilla/5.0 (Macintosh; Intel Mac OS X 10_15_7) AppleWebKit/537.36 (KHTML, like Gecko) Chrome/100.0.4896.127 Safari/537.36"
