usingWebGL,participant,session,date,expName,psychopyVersion,OS,frameRate,PROLIFIC_PID,STUDY_ID,SESSION_ID,signatures_friend,signatures_foe,band_ranges_top,band_ranges_bottom,formitemText,formtype,formundefined,formitemWidth,formindex,formresponse,formrt,key_resp_2.keys,key_resp_2.rt,tute_resp.keys,tute_resp.rt,tutorial.thisRepN,tutorial.thisTrialN,tutorial.thisN,tutorial.thisIndex,tutorial.ran,key_resp_4.keys,key_resp_4.rt,key_resp.keys,key_resp.corr,key_resp.rt,lines_presented,is_signal_presented,trials.thisRepN,trials.thisTrialN,trials.thisN,trials.thisIndex,trials.ran,vessel,active_band,lines,is_signal,supported_pos,catch_trial,debrief_formindex,debrief_formitemText,debrief_formtype,debrief_formitemWidth,debrief_formresponse,debrief_formrt,phases.thisRepN,phases.thisTrialN,phases.thisN,phases.thisIndex,phases.ran,phases.order,phase,key_resp_3.keys,trustitemText,trusttype,trustitemWidth,trustindex,trustresponse,trustrt,support_status.thisRepN,support_status.thisTrialN,support_status.thisN,support_status.thisIndex,support_status.ran,support_status.order,key_resp_5.keys,key_resp_5.rt,globalClockTime,userAgent
TRUE,,001,2022-04-29_03h14.07.155,classification_task,2021.2.3,Win32,60.0132029,5e5c40b5651391430a31975b,626b377229c10585ec392f8a,626b3b52a84ef0bb1c05e87c,,,,,,,,,,,,,,,,,,,,,,,,,,,,,,,,,,,,,,,,,,,,,,,,,,,,,,,,,,,,,,,,,,,,
,,001,2022-04-29_03h14.07.155,classification_task,2021.2.3,Win32,60.0132029,5e5c40b5651391430a31975b,626b377229c10585ec392f8a,626b3b52a84ef0bb1c05e87c,"[[""0.249"",""0.336"",""0.649"",""0.938""],[""0.302"",""0.409"",""0.688"",""0.850""]]","[[""0.113"",""0.206"",""0.492"",""0.760""],[""0.041"",""0.157"",""0.590"",""0.808""]]","[1,10]","[100,1000]",Video game experience,,,0.7,0,,,,,,,,,,,,,,,,,,,,,,,,,,,,,,,,,,,,,,,,,,,,,,,,,,,,,,,,,,,
,,001,2022-04-29_03h14.07.155,classification_task,2021.2.3,Win32,60.0132029,5e5c40b5651391430a31975b,626b377229c10585ec392f8a,626b3b52a84ef0bb1c05e87c,,,,,Approximately how many hours did you spend playing video games in the last week?,,,0.7,0,0,,,,,,,,,,,,,,,,,,,,,,,,,,,,,,,,,,,,,,,,,,,,,,,,,,,,,,,,,,
,,001,2022-04-29_03h14.07.155,classification_task,2021.2.3,Win32,60.0132029,5e5c40b5651391430a31975b,626b377229c10585ec392f8a,626b3b52a84ef0bb1c05e87c,,,,,"Which game did you play the most this year? (Enter ""None"" if you didn't play any)",,,0.7,0,Super Mario Bros,,,,,,,,,,,,,,,,,,,,,,,,,,,,,,,,,,,,,,,,,,,,,,,,,,,,,,,,,,
,,001,2022-04-29_03h14.07.155,classification_task,2021.2.3,Win32,60.0132029,5e5c40b5651391430a31975b,626b377229c10585ec392f8a,626b3b52a84ef0bb1c05e87c,,,,,Visual perception,,,0.7,0,,,,,,,,,,,,,,,,,,,,,,,,,,,,,,,,,,,,,,,,,,,,,,,,,,,,,,,,,,,
,,001,2022-04-29_03h14.07.155,classification_task,2021.2.3,Win32,60.0132029,5e5c40b5651391430a31975b,626b377229c10585ec392f8a,626b3b52a84ef0bb1c05e87c,,,,,Do you have any form of color blindness?,,,0.7,0,No,74.7271,,,,,,,,,,,,,,,,,,,,,,,,,,,,,,,,,,,,,,,,,,,,,,,,,,,,,,,,,
,,001,2022-04-29_03h14.07.155,classification_task,2021.2.3,Win32,60.0132029,5e5c40b5651391430a31975b,626b377229c10585ec392f8a,626b3b52a84ef0bb1c05e87c,,,,,Do you use software to change the colour temperature of your screen (e.g. f.lux)?,,,0.7,0,Yes,79.8543,,,,,,,,,,,,,,,,,,,,,,,,,,,,,,,,,,,,,,,,,,,,,,,,,,,,,,,,,
,,001,2022-04-29_03h14.07.155,classification_task,2021.2.3,Win32,60.0132029,5e5c40b5651391430a31975b,626b377229c10585ec392f8a,626b3b52a84ef0bb1c05e87c,,,,,,,,,,,,space,59.6909,space,20.4659,0,0,0,0,1,,,,,,,,,,,,,,,,,,,,,,,,,,,,,,,,,,,,,,,,,,,,,,,,
,,001,2022-04-29_03h14.07.155,classification_task,2021.2.3,Win32,60.0132029,5e5c40b5651391430a31975b,626b377229c10585ec392f8a,626b3b52a84ef0bb1c05e87c,,,,,,,,,,,,,,space,16.7809,1,0,1,0,1,,,,,,,,,,,,,,,,,,,,,,,,,,,,,,,,,,,,,,,,,,,,,,,,
,,001,2022-04-29_03h14.07.155,classification_task,2021.2.3,Win32,60.0132029,5e5c40b5651391430a31975b,626b377229c10585ec392f8a,626b3b52a84ef0bb1c05e87c,,,,,,,,,,,,,,space,41.7265,2,0,2,0,1,,,,,,,,,,,,,,,,,,,,,,,,,,,,,,,,,,,,,,,,,,,,,,,,
,,001,2022-04-29_03h14.07.155,classification_task,2021.2.3,Win32,60.0132029,5e5c40b5651391430a31975b,626b377229c10585ec392f8a,626b3b52a84ef0bb1c05e87c,,,,,,,,,,,,,,space,13.4786,3,0,3,0,1,,,,,,,,,,,,,,,,,,,,,,,,,,,,,,,,,,,,,,,,,,,,,,,,
,,001,2022-04-29_03h14.07.155,classification_task,2021.2.3,Win32,60.0132029,5e5c40b5651391430a31975b,626b377229c10585ec392f8a,626b3b52a84ef0bb1c05e87c,,,,,,,,,,,,,,space,47.7106,4,0,4,0,1,,,,,,,,,,,,,,,,,,,,,,,,,,,,,,,,,,,,,,,,,,,,,,,,
,,001,2022-04-29_03h14.07.155,classification_task,2021.2.3,Win32,60.0132029,5e5c40b5651391430a31975b,626b377229c10585ec392f8a,626b3b52a84ef0bb1c05e87c,,,,,,,,,,,,,,,,,,,,,space,30.0351,l,1,7.556,"[""0.041"",""0.157"",""0.590"",""0.905""]","[1,1,1,0]",0,0,0,0,1,1,1,,,1,FALSE,,,,,,,,,,,,,,,,,,,,,,,,,,,,,,
,,001,2022-04-29_03h14.07.155,classification_task,2021.2.3,Win32,60.0132029,5e5c40b5651391430a31975b,626b377229c10585ec392f8a,626b3b52a84ef0bb1c05e87c,,,,,,,,,,,,,,,,,,,,,,,a,1,4.9783,"[""0.249"",""0.336"",""0.447"",""0.938""]","[1,1,0,1]",0,1,1,1,1,0,0,,,1,FALSE,,,,,,,,,,,,,,,,,,,,,,,,,,,,,,
,,001,2022-04-29_03h14.07.155,classification_task,2021.2.3,Win32,60.0132029,5e5c40b5651391430a31975b,626b377229c10585ec392f8a,626b3b52a84ef0bb1c05e87c,,,,,,,,,,,,,,,,,,,,,,,l,0,6.033,"[""0.249"",""0.530"",""0.649"",""0.938""]","[1,0,1,1]",0,2,2,2,1,0,0,,,1,FALSE,,,,,,,,,,,,,,,,,,,,,,,,,,,,,,
,,001,2022-04-29_03h14.07.155,classification_task,2021.2.3,Win32,60.0132029,5e5c40b5651391430a31975b,626b377229c10585ec392f8a,626b3b52a84ef0bb1c05e87c,,,,,,,,,,,,,,,,,,,,,,,a,1,8.0268,"[""0.302"",""0.409"",""0.688"",""0.372""]","[1,1,1,0]",0,3,3,3,1,0,1,,,1,FALSE,,,,,,,,,,,,,,,,,,,,,,,,,,,,,,
,,001,2022-04-29_03h14.07.155,classification_task,2021.2.3,Win32,60.0132029,5e5c40b5651391430a31975b,626b377229c10585ec392f8a,626b3b52a84ef0bb1c05e87c,,,,,,,,,,,,,,,,,,,,,,,l,1,6.3035,"[""0.041"",""0.901"",""0.590"",""0.808""]","[1,0,1,1]",0,4,4,4,1,1,1,,,1,FALSE,,,,,,,,,,,,,,,,,,,,,,,,,,,,,,
,,001,2022-04-29_03h14.07.155,classification_task,2021.2.3,Win32,60.0132029,5e5c40b5651391430a31975b,626b377229c10585ec392f8a,626b3b52a84ef0bb1c05e87c,,,,,,,,,,,,,,,,,,,,,,,l,1,5.1387,"[""0.555"",""0.206"",""0.492"",""0.760""]","[0,1,1,1]",0,5,5,5,1,1,0,,,1,FALSE,,,,,,,,,,,,,,,,,,,,,,,,,,,,,,
,,001,2022-04-29_03h14.07.155,classification_task,2021.2.3,Win32,60.0132029,5e5c40b5651391430a31975b,626b377229c10585ec392f8a,626b3b52a84ef0bb1c05e87c,,,,,,,,,,,,,,,,,,,,,,,a,1,6.2682,"[""0.302"",""0.372"",""0.688"",""0.850""]","[1,0,1,1]",0,6,6,6,1,0,1,,,1,FALSE,,,,,,,,,,,,,,,,,,,,,,,,,,,,,,
,,001,2022-04-29_03h14.07.155,classification_task,2021.2.3,Win32,60.0132029,5e5c40b5651391430a31975b,626b377229c10585ec392f8a,626b3b52a84ef0bb1c05e87c,,,,,,,,,,,,,,,,,,,,,,,l,1,3.9756,"[""0.113"",""0.206"",""0.447"",""0.760""]","[1,1,0,1]",0,7,7,7,1,1,0,,,1,FALSE,,,,,,,,,,,,,,,,,,,,,,,,,,,,,,
,,001,2022-04-29_03h14.07.155,classification_task,2021.2.3,Win32,60.0132029,5e5c40b5651391430a31975b,626b377229c10585ec392f8a,626b3b52a84ef0bb1c05e87c,,,,,,,,,,,,,,,,,,,,,,,l,1,5.3499,"[""0.041"",""0.157"",""0.370"",""0.808""]","[1,1,0,1]",0,8,8,8,1,1,1,,,1,FALSE,,,,,,,,,,,,,,,,,,,,,,,,,,,,,,
,,001,2022-04-29_03h14.07.155,classification_task,2021.2.3,Win32,60.0132029,5e5c40b5651391430a31975b,626b377229c10585ec392f8a,626b3b52a84ef0bb1c05e87c,,,,,,,,,,,,,,,,,,,,,,,l,1,3.7952,"[""0.113"",""0.206"",""0.492"",""0.547""]","[1,1,1,0]",0,9,9,9,1,1,0,,,1,FALSE,,,,,,,,,,,,,,,,,,,,,,,,,,,,,,
,,001,2022-04-29_03h14.07.155,classification_task,2021.2.3,Win32,60.0132029,5e5c40b5651391430a31975b,626b377229c10585ec392f8a,626b3b52a84ef0bb1c05e87c,,,,,,,,,,,,,,,,,,,,,,,a,1,6.5752,"[""0.533"",""0.409"",""0.688"",""0.850""]","[0,1,1,1]",0,10,10,10,1,0,1,,,1,FALSE,,,,,,,,,,,,,,,,,,,,,,,,,,,,,,
,,001,2022-04-29_03h14.07.155,classification_task,2021.2.3,Win32,60.0132029,5e5c40b5651391430a31975b,626b377229c10585ec392f8a,626b3b52a84ef0bb1c05e87c,,,,,,,,,,,,,,,,,,,,,,,a,1,4.9466,"[""0.249"",""0.336"",""0.649"",""0.456""]","[1,1,1,0]",0,11,11,11,1,0,0,,,1,FALSE,,,,,,,,,,,,,,,,,,,,,,,,,,,,,,
,,001,2022-04-29_03h14.07.155,classification_task,2021.2.3,Win32,60.0132029,5e5c40b5651391430a31975b,626b377229c10585ec392f8a,626b3b52a84ef0bb1c05e87c,,,,,,,,,,,,,,,,,,,,,,,a,1,5.6286,"[""0.302"",""0.409"",""0.905"",""0.850""]","[1,1,0,1]",0,12,12,12,1,0,1,,,1,FALSE,,,,,,,,,,,,,,,,,,,,,,,,,,,,,,
,,001,2022-04-29_03h14.07.155,classification_task,2021.2.3,Win32,60.0132029,5e5c40b5651391430a31975b,626b377229c10585ec392f8a,626b3b52a84ef0bb1c05e87c,,,,,,,,,,,,,,,,,,,,,,,a,0,6.2716,"[""0.445"",""0.157"",""0.590"",""0.808""]","[0,1,1,1]",0,13,13,13,1,1,1,,,1,FALSE,,,,,,,,,,,,,,,,,,,,,,,,,,,,,,
,,001,2022-04-29_03h14.07.155,classification_task,2021.2.3,Win32,60.0132029,5e5c40b5651391430a31975b,626b377229c10585ec392f8a,626b3b52a84ef0bb1c05e87c,,,,,,,,,,,,,,,,,,,,,,,a,1,4.3704,"[""0.447"",""0.336"",""0.649"",""0.938""]","[0,1,1,1]",0,14,14,14,1,0,0,,,1,FALSE,,,,,,,,,,,,,,,,,,,,,,,,,,,,,,
,,001,2022-04-29_03h14.07.155,classification_task,2021.2.3,Win32,60.0132029,5e5c40b5651391430a31975b,626b377229c10585ec392f8a,626b3b52a84ef0bb1c05e87c,,,,,,,,,,,,,,,,,,,,,,,l,1,4.7438,"[""0.113"",""0.556"",""0.492"",""0.760""]","[1,0,1,1]",0,15,15,15,1,1,0,,,1,FALSE,,,,,,,,,,,,,,,,,,,,,,,,,,,,,,
,,001,2022-04-29_03h14.07.155,classification_task,2021.2.3,Win32,60.0132029,5e5c40b5651391430a31975b,626b377229c10585ec392f8a,626b3b52a84ef0bb1c05e87c,,,,,,,,,,,,,,,,,,,,,,,a,1,4.6244,"[""0.302"",""0.409"",""0.688"",""0.547""]","[1,1,1,0]",0,16,16,16,1,0,1,,,1,FALSE,,,,,,,,,,,,,,,,,,,,,,,,,,,,,,
,,001,2022-04-29_03h14.07.155,classification_task,2021.2.3,Win32,60.0132029,5e5c40b5651391430a31975b,626b377229c10585ec392f8a,626b3b52a84ef0bb1c05e87c,,,,,,,,,,,,,,,,,,,,,,,a,0,7.5206,"[""0.041"",""0.157"",""0.590"",""0.530""]","[1,1,1,0]",0,17,17,17,1,1,1,,,1,FALSE,,,,,,,,,,,,,,,,,,,,,,,,,,,,,,
,,001,2022-04-29_03h14.07.155,classification_task,2021.2.3,Win32,60.0132029,5e5c40b5651391430a31975b,626b377229c10585ec392f8a,626b3b52a84ef0bb1c05e87c,,,,,,,,,,,,,,,,,,,,,,,a,1,6.7247,"[""0.302"",""0.409"",""0.530"",""0.850""]","[1,1,0,1]",0,18,18,18,1,0,1,,,1,FALSE,,,,,,,,,,,,,,,,,,,,,,,,,,,,,,
,,001,2022-04-29_03h14.07.155,classification_task,2021.2.3,Win32,60.0132029,5e5c40b5651391430a31975b,626b377229c10585ec392f8a,626b3b52a84ef0bb1c05e87c,,,,,,,,,,,,,,,,,,,,,,,a,1,3.8577,"[""0.530"",""0.409"",""0.688"",""0.850""]","[0,1,1,1]",0,19,19,19,1,0,1,,,1,FALSE,,,,,,,,,,,,,,,,,,,,,,,,,,,,,,
,,001,2022-04-29_03h14.07.155,classification_task,2021.2.3,Win32,60.0132029,5e5c40b5651391430a31975b,626b377229c10585ec392f8a,626b3b52a84ef0bb1c05e87c,,,,,,,,,,,,,,,,,,,,,,,a,0,5.0108,"[""0.113"",""0.206"",""0.547"",""0.760""]","[1,1,0,1]",0,20,20,20,1,1,0,,,1,FALSE,,,,,,,,,,,,,,,,,,,,,,,,,,,,,,
,,001,2022-04-29_03h14.07.155,classification_task,2021.2.3,Win32,60.0132029,5e5c40b5651391430a31975b,626b377229c10585ec392f8a,626b3b52a84ef0bb1c05e87c,,,,,,,,,,,,,,,,,,,,,,,l,0,8.3076,"[""0.249"",""0.556"",""0.649"",""0.938""]","[1,0,1,1]",0,21,21,21,1,0,0,,,1,FALSE,,,,,,,,,,,,,,,,,,,,,,,,,,,,,,
,,001,2022-04-29_03h14.07.155,classification_task,2021.2.3,Win32,60.0132029,5e5c40b5651391430a31975b,626b377229c10585ec392f8a,626b3b52a84ef0bb1c05e87c,,,,,,,,,,,,,,,,,,,,,,,l,1,8.1611,"[""0.547"",""0.157"",""0.590"",""0.808""]","[0,1,1,1]",0,22,22,22,1,1,1,,,1,FALSE,,,,,,,,,,,,,,,,,,,,,,,,,,,,,,
,,001,2022-04-29_03h14.07.155,classification_task,2021.2.3,Win32,60.0132029,5e5c40b5651391430a31975b,626b377229c10585ec392f8a,626b3b52a84ef0bb1c05e87c,,,,,,,,,,,,,,,,,,,,,,,l,1,5.7834,"[""0.041"",""0.456"",""0.590"",""0.808""]","[1,0,1,1]",0,23,23,23,1,1,1,,,1,FALSE,,,,,,,,,,,,,,,,,,,,,,,,,,,,,,
,,001,2022-04-29_03h14.07.155,classification_task,2021.2.3,Win32,60.0132029,5e5c40b5651391430a31975b,626b377229c10585ec392f8a,626b3b52a84ef0bb1c05e87c,,,,,,,,,,,,,,,,,,,,,,,,0,,"[""0.372"",""0.336"",""0.649"",""0.938""]","[0,1,1,1]",0,24,24,24,1,0,0,,,1,FALSE,,,,,,,,,,,,,,,,,,,,,,,,,,,,,,
,,001,2022-04-29_03h14.07.155,classification_task,2021.2.3,Win32,60.0132029,5e5c40b5651391430a31975b,626b377229c10585ec392f8a,626b3b52a84ef0bb1c05e87c,,,,,,,,,,,,,,,,,,,,,,,a,1,4.9631,"[""0.249"",""0.336"",""0.649"",""0.529""]","[1,1,1,0]",0,25,25,25,1,0,0,,,1,FALSE,,,,,,,,,,,,,,,,,,,,,,,,,,,,,,
,,001,2022-04-29_03h14.07.155,classification_task,2021.2.3,Win32,60.0132029,5e5c40b5651391430a31975b,626b377229c10585ec392f8a,626b3b52a84ef0bb1c05e87c,,,,,,,,,,,,,,,,,,,,,,,a,1,3.8134,"[""0.249"",""0.336"",""0.372"",""0.938""]","[1,1,0,1]",0,26,26,26,1,0,0,,,1,FALSE,,,,,,,,,,,,,,,,,,,,,,,,,,,,,,
,,001,2022-04-29_03h14.07.155,classification_task,2021.2.3,Win32,60.0132029,5e5c40b5651391430a31975b,626b377229c10585ec392f8a,626b3b52a84ef0bb1c05e87c,,,,,,,,,,,,,,,,,,,,,,,l,1,4.8039,"[""0.113"",""0.206"",""0.492"",""0.445""]","[1,1,1,0]",0,27,27,27,1,1,0,,,1,FALSE,,,,,,,,,,,,,,,,,,,,,,,,,,,,,,
,,001,2022-04-29_03h14.07.155,classification_task,2021.2.3,Win32,60.0132029,5e5c40b5651391430a31975b,626b377229c10585ec392f8a,626b3b52a84ef0bb1c05e87c,,,,,,,,,,,,,,,,,,,,,,,l,1,4.6667,"[""0.041"",""0.157"",""0.530"",""0.808""]","[1,1,0,1]",0,28,28,28,1,1,1,,,1,FALSE,,,,,,,,,,,,,,,,,,,,,,,,,,,,,,
,,001,2022-04-29_03h14.07.155,classification_task,2021.2.3,Win32,60.0132029,5e5c40b5651391430a31975b,626b377229c10585ec392f8a,626b3b52a84ef0bb1c05e87c,,,,,,,,,,,,,,,,,,,,,,,l,1,3.4608,"[""0.113"",""0.445"",""0.492"",""0.760""]","[1,0,1,1]",0,29,29,29,1,1,0,,,1,FALSE,,,,,,,,,,,,,,,,,,,,,,,,,,,,,,
,,001,2022-04-29_03h14.07.155,classification_task,2021.2.3,Win32,60.0132029,5e5c40b5651391430a31975b,626b377229c10585ec392f8a,626b3b52a84ef0bb1c05e87c,,,,,,,,,,,,,,,,,,,,,,,l,1,3.4949,"[""0.529"",""0.206"",""0.492"",""0.760""]","[0,1,1,1]",0,30,30,30,1,1,0,,,1,FALSE,,,,,,,,,,,,,,,,,,,,,,,,,,,,,,
,,001,2022-04-29_03h14.07.155,classification_task,2021.2.3,Win32,60.0132029,5e5c40b5651391430a31975b,626b377229c10585ec392f8a,626b3b52a84ef0bb1c05e87c,,,,,,,,,,,,,,,,,,,,,,,a,1,7.9895,"[""0.302"",""0.529"",""0.688"",""0.850""]","[1,0,1,1]",0,31,31,31,1,0,1,,,1,FALSE,,,,,,,,,,,,,,,,,,,,,,,,,,,,,,
,,001,2022-04-29_03h14.07.155,classification_task,2021.2.3,Win32,60.0132029,5e5c40b5651391430a31975b,626b377229c10585ec392f8a,626b3b52a84ef0bb1c05e87c,,,,,,,,,,,,,,,,,,,,,,,a,0,9.7035,"[""0.113"",""0.447"",""0.492"",""0.760""]","[1,0,1,1]",0,32,32,32,1,1,0,,,1,FALSE,,,,,,,,,,,,,,,,,,,,,,,,,,,,,,
,,001,2022-04-29_03h14.07.155,classification_task,2021.2.3,Win32,60.0132029,5e5c40b5651391430a31975b,626b377229c10585ec392f8a,626b3b52a84ef0bb1c05e87c,,,,,,,,,,,,,,,,,,,,,,,a,0,3.9033,"[""0.113"",""0.206"",""0.492"",""0.447""]","[1,1,1,0]",0,33,33,33,1,1,0,,,1,FALSE,,,,,,,,,,,,,,,,,,,,,,,,,,,,,,
,,001,2022-04-29_03h14.07.155,classification_task,2021.2.3,Win32,60.0132029,5e5c40b5651391430a31975b,626b377229c10585ec392f8a,626b3b52a84ef0bb1c05e87c,,,,,,,,,,,,,,,,,,,,,,,a,0,2.8368,"[""0.041"",""0.157"",""0.590"",""0.547""]","[1,1,1,0]",0,34,34,34,1,1,1,,,1,FALSE,,,,,,,,,,,,,,,,,,,,,,,,,,,,,,
,,001,2022-04-29_03h14.07.155,classification_task,2021.2.3,Win32,60.0132029,5e5c40b5651391430a31975b,626b377229c10585ec392f8a,626b3b52a84ef0bb1c05e87c,,,,,,,,,,,,,,,,,,,,,,,l,1,1.6624,"[""0.041"",""0.157"",""0.530"",""0.808""]","[1,1,0,1]",0,35,35,35,1,1,1,,,1,FALSE,,,,,,,,,,,,,,,,,,,,,,,,,,,,,,
,,001,2022-04-29_03h14.07.155,classification_task,2021.2.3,Win32,60.0132029,5e5c40b5651391430a31975b,626b377229c10585ec392f8a,626b3b52a84ef0bb1c05e87c,,,,,,,,,,,,,,,,,,,,,,,l,0,1.7892,"[""0.249"",""0.336"",""0.649"",""0.530""]","[1,1,1,0]",0,36,36,36,1,0,0,,,1,FALSE,,,,,,,,,,,,,,,,,,,,,,,,,,,,,,
,,001,2022-04-29_03h14.07.155,classification_task,2021.2.3,Win32,60.0132029,5e5c40b5651391430a31975b,626b377229c10585ec392f8a,626b3b52a84ef0bb1c05e87c,,,,,,,,,,,,,,,,,,,,,,,a,0,1.7894,"[""0.113"",""0.206"",""0.555"",""0.760""]","[1,1,0,1]",0,37,37,37,1,1,0,,,1,FALSE,,,,,,,,,,,,,,,,,,,,,,,,,,,,,,
,,001,2022-04-29_03h14.07.155,classification_task,2021.2.3,Win32,60.0132029,5e5c40b5651391430a31975b,626b377229c10585ec392f8a,626b3b52a84ef0bb1c05e87c,,,,,,,,,,,,,,,,,,,,,,,a,1,2.2218,"[""0.901"",""0.409"",""0.688"",""0.850""]","[0,1,1,1]",0,38,38,38,1,0,1,,,1,FALSE,,,,,,,,,,,,,,,,,,,,,,,,,,,,,,
,,001,2022-04-29_03h14.07.155,classification_task,2021.2.3,Win32,60.0132029,5e5c40b5651391430a31975b,626b377229c10585ec392f8a,626b3b52a84ef0bb1c05e87c,,,,,,,,,,,,,,,,,,,,,,,l,1,1.3557,"[""0.447"",""0.206"",""0.492"",""0.760""]","[0,1,1,1]",0,39,39,39,1,1,0,,,1,FALSE,,,,,,,,,,,,,,,,,,,,,,,,,,,,,,
,,001,2022-04-29_03h14.07.155,classification_task,2021.2.3,Win32,60.0132029,5e5c40b5651391430a31975b,626b377229c10585ec392f8a,626b3b52a84ef0bb1c05e87c,,,,,,,,,,,,,,,,,,,,,,,a,0,0.7128,"[""0.041"",""0.530"",""0.590"",""0.808""]","[1,0,1,1]",0,40,40,40,1,1,1,,,1,FALSE,,,,,,,,,,,,,,,,,,,,,,,,,,,,,,
,,001,2022-04-29_03h14.07.155,classification_task,2021.2.3,Win32,60.0132029,5e5c40b5651391430a31975b,626b377229c10585ec392f8a,626b3b52a84ef0bb1c05e87c,,,,,,,,,,,,,,,,,,,,,,,l,0,1.3372,"[""0.302"",""0.409"",""0.529"",""0.850""]","[1,1,0,1]",0,41,41,41,1,0,1,,,1,FALSE,,,,,,,,,,,,,,,,,,,,,,,,,,,,,,
,,001,2022-04-29_03h14.07.155,classification_task,2021.2.3,Win32,60.0132029,5e5c40b5651391430a31975b,626b377229c10585ec392f8a,626b3b52a84ef0bb1c05e87c,,,,,,,,,,,,,,,,,,,,,,,a,1,1.2107,"[""0.555"",""0.336"",""0.649"",""0.938""]","[0,1,1,1]",0,42,42,42,1,0,0,,,1,FALSE,,,,,,,,,,,,,,,,,,,,,,,,,,,,,,
,,001,2022-04-29_03h14.07.155,classification_task,2021.2.3,Win32,60.0132029,5e5c40b5651391430a31975b,626b377229c10585ec392f8a,626b3b52a84ef0bb1c05e87c,,,,,,,,,,,,,,,,,,,,,,,a,1,1.3636,"[""0.249"",""0.456"",""0.649"",""0.938""]","[1,0,1,1]",0,43,43,43,1,0,0,,,1,FALSE,,,,,,,,,,,,,,,,,,,,,,,,,,,,,,
,,001,2022-04-29_03h14.07.155,classification_task,2021.2.3,Win32,60.0132029,5e5c40b5651391430a31975b,626b377229c10585ec392f8a,626b3b52a84ef0bb1c05e87c,,,,,,,,,,,,,,,,,,,,,,,a,1,0.9072,"[""0.249"",""0.336"",""0.533"",""0.938""]","[1,1,0,1]",0,44,44,44,1,0,0,,,1,FALSE,,,,,,,,,,,,,,,,,,,,,,,,,,,,,,
,,001,2022-04-29_03h14.07.155,classification_task,2021.2.3,Win32,60.0132029,5e5c40b5651391430a31975b,626b377229c10585ec392f8a,626b3b52a84ef0bb1c05e87c,,,,,,,,,,,,,,,,,,,,,,,l,0,1.025,"[""0.302"",""0.445"",""0.688"",""0.850""]","[1,0,1,1]",0,45,45,45,1,0,1,,,1,FALSE,,,,,,,,,,,,,,,,,,,,,,,,,,,,,,
,,001,2022-04-29_03h14.07.155,classification_task,2021.2.3,Win32,60.0132029,5e5c40b5651391430a31975b,626b377229c10585ec392f8a,626b3b52a84ef0bb1c05e87c,,,,,,,,,,,,,,,,,,,,,,,a,0,0.8636,"[""0.370"",""0.157"",""0.590"",""0.808""]","[0,1,1,1]",0,46,46,46,1,1,1,,,1,FALSE,,,,,,,,,,,,,,,,,,,,,,,,,,,,,,
,,001,2022-04-29_03h14.07.155,classification_task,2021.2.3,Win32,60.0132029,5e5c40b5651391430a31975b,626b377229c10585ec392f8a,626b3b52a84ef0bb1c05e87c,,,,,,,,,,,,,,,,,,,,,,,a,1,1.4464,"[""0.302"",""0.409"",""0.688"",""0.447""]","[1,1,1,0]",0,47,47,47,1,0,1,,,1,FALSE,,,,,,,,,,,,,,,,,,,,,,,,,,,,,,
,,001,2022-04-29_03h14.07.155,classification_task,2021.2.3,Win32,60.0132029,5e5c40b5651391430a31975b,626b377229c10585ec392f8a,626b3b52a84ef0bb1c05e87c,,,,,,,,,,,,,,,,,,,,,,,a,0,1.0333,"[""0.456"",""0.157"",""0.590"",""0.808""]","[0,1,1,1]",0,48,48,48,1,1,1,,,1,FALSE,,,,,,,,,,,,,,,,,,,,,,,,,,,,,,
,,001,2022-04-29_03h14.07.155,classification_task,2021.2.3,Win32,60.0132029,5e5c40b5651391430a31975b,626b377229c10585ec392f8a,626b3b52a84ef0bb1c05e87c,,,,,,,,,,,,,,,,,,,,,,,a,1,0.8143,"[""0.302"",""0.409"",""0.688"",""0.370""]","[1,1,1,0]",0,49,49,49,1,0,1,,,1,FALSE,,,,,,,,,,,,,,,,,,,,,,,,,,,,,,
,,001,2022-04-29_03h14.07.155,classification_task,2021.2.3,Win32,60.0132029,5e5c40b5651391430a31975b,626b377229c10585ec392f8a,626b3b52a84ef0bb1c05e87c,,,,,,,,,,,,,,,,,,,,,,,l,1,1.0794,"[""0.041"",""0.157"",""0.590"",""0.529""]","[1,1,1,0]",0,50,50,50,1,1,1,,,1,FALSE,,,,,,,,,,,,,,,,,,,,,,,,,,,,,,
,,001,2022-04-29_03h14.07.155,classification_task,2021.2.3,Win32,60.0132029,5e5c40b5651391430a31975b,626b377229c10585ec392f8a,626b3b52a84ef0bb1c05e87c,,,,,,,,,,,,,,,,,,,,,,,a,1,1.1132,"[""0.302"",""0.447"",""0.688"",""0.850""]","[1,0,1,1]",0,51,51,51,1,0,1,,,1,FALSE,,,,,,,,,,,,,,,,,,,,,,,,,,,,,,
,,001,2022-04-29_03h14.07.155,classification_task,2021.2.3,Win32,60.0132029,5e5c40b5651391430a31975b,626b377229c10585ec392f8a,626b3b52a84ef0bb1c05e87c,,,,,,,,,,,,,,,,,,,,,,,l,0,0.8066,"[""0.249"",""0.336"",""0.447"",""0.938""]","[1,1,0,1]",0,52,52,52,1,0,0,,,1,FALSE,,,,,,,,,,,,,,,,,,,,,,,,,,,,,,
,,001,2022-04-29_03h14.07.155,classification_task,2021.2.3,Win32,60.0132029,5e5c40b5651391430a31975b,626b377229c10585ec392f8a,626b3b52a84ef0bb1c05e87c,,,,,,,,,,,,,,,,,,,,,,,l,0,0.5271,"[""0.447"",""0.336"",""0.649"",""0.938""]","[0,1,1,1]",0,53,53,53,1,0,0,,,1,FALSE,,,,,,,,,,,,,,,,,,,,,,,,,,,,,,
,,001,2022-04-29_03h14.07.155,classification_task,2021.2.3,Win32,60.0132029,5e5c40b5651391430a31975b,626b377229c10585ec392f8a,626b3b52a84ef0bb1c05e87c,,,,,,,,,,,,,,,,,,,,,,,a,1,0.4244,"[""0.249"",""0.905"",""0.649"",""0.938""]","[1,0,1,1]",0,54,54,54,1,0,0,,,1,FALSE,,,,,,,,,,,,,,,,,,,,,,,,,,,,,,
,,001,2022-04-29_03h14.07.155,classification_task,2021.2.3,Win32,60.0132029,5e5c40b5651391430a31975b,626b377229c10585ec392f8a,626b3b52a84ef0bb1c05e87c,,,,,,,,,,,,,,,,,,,,,,,a,0,1.0223,"[""0.041"",""0.157"",""0.370"",""0.808""]","[1,1,0,1]",0,55,55,55,1,1,1,,,1,FALSE,,,,,,,,,,,,,,,,,,,,,,,,,,,,,,
,,001,2022-04-29_03h14.07.155,classification_task,2021.2.3,Win32,60.0132029,5e5c40b5651391430a31975b,626b377229c10585ec392f8a,626b3b52a84ef0bb1c05e87c,,,,,,,,,,,,,,,,,,,,,,,a,0,1.4189,"[""0.113"",""0.206"",""0.530"",""0.760""]","[1,1,0,1]",0,56,56,56,1,1,0,,,1,FALSE,,,,,,,,,,,,,,,,,,,,,,,,,,,,,,
,,001,2022-04-29_03h14.07.155,classification_task,2021.2.3,Win32,60.0132029,5e5c40b5651391430a31975b,626b377229c10585ec392f8a,626b3b52a84ef0bb1c05e87c,,,,,,,,,,,,,,,,,,,,,,,l,0,0.4561,"[""0.445"",""0.409"",""0.688"",""0.850""]","[0,1,1,1]",0,57,57,57,1,0,1,,,1,FALSE,,,,,,,,,,,,,,,,,,,,,,,,,,,,,,
,,001,2022-04-29_03h14.07.155,classification_task,2021.2.3,Win32,60.0132029,5e5c40b5651391430a31975b,626b377229c10585ec392f8a,626b3b52a84ef0bb1c05e87c,,,,,,,,,,,,,,,,,,,,,,,l,1,1.3977,"[""0.041"",""0.901"",""0.590"",""0.808""]","[1,0,1,1]",0,58,58,58,1,1,1,,,1,FALSE,,,,,,,,,,,,,,,,,,,,,,,,,,,,,,
,,001,2022-04-29_03h14.07.155,classification_task,2021.2.3,Win32,60.0132029,5e5c40b5651391430a31975b,626b377229c10585ec392f8a,626b3b52a84ef0bb1c05e87c,,,,,,,,,,,,,,,,,,,,,,,l,0,1.655,"[""0.302"",""0.409"",""0.530"",""0.850""]","[1,1,0,1]",0,59,59,59,1,0,1,,,1,FALSE,,,,,,,,,,,,,,,,,,,,,,,,,,,,,,
,,001,2022-04-29_03h14.07.155,classification_task,2021.2.3,Win32,60.0132029,5e5c40b5651391430a31975b,626b377229c10585ec392f8a,626b3b52a84ef0bb1c05e87c,,,,,,,,,,,,,,,,,,,,,,,a,1,0.682,"[""0.249"",""0.336"",""0.649"",""0.456""]","[1,1,1,0]",0,60,60,60,1,0,0,,,1,FALSE,,,,,,,,,,,,,,,,,,,,,,,,,,,,,,
,,001,2022-04-29_03h14.07.155,classification_task,2021.2.3,Win32,60.0132029,5e5c40b5651391430a31975b,626b377229c10585ec392f8a,626b3b52a84ef0bb1c05e87c,,,,,,,,,,,,,,,,,,,,,,,a,0,0.6568,"[""0.445"",""0.206"",""0.492"",""0.760""]","[0,1,1,1]",0,61,61,61,1,1,0,,,1,FALSE,,,,,,,,,,,,,,,,,,,,,,,,,,,,,,
,,001,2022-04-29_03h14.07.155,classification_task,2021.2.3,Win32,60.0132029,5e5c40b5651391430a31975b,626b377229c10585ec392f8a,626b3b52a84ef0bb1c05e87c,,,,,,,,,,,,,,,,,,,,,,,a,0,1.2968,"[""0.113"",""0.372"",""0.492"",""0.760""]","[1,0,1,1]",0,62,62,62,1,1,0,,,1,FALSE,,,,,,,,,,,,,,,,,,,,,,,,,,,,,,
,,001,2022-04-29_03h14.07.155,classification_task,2021.2.3,Win32,60.0132029,5e5c40b5651391430a31975b,626b377229c10585ec392f8a,626b3b52a84ef0bb1c05e87c,,,,,,,,,,,,,,,,,,,,,,,a,0,0.7458,"[""0.113"",""0.206"",""0.492"",""0.447""]","[1,1,1,0]",0,63,63,63,1,1,0,,,1,FALSE,,,,,,,,,,,,,,,,,,,,,,,,,,,,,,
,,001,2022-04-29_03h14.07.155,classification_task,2021.2.3,Win32,60.0132029,5e5c40b5651391430a31975b,626b377229c10585ec392f8a,626b3b52a84ef0bb1c05e87c,,,,,,,,,,,,,,,,,,,,,,,,,,,,,,,,,,,,,,,0, ,,0,1.644131651,665.3569,0,0,0,0,1,2,1,,,,,,,,,,,,,,,,,
,,001,2022-04-29_03h14.07.155,classification_task,2021.2.3,Win32,60.0132029,5e5c40b5651391430a31975b,626b377229c10585ec392f8a,626b3b52a84ef0bb1c05e87c,,,,,,,,,,,,,,,,,,,,,,,,,,,,,,,,,,,,,,,1,  ,,0,8.67430923,676.5867,0,0,0,0,1,2,1,,,,,,,,,,,,,,,,,
,,001,2022-04-29_03h14.07.155,classification_task,2021.2.3,Win32,60.0132029,5e5c40b5651391430a31975b,626b377229c10585ec392f8a,626b3b52a84ef0bb1c05e87c,,,,,,,,,,,,,,,,,,,,,,,,,,,,,,,,,,,,,,,2,  ,,0,3.530276308,686.418,0,0,0,0,1,2,1,,,,,,,,,,,,,,,,,
,,001,2022-04-29_03h14.07.155,classification_task,2021.2.3,Win32,60.0132029,5e5c40b5651391430a31975b,626b377229c10585ec392f8a,626b3b52a84ef0bb1c05e87c,,,,,,,,,,,,,,,,,,,,,,,,,,,,,,,,,,,,,,,,,,,,,0,0,0,0,1,,1,,,,,,,,,,,,,,,,,
,,001,2022-04-29_03h14.07.155,classification_task,2021.2.3,Win32,60.0132029,5e5c40b5651391430a31975b,626b377229c10585ec392f8a,626b3b52a84ef0bb1c05e87c,,,,,,,,,,,,,,,,,,,,,space,15.8502,a,0,2.404,"[""0.113"",""0.206"",""0.492"",""0.905""]","[1,1,1,0]",0,0,0,0,1,1,0,,,1,FALSE,,,,,,,,,,,,,,,,,,,,,,,,,,,,,,
,,001,2022-04-29_03h14.07.155,classification_task,2021.2.3,Win32,60.0132029,5e5c40b5651391430a31975b,626b377229c10585ec392f8a,626b3b52a84ef0bb1c05e87c,,,,,,,,,,,,,,,,,,,,,,,l,1,0.6332,"[""0.041"",""0.447"",""0.590"",""0.808""]","[1,0,1,1]",0,1,1,1,1,1,1,,,1,FALSE,,,,,,,,,,,,,,,,,,,,,,,,,,,,,,
,,001,2022-04-29_03h14.07.155,classification_task,2021.2.3,Win32,60.0132029,5e5c40b5651391430a31975b,626b377229c10585ec392f8a,626b3b52a84ef0bb1c05e87c,,,,,,,,,,,,,,,,,,,,,,,l,0,0.4234,"[""0.302"",""0.409"",""0.372"",""0.850""]","[1,1,0,1]",0,2,2,2,1,0,1,,,1,FALSE,,,,,,,,,,,,,,,,,,,,,,,,,,,,,,
,,001,2022-04-29_03h14.07.155,classification_task,2021.2.3,Win32,60.0132029,5e5c40b5651391430a31975b,626b377229c10585ec392f8a,626b3b52a84ef0bb1c05e87c,,,,,,,,,,,,,,,,,,,,,,,l,1,0.4112,"[""0.041"",""0.157"",""0.590"",""0.905""]","[1,1,1,0]",0,3,3,3,1,1,1,,,1,FALSE,,,,,,,,,,,,,,,,,,,,,,,,,,,,,,
,,001,2022-04-29_03h14.07.155,classification_task,2021.2.3,Win32,60.0132029,5e5c40b5651391430a31975b,626b377229c10585ec392f8a,626b3b52a84ef0bb1c05e87c,,,,,,,,,,,,,,,,,,,,,,,a,0,0.3799,"[""0.447"",""0.157"",""0.590"",""0.808""]","[0,1,1,1]",0,4,4,4,1,1,1,,,1,FALSE,,,,,,,,,,,,,,,,,,,,,,,,,,,,,,
,,001,2022-04-29_03h14.07.155,classification_task,2021.2.3,Win32,60.0132029,5e5c40b5651391430a31975b,626b377229c10585ec392f8a,626b3b52a84ef0bb1c05e87c,,,,,,,,,,,,,,,,,,,,,,,l,1,0.3662,"[""0.113"",""0.447"",""0.492"",""0.760""]","[1,0,1,1]",0,5,5,5,1,1,0,,,1,FALSE,,,,,,,,,,,,,,,,,,,,,,,,,,,,,,
,,001,2022-04-29_03h14.07.155,classification_task,2021.2.3,Win32,60.0132029,5e5c40b5651391430a31975b,626b377229c10585ec392f8a,626b3b52a84ef0bb1c05e87c,,,,,,,,,,,,,,,,,,,,,,,l,0,0.5971,"[""0.249"",""0.445"",""0.649"",""0.938""]","[1,0,1,1]",0,6,6,6,1,0,0,,,1,FALSE,,,,,,,,,,,,,,,,,,,,,,,,,,,,,,
,,001,2022-04-29_03h14.07.155,classification_task,2021.2.3,Win32,60.0132029,5e5c40b5651391430a31975b,626b377229c10585ec392f8a,626b3b52a84ef0bb1c05e87c,,,,,,,,,,,,,,,,,,,,,,,l,0,0.8052,"[""0.249"",""0.336"",""0.649"",""0.530""]","[1,1,1,0]",0,7,7,7,1,0,0,,,1,FALSE,,,,,,,,,,,,,,,,,,,,,,,,,,,,,,
,,001,2022-04-29_03h14.07.155,classification_task,2021.2.3,Win32,60.0132029,5e5c40b5651391430a31975b,626b377229c10585ec392f8a,626b3b52a84ef0bb1c05e87c,,,,,,,,,,,,,,,,,,,,,,,a,1,0.2821,"[""0.447"",""0.409"",""0.688"",""0.850""]","[0,1,1,1]",0,8,8,8,1,0,1,,,1,FALSE,,,,,,,,,,,,,,,,,,,,,,,,,,,,,,
,,001,2022-04-29_03h14.07.155,classification_task,2021.2.3,Win32,60.0132029,5e5c40b5651391430a31975b,626b377229c10585ec392f8a,626b3b52a84ef0bb1c05e87c,,,,,,,,,,,,,,,,,,,,,,,a,1,0.6453,"[""0.556"",""0.336"",""0.649"",""0.938""]","[0,1,1,1]",0,9,9,9,1,0,0,,,1,FALSE,,,,,,,,,,,,,,,,,,,,,,,,,,,,,,
,,001,2022-04-29_03h14.07.155,classification_task,2021.2.3,Win32,60.0132029,5e5c40b5651391430a31975b,626b377229c10585ec392f8a,626b3b52a84ef0bb1c05e87c,,,,,,,,,,,,,,,,,,,,,,,l,0,0.9072,"[""0.302"",""0.529"",""0.688"",""0.850""]","[1,0,1,1]",0,10,10,10,1,0,1,,,1,FALSE,,,,,,,,,,,,,,,,,,,,,,,,,,,,,,
,,001,2022-04-29_03h14.07.155,classification_task,2021.2.3,Win32,60.0132029,5e5c40b5651391430a31975b,626b377229c10585ec392f8a,626b3b52a84ef0bb1c05e87c,,,,,,,,,,,,,,,,,,,,,,,a,0,0.5095,"[""0.556"",""0.206"",""0.492"",""0.760""]","[0,1,1,1]",0,11,11,11,1,1,0,,,1,FALSE,,,,,,,,,,,,,,,,,,,,,,,,,,,,,,
,,001,2022-04-29_03h14.07.155,classification_task,2021.2.3,Win32,60.0132029,5e5c40b5651391430a31975b,626b377229c10585ec392f8a,626b3b52a84ef0bb1c05e87c,,,,,,,,,,,,,,,,,,,,,,,l,1,0.3831,"[""0.041"",""0.157"",""0.905"",""0.808""]","[1,1,0,1]",0,12,12,12,1,1,1,,,1,FALSE,,,,,,,,,,,,,,,,,,,,,,,,,,,,,,
,,001,2022-04-29_03h14.07.155,classification_task,2021.2.3,Win32,60.0132029,5e5c40b5651391430a31975b,626b377229c10585ec392f8a,626b3b52a84ef0bb1c05e87c,,,,,,,,,,,,,,,,,,,,,,,l,1,0.4559,"[""0.113"",""0.206"",""0.555"",""0.760""]","[1,1,0,1]",0,13,13,13,1,1,0,,,1,FALSE,,,,,,,,,,,,,,,,,,,,,,,,,,,,,,
,,001,2022-04-29_03h14.07.155,classification_task,2021.2.3,Win32,60.0132029,5e5c40b5651391430a31975b,626b377229c10585ec392f8a,626b3b52a84ef0bb1c05e87c,,,,,,,,,,,,,,,,,,,,,,,l,0,0.376,"[""0.249"",""0.336"",""0.555"",""0.938""]","[1,1,0,1]",0,14,14,14,1,0,0,,,1,FALSE,,,,,,,,,,,,,,,,,,,,,,,,,,,,,,
,,001,2022-04-29_03h14.07.155,classification_task,2021.2.3,Win32,60.0132029,5e5c40b5651391430a31975b,626b377229c10585ec392f8a,626b3b52a84ef0bb1c05e87c,,,,,,,,,,,,,,,,,,,,,,,a,1,0.4557,"[""0.302"",""0.409"",""0.688"",""0.530""]","[1,1,1,0]",0,15,15,15,1,0,1,,,1,FALSE,,,,,,,,,,,,,,,,,,,,,,,,,,,,,,
,,001,2022-04-29_03h14.07.155,classification_task,2021.2.3,Win32,60.0132029,5e5c40b5651391430a31975b,626b377229c10585ec392f8a,626b3b52a84ef0bb1c05e87c,,,,,,,,,,,,,,,,,,,,,,,a,0,0.7579,"[""0.113"",""0.206"",""0.372"",""0.760""]","[1,1,0,1]",0,16,16,16,1,1,0,,,1,FALSE,,,,,,,,,,,,,,,,,,,,,,,,,,,,,,
,,001,2022-04-29_03h14.07.155,classification_task,2021.2.3,Win32,60.0132029,5e5c40b5651391430a31975b,626b377229c10585ec392f8a,626b3b52a84ef0bb1c05e87c,,,,,,,,,,,,,,,,,,,,,,,l,1,0.6706,"[""0.905"",""0.206"",""0.492"",""0.760""]","[0,1,1,1]",0,17,17,17,1,1,0,,,1,FALSE,,,,,,,,,,,,,,,,,,,,,,,,,,,,,,
,,001,2022-04-29_03h14.07.155,classification_task,2021.2.3,Win32,60.0132029,5e5c40b5651391430a31975b,626b377229c10585ec392f8a,626b3b52a84ef0bb1c05e87c,,,,,,,,,,,,,,,,,,,,,,,a,1,0.3666,"[""0.302"",""0.445"",""0.688"",""0.850""]","[1,0,1,1]",0,18,18,18,1,0,1,,,1,FALSE,,,,,,,,,,,,,,,,,,,,,,,,,,,,,,
,,001,2022-04-29_03h14.07.155,classification_task,2021.2.3,Win32,60.0132029,5e5c40b5651391430a31975b,626b377229c10585ec392f8a,626b3b52a84ef0bb1c05e87c,,,,,,,,,,,,,,,,,,,,,,,l,0,0.4716,"[""0.302"",""0.409"",""0.905"",""0.850""]","[1,1,0,1]",0,19,19,19,1,0,1,,,1,FALSE,,,,,,,,,,,,,,,,,,,,,,,,,,,,,,
,,001,2022-04-29_03h14.07.155,classification_task,2021.2.3,Win32,60.0132029,5e5c40b5651391430a31975b,626b377229c10585ec392f8a,626b3b52a84ef0bb1c05e87c,,,,,,,,,,,,,,,,,,,,,,,a,1,0.7137,"[""0.302"",""0.409"",""0.688"",""0.456""]","[1,1,1,0]",0,20,20,20,1,0,1,,,1,FALSE,,,,,,,,,,,,,,,,,,,,,,,,,,,,,,
,,001,2022-04-29_03h14.07.155,classification_task,2021.2.3,Win32,60.0132029,5e5c40b5651391430a31975b,626b377229c10585ec392f8a,626b3b52a84ef0bb1c05e87c,,,,,,,,,,,,,,,,,,,,,,,l,1,0.396,"[""0.041"",""0.547"",""0.590"",""0.808""]","[1,0,1,1]",0,21,21,21,1,1,1,,,1,FALSE,,,,,,,,,,,,,,,,,,,,,,,,,,,,,,
,,001,2022-04-29_03h14.07.155,classification_task,2021.2.3,Win32,60.0132029,5e5c40b5651391430a31975b,626b377229c10585ec392f8a,626b3b52a84ef0bb1c05e87c,,,,,,,,,,,,,,,,,,,,,,,a,1,0.4098,"[""0.249"",""0.447"",""0.649"",""0.938""]","[1,0,1,1]",0,22,22,22,1,0,0,,,1,FALSE,,,,,,,,,,,,,,,,,,,,,,,,,,,,,,
,,001,2022-04-29_03h14.07.155,classification_task,2021.2.3,Win32,60.0132029,5e5c40b5651391430a31975b,626b377229c10585ec392f8a,626b3b52a84ef0bb1c05e87c,,,,,,,,,,,,,,,,,,,,,,,l,1,0.3604,"[""0.041"",""0.157"",""0.590"",""0.370""]","[1,1,1,0]",0,23,23,23,1,1,1,,,1,FALSE,,,,,,,,,,,,,,,,,,,,,,,,,,,,,,
,,001,2022-04-29_03h14.07.155,classification_task,2021.2.3,Win32,60.0132029,5e5c40b5651391430a31975b,626b377229c10585ec392f8a,626b3b52a84ef0bb1c05e87c,,,,,,,,,,,,,,,,,,,,,,,a,1,0.3572,"[""0.901"",""0.336"",""0.649"",""0.938""]","[0,1,1,1]",0,24,24,24,1,0,0,,,1,FALSE,,,,,,,,,,,,,,,,,,,,,,,,,,,,,,
,,001,2022-04-29_03h14.07.155,classification_task,2021.2.3,Win32,60.0132029,5e5c40b5651391430a31975b,626b377229c10585ec392f8a,626b3b52a84ef0bb1c05e87c,,,,,,,,,,,,,,,,,,,,,,,l,0,0.3464,"[""0.249"",""0.336"",""0.649"",""0.905""]","[1,1,1,0]",0,25,25,25,1,0,0,,,1,FALSE,,,,,,,,,,,,,,,,,,,,,,,,,,,,,,
,,001,2022-04-29_03h14.07.155,classification_task,2021.2.3,Win32,60.0132029,5e5c40b5651391430a31975b,626b377229c10585ec392f8a,626b3b52a84ef0bb1c05e87c,,,,,,,,,,,,,,,,,,,,,,,a,0,0.9457,"[""0.113"",""0.206"",""0.492"",""0.530""]","[1,1,1,0]",0,26,26,26,1,1,0,,,1,FALSE,,,,,,,,,,,,,,,,,,,,,,,,,,,,,,
,,001,2022-04-29_03h14.07.155,classification_task,2021.2.3,Win32,60.0132029,5e5c40b5651391430a31975b,626b377229c10585ec392f8a,626b3b52a84ef0bb1c05e87c,,,,,,,,,,,,,,,,,,,,,,,a,0,1.0761,"[""0.113"",""0.547"",""0.492"",""0.760""]","[1,0,1,1]",0,27,27,27,1,1,0,,,1,FALSE,,,,,,,,,,,,,,,,,,,,,,,,,,,,,,
,,001,2022-04-29_03h14.07.155,classification_task,2021.2.3,Win32,60.0132029,5e5c40b5651391430a31975b,626b377229c10585ec392f8a,626b3b52a84ef0bb1c05e87c,,,,,,,,,,,,,,,,,,,,,,,l,0,0.3759,"[""0.547"",""0.409"",""0.688"",""0.850""]","[0,1,1,1]",0,28,28,28,1,0,1,,,1,FALSE,,,,,,,,,,,,,,,,,,,,,,,,,,,,,,
,,001,2022-04-29_03h14.07.155,classification_task,2021.2.3,Win32,60.0132029,5e5c40b5651391430a31975b,626b377229c10585ec392f8a,626b3b52a84ef0bb1c05e87c,,,,,,,,,,,,,,,,,,,,,,,a,0,1.1122,"[""0.901"",""0.157"",""0.590"",""0.808""]","[0,1,1,1]",0,29,29,29,1,1,1,,,1,FALSE,,,,,,,,,,,,,,,,,,,,,,,,,,,,,,
,,001,2022-04-29_03h14.07.155,classification_task,2021.2.3,Win32,60.0132029,5e5c40b5651391430a31975b,626b377229c10585ec392f8a,626b3b52a84ef0bb1c05e87c,,,,,,,,,,,,,,,,,,,,,,,l,1,0.2836,"[""0.041"",""0.157"",""0.556"",""0.808""]","[1,1,0,1]",0,30,30,30,1,1,1,,,1,FALSE,,,,,,,,,,,,,,,,,,,,,,,,,,,,,,
,,001,2022-04-29_03h14.07.155,classification_task,2021.2.3,Win32,60.0132029,5e5c40b5651391430a31975b,626b377229c10585ec392f8a,626b3b52a84ef0bb1c05e87c,,,,,,,,,,,,,,,,,,,,,,,a,1,0.4502,"[""0.249"",""0.336"",""0.370"",""0.938""]","[1,1,0,1]",0,31,31,31,1,0,0,,,1,FALSE,,,,,,,,,,,,,,,,,,,,,,,,,,,,,,
,,001,2022-04-29_03h14.07.155,classification_task,2021.2.3,Win32,60.0132029,5e5c40b5651391430a31975b,626b377229c10585ec392f8a,626b3b52a84ef0bb1c05e87c,,,,,,,,,,,,,,,,,,,,,,,l,0,0.3616,"[""0.302"",""0.409"",""0.370"",""0.850""]","[1,1,0,1]",0,32,32,32,1,0,1,,,1,FALSE,,,,,,,,,,,,,,,,,,,,,,,,,,,,,,
,,001,2022-04-29_03h14.07.155,classification_task,2021.2.3,Win32,60.0132029,5e5c40b5651391430a31975b,626b377229c10585ec392f8a,626b3b52a84ef0bb1c05e87c,,,,,,,,,,,,,,,,,,,,,,,a,1,0.474,"[""0.302"",""0.456"",""0.688"",""0.850""]","[1,0,1,1]",0,33,33,33,1,0,1,,,1,FALSE,,,,,,,,,,,,,,,,,,,,,,,,,,,,,,
,,001,2022-04-29_03h14.07.155,classification_task,2021.2.3,Win32,60.0132029,5e5c40b5651391430a31975b,626b377229c10585ec392f8a,626b3b52a84ef0bb1c05e87c,,,,,,,,,,,,,,,,,,,,,,,l,1,0.3932,"[""0.041"",""0.157"",""0.590"",""0.370""]","[1,1,1,0]",0,34,34,34,1,1,1,,,1,FALSE,,,,,,,,,,,,,,,,,,,,,,,,,,,,,,
,,001,2022-04-29_03h14.07.155,classification_task,2021.2.3,Win32,60.0132029,5e5c40b5651391430a31975b,626b377229c10585ec392f8a,626b3b52a84ef0bb1c05e87c,,,,,,,,,,,,,,,,,,,,,,,a,1,0.3456,"[""0.302"",""0.409"",""0.688"",""0.372""]","[1,1,1,0]",0,35,35,35,1,0,1,,,1,FALSE,,,,,,,,,,,,,,,,,,,,,,,,,,,,,,
,,001,2022-04-29_03h14.07.155,classification_task,2021.2.3,Win32,60.0132029,5e5c40b5651391430a31975b,626b377229c10585ec392f8a,626b3b52a84ef0bb1c05e87c,,,,,,,,,,,,,,,,,,,,,,,l,1,0.4423,"[""0.530"",""0.206"",""0.492"",""0.760""]","[0,1,1,1]",0,36,36,36,1,1,0,,,1,FALSE,,,,,,,,,,,,,,,,,,,,,,,,,,,,,,
,,001,2022-04-29_03h14.07.155,classification_task,2021.2.3,Win32,60.0132029,5e5c40b5651391430a31975b,626b377229c10585ec392f8a,626b3b52a84ef0bb1c05e87c,,,,,,,,,,,,,,,,,,,,,,,a,1,0.3335,"[""0.456"",""0.336"",""0.649"",""0.938""]","[0,1,1,1]",0,37,37,37,1,0,0,,,1,FALSE,,,,,,,,,,,,,,,,,,,,,,,,,,,,,,
,,001,2022-04-29_03h14.07.155,classification_task,2021.2.3,Win32,60.0132029,5e5c40b5651391430a31975b,626b377229c10585ec392f8a,626b3b52a84ef0bb1c05e87c,,,,,,,,,,,,,,,,,,,,,,,l,0,0.3115,"[""0.249"",""0.445"",""0.649"",""0.938""]","[1,0,1,1]",0,38,38,38,1,0,0,,,1,FALSE,,,,,,,,,,,,,,,,,,,,,,,,,,,,,,
,,001,2022-04-29_03h14.07.155,classification_task,2021.2.3,Win32,60.0132029,5e5c40b5651391430a31975b,626b377229c10585ec392f8a,626b3b52a84ef0bb1c05e87c,,,,,,,,,,,,,,,,,,,,,,,a,1,0.3565,"[""0.249"",""0.336"",""0.547"",""0.938""]","[1,1,0,1]",0,39,39,39,1,0,0,,,1,FALSE,,,,,,,,,,,,,,,,,,,,,,,,,,,,,,
,,001,2022-04-29_03h14.07.155,classification_task,2021.2.3,Win32,60.0132029,5e5c40b5651391430a31975b,626b377229c10585ec392f8a,626b3b52a84ef0bb1c05e87c,,,,,,,,,,,,,,,,,,,,,,,l,1,0.3597,"[""0.041"",""0.372"",""0.590"",""0.808""]","[1,0,1,1]",0,40,40,40,1,1,1,,,1,FALSE,,,,,,,,,,,,,,,,,,,,,,,,,,,,,,
,,001,2022-04-29_03h14.07.155,classification_task,2021.2.3,Win32,60.0132029,5e5c40b5651391430a31975b,626b377229c10585ec392f8a,626b3b52a84ef0bb1c05e87c,,,,,,,,,,,,,,,,,,,,,,,a,0,0.3239,"[""0.113"",""0.206"",""0.492"",""0.555""]","[1,1,1,0]",0,41,41,41,1,1,0,,,1,FALSE,,,,,,,,,,,,,,,,,,,,,,,,,,,,,,
,,001,2022-04-29_03h14.07.155,classification_task,2021.2.3,Win32,60.0132029,5e5c40b5651391430a31975b,626b377229c10585ec392f8a,626b3b52a84ef0bb1c05e87c,,,,,,,,,,,,,,,,,,,,,,,l,0,0.3399,"[""0.249"",""0.336"",""0.649"",""0.456""]","[1,1,1,0]",0,42,42,42,1,0,0,,,1,FALSE,,,,,,,,,,,,,,,,,,,,,,,,,,,,,,
,,001,2022-04-29_03h14.07.155,classification_task,2021.2.3,Win32,60.0132029,5e5c40b5651391430a31975b,626b377229c10585ec392f8a,626b3b52a84ef0bb1c05e87c,,,,,,,,,,,,,,,,,,,,,,,a,0,0.6175,"[""0.370"",""0.157"",""0.590"",""0.808""]","[0,1,1,1]",0,43,43,43,1,1,1,,,1,FALSE,,,,,,,,,,,,,,,,,,,,,,,,,,,,,,
,,001,2022-04-29_03h14.07.155,classification_task,2021.2.3,Win32,60.0132029,5e5c40b5651391430a31975b,626b377229c10585ec392f8a,626b3b52a84ef0bb1c05e87c,,,,,,,,,,,,,,,,,,,,,,,l,1,0.5238,"[""0.113"",""0.556"",""0.492"",""0.760""]","[1,0,1,1]",0,44,44,44,1,1,0,,,1,FALSE,,,,,,,,,,,,,,,,,,,,,,,,,,,,,,
,,001,2022-04-29_03h14.07.155,classification_task,2021.2.3,Win32,60.0132029,5e5c40b5651391430a31975b,626b377229c10585ec392f8a,626b3b52a84ef0bb1c05e87c,,,,,,,,,,,,,,,,,,,,,,,a,0,0.3411,"[""0.041"",""0.157"",""0.556"",""0.808""]","[1,1,0,1]",0,45,45,45,1,1,1,,,1,FALSE,,,,,,,,,,,,,,,,,,,,,,,,,,,,,,
,,001,2022-04-29_03h14.07.155,classification_task,2021.2.3,Win32,60.0132029,5e5c40b5651391430a31975b,626b377229c10585ec392f8a,626b3b52a84ef0bb1c05e87c,,,,,,,,,,,,,,,,,,,,,,,l,1,0.3422,"[""0.113"",""0.206"",""0.445"",""0.760""]","[1,1,0,1]",0,46,46,46,1,1,0,,,1,FALSE,,,,,,,,,,,,,,,,,,,,,,,,,,,,,,
,,001,2022-04-29_03h14.07.155,classification_task,2021.2.3,Win32,60.0132029,5e5c40b5651391430a31975b,626b377229c10585ec392f8a,626b3b52a84ef0bb1c05e87c,,,,,,,,,,,,,,,,,,,,,,,l,0,0.6486,"[""0.555"",""0.409"",""0.688"",""0.850""]","[0,1,1,1]",0,47,47,47,1,0,1,,,1,FALSE,,,,,,,,,,,,,,,,,,,,,,,,,,,,,,
,,001,2022-04-29_03h14.07.155,classification_task,2021.2.3,Win32,60.0132029,5e5c40b5651391430a31975b,626b377229c10585ec392f8a,626b3b52a84ef0bb1c05e87c,,,,,,,,,,,,,,,,,,,,,,,a,1,0.8537,"[""0.249"",""0.336"",""0.901"",""0.938""]","[1,1,0,1]",0,48,48,48,1,0,0,,,1,FALSE,,,,,,,,,,,,,,,,,,,,,,,,,,,,,,
,,001,2022-04-29_03h14.07.155,classification_task,2021.2.3,Win32,60.0132029,5e5c40b5651391430a31975b,626b377229c10585ec392f8a,626b3b52a84ef0bb1c05e87c,,,,,,,,,,,,,,,,,,,,,,,a,0,0.3803,"[""0.113"",""0.206"",""0.445"",""0.760""]","[1,1,0,1]",0,49,49,49,1,1,0,,,1,FALSE,,,,,,,,,,,,,,,,,,,,,,,,,,,,,,
,,001,2022-04-29_03h14.07.155,classification_task,2021.2.3,Win32,60.0132029,5e5c40b5651391430a31975b,626b377229c10585ec392f8a,626b3b52a84ef0bb1c05e87c,,,,,,,,,,,,,,,,,,,,,,,l,0,0.6476,"[""0.302"",""0.409"",""0.372"",""0.850""]","[1,1,0,1]",0,50,50,50,1,0,1,,,1,FALSE,,,,,,,,,,,,,,,,,,,,,,,,,,,,,,
,,001,2022-04-29_03h14.07.155,classification_task,2021.2.3,Win32,60.0132029,5e5c40b5651391430a31975b,626b377229c10585ec392f8a,626b3b52a84ef0bb1c05e87c,,,,,,,,,,,,,,,,,,,,,,,a,1,0.5736,"[""0.529"",""0.409"",""0.688"",""0.850""]","[0,1,1,1]",0,51,51,51,1,0,1,,,1,FALSE,,,,,,,,,,,,,,,,,,,,,,,,,,,,,,
,,001,2022-04-29_03h14.07.155,classification_task,2021.2.3,Win32,60.0132029,5e5c40b5651391430a31975b,626b377229c10585ec392f8a,626b3b52a84ef0bb1c05e87c,,,,,,,,,,,,,,,,,,,,,,,a,0,0.3497,"[""0.447"",""0.157"",""0.590"",""0.808""]","[0,1,1,1]",0,52,52,52,1,1,1,,,1,FALSE,,,,,,,,,,,,,,,,,,,,,,,,,,,,,,
,,001,2022-04-29_03h14.07.155,classification_task,2021.2.3,Win32,60.0132029,5e5c40b5651391430a31975b,626b377229c10585ec392f8a,626b3b52a84ef0bb1c05e87c,,,,,,,,,,,,,,,,,,,,,,,l,1,1.0564,"[""0.041"",""0.157"",""0.590"",""0.533""]","[1,1,1,0]",0,53,53,53,1,1,1,,,1,FALSE,,,,,,,,,,,,,,,,,,,,,,,,,,,,,,
,,001,2022-04-29_03h14.07.155,classification_task,2021.2.3,Win32,60.0132029,5e5c40b5651391430a31975b,626b377229c10585ec392f8a,626b3b52a84ef0bb1c05e87c,,,,,,,,,,,,,,,,,,,,,,,a,0,0.3806,"[""0.041"",""0.530"",""0.590"",""0.808""]","[1,0,1,1]",0,54,54,54,1,1,1,,,1,FALSE,,,,,,,,,,,,,,,,,,,,,,,,,,,,,,
,,001,2022-04-29_03h14.07.155,classification_task,2021.2.3,Win32,60.0132029,5e5c40b5651391430a31975b,626b377229c10585ec392f8a,626b3b52a84ef0bb1c05e87c,,,,,,,,,,,,,,,,,,,,,,,l,0,0.3575,"[""0.249"",""0.336"",""0.649"",""0.372""]","[1,1,1,0]",0,55,55,55,1,0,0,,,1,FALSE,,,,,,,,,,,,,,,,,,,,,,,,,,,,,,
,,001,2022-04-29_03h14.07.155,classification_task,2021.2.3,Win32,60.0132029,5e5c40b5651391430a31975b,626b377229c10585ec392f8a,626b3b52a84ef0bb1c05e87c,,,,,,,,,,,,,,,,,,,,,,,a,0,0.2807,"[""0.456"",""0.206"",""0.492"",""0.760""]","[0,1,1,1]",0,56,56,56,1,1,0,,,1,FALSE,,,,,,,,,,,,,,,,,,,,,,,,,,,,,,
,,001,2022-04-29_03h14.07.155,classification_task,2021.2.3,Win32,60.0132029,5e5c40b5651391430a31975b,626b377229c10585ec392f8a,626b3b52a84ef0bb1c05e87c,,,,,,,,,,,,,,,,,,,,,,,l,0,0.6562,"[""0.302"",""0.409"",""0.688"",""0.372""]","[1,1,1,0]",0,57,57,57,1,0,1,,,1,FALSE,,,,,,,,,,,,,,,,,,,,,,,,,,,,,,
,,001,2022-04-29_03h14.07.155,classification_task,2021.2.3,Win32,60.0132029,5e5c40b5651391430a31975b,626b377229c10585ec392f8a,626b3b52a84ef0bb1c05e87c,,,,,,,,,,,,,,,,,,,,,,,l,1,0.8953,"[""0.041"",""0.157"",""0.530"",""0.808""]","[1,1,0,1]",0,58,58,58,1,1,1,,,1,FALSE,,,,,,,,,,,,,,,,,,,,,,,,,,,,,,
,,001,2022-04-29_03h14.07.155,classification_task,2021.2.3,Win32,60.0132029,5e5c40b5651391430a31975b,626b377229c10585ec392f8a,626b3b52a84ef0bb1c05e87c,,,,,,,,,,,,,,,,,,,,,,,l,0,1.2778,"[""0.302"",""0.445"",""0.688"",""0.850""]","[1,0,1,1]",0,59,59,59,1,0,1,,,1,FALSE,,,,,,,,,,,,,,,,,,,,,,,,,,,,,,
,,001,2022-04-29_03h14.07.155,classification_task,2021.2.3,Win32,60.0132029,5e5c40b5651391430a31975b,626b377229c10585ec392f8a,626b3b52a84ef0bb1c05e87c,,,,,,,,,,,,,,,,,,,,,,,l,1,0.6302,"[""0.113"",""0.206"",""0.492"",""0.555""]","[1,1,1,0]",0,60,60,60,1,1,0,,,1,FALSE,,,,,,,,,,,,,,,,,,,,,,,,,,,,,,
,,001,2022-04-29_03h14.07.155,classification_task,2021.2.3,Win32,60.0132029,5e5c40b5651391430a31975b,626b377229c10585ec392f8a,626b3b52a84ef0bb1c05e87c,,,,,,,,,,,,,,,,,,,,,,,a,0,0.4469,"[""0.113"",""0.905"",""0.492"",""0.760""]","[1,0,1,1]",0,61,61,61,1,1,0,,,1,FALSE,,,,,,,,,,,,,,,,,,,,,,,,,,,,,,
,,001,2022-04-29_03h14.07.155,classification_task,2021.2.3,Win32,60.0132029,5e5c40b5651391430a31975b,626b377229c10585ec392f8a,626b3b52a84ef0bb1c05e87c,,,,,,,,,,,,,,,,,,,,,,,l,0,0.3644,"[""0.547"",""0.336"",""0.649"",""0.938""]","[0,1,1,1]",0,62,62,62,1,0,0,,,1,FALSE,,,,,,,,,,,,,,,,,,,,,,,,,,,,,,
,,001,2022-04-29_03h14.07.155,classification_task,2021.2.3,Win32,60.0132029,5e5c40b5651391430a31975b,626b377229c10585ec392f8a,626b3b52a84ef0bb1c05e87c,,,,,,,,,,,,,,,,,,,,,,,a,1,1.2846,"[""0.249"",""0.447"",""0.649"",""0.938""]","[1,0,1,1]",0,63,63,63,1,0,0,,,1,FALSE,,,,,,,,,,,,,,,,,,,,,,,,,,,,,,
,,001,2022-04-29_03h14.07.155,classification_task,2021.2.3,Win32,60.0132029,5e5c40b5651391430a31975b,626b377229c10585ec392f8a,626b3b52a84ef0bb1c05e87c,,,,,,,,,,,,,,,,,,,,,,,,,,,,,,,,,,,,,,,0, ,,0,4.338624339,128.3969,0,1,1,1,1,2,2,,,,,,,,,,,,,,,,,
,,001,2022-04-29_03h14.07.155,classification_task,2021.2.3,Win32,60.0132029,5e5c40b5651391430a31975b,626b377229c10585ec392f8a,626b3b52a84ef0bb1c05e87c,,,,,,,,,,,,,,,,,,,,,,,,,,,,,,,,,,,,,,,1,  ,,0,7.523026419,134.9646,0,1,1,1,1,2,2,,,,,,,,,,,,,,,,,
,,001,2022-04-29_03h14.07.155,classification_task,2021.2.3,Win32,60.0132029,5e5c40b5651391430a31975b,626b377229c10585ec392f8a,626b3b52a84ef0bb1c05e87c,,,,,,,,,,,,,,,,,,,,,,,,,,,,,,,,,,,,,,,2,  ,,0,2.574955908,142.3937,0,1,1,1,1,2,2,,,,,,,,,,,,,,,,,
,,001,2022-04-29_03h14.07.155,classification_task,2021.2.3,Win32,60.0132029,5e5c40b5651391430a31975b,626b377229c10585ec392f8a,626b3b52a84ef0bb1c05e87c,,,,,,,,,,,,,,,,,,,,,,,,,,,,,,,,,,,,,,,,,,,,,0,1,1,1,1,,2,,,,,,,,,,,,,,,,,
,,001,2022-04-29_03h14.07.155,classification_task,2021.2.3,Win32,60.0132029,5e5c40b5651391430a31975b,626b377229c10585ec392f8a,626b3b52a84ef0bb1c05e87c,,,,,,,,,,,,,,,,,,,,,space,20.6093,a,0,1.5794,"[""0.041"",""0.157"",""0.590"",""0.456""]","[1,1,1,0]",0,0,0,0,1,1,1,,,1,FALSE,,,,,,,,,,,,,,,,,,,,,,,,,,,,,,
,,001,2022-04-29_03h14.07.155,classification_task,2021.2.3,Win32,60.0132029,5e5c40b5651391430a31975b,626b377229c10585ec392f8a,626b3b52a84ef0bb1c05e87c,,,,,,,,,,,,,,,,,,,,,,,l,1,1.828,"[""0.041"",""0.157"",""0.456"",""0.808""]","[1,1,0,1]",0,1,1,1,1,1,1,,,1,FALSE,,,,,,,,,,,,,,,,,,,,,,,,,,,,,,
,,001,2022-04-29_03h14.07.155,classification_task,2021.2.3,Win32,60.0132029,5e5c40b5651391430a31975b,626b377229c10585ec392f8a,626b3b52a84ef0bb1c05e87c,,,,,,,,,,,,,,,,,,,,,,,a,1,0.5407,"[""0.302"",""0.409"",""0.688"",""0.555""]","[1,1,1,0]",0,2,2,2,1,0,1,,,1,FALSE,,,,,,,,,,,,,,,,,,,,,,,,,,,,,,
,,001,2022-04-29_03h14.07.155,classification_task,2021.2.3,Win32,60.0132029,5e5c40b5651391430a31975b,626b377229c10585ec392f8a,626b3b52a84ef0bb1c05e87c,,,,,,,,,,,,,,,,,,,,,,,a,0,1.0459,"[""0.113"",""0.901"",""0.492"",""0.760""]","[1,0,1,1]",0,3,3,3,1,1,0,,,1,FALSE,,,,,,,,,,,,,,,,,,,,,,,,,,,,,,
,,001,2022-04-29_03h14.07.155,classification_task,2021.2.3,Win32,60.0132029,5e5c40b5651391430a31975b,626b377229c10585ec392f8a,626b3b52a84ef0bb1c05e87c,,,,,,,,,,,,,,,,,,,,,,,a,0,0.6198,"[""0.113"",""0.206"",""0.492"",""0.445""]","[1,1,1,0]",0,4,4,4,1,1,0,,,1,FALSE,,,,,,,,,,,,,,,,,,,,,,,,,,,,,,
,,001,2022-04-29_03h14.07.155,classification_task,2021.2.3,Win32,60.0132029,5e5c40b5651391430a31975b,626b377229c10585ec392f8a,626b3b52a84ef0bb1c05e87c,,,,,,,,,,,,,,,,,,,,,,,a,1,1.7354,"[""0.249"",""0.456"",""0.649"",""0.938""]","[1,0,1,1]",0,5,5,5,1,0,0,,,1,FALSE,,,,,,,,,,,,,,,,,,,,,,,,,,,,,,
,,001,2022-04-29_03h14.07.155,classification_task,2021.2.3,Win32,60.0132029,5e5c40b5651391430a31975b,626b377229c10585ec392f8a,626b3b52a84ef0bb1c05e87c,,,,,,,,,,,,,,,,,,,,,,,a,0,0.4913,"[""0.113"",""0.206"",""0.529"",""0.760""]","[1,1,0,1]",0,6,6,6,1,1,0,,,1,FALSE,,,,,,,,,,,,,,,,,,,,,,,,,,,,,,
,,001,2022-04-29_03h14.07.155,classification_task,2021.2.3,Win32,60.0132029,5e5c40b5651391430a31975b,626b377229c10585ec392f8a,626b3b52a84ef0bb1c05e87c,,,,,,,,,,,,,,,,,,,,,,,l,0,0.4721,"[""0.530"",""0.409"",""0.688"",""0.850""]","[0,1,1,1]",0,7,7,7,1,0,1,,,1,FALSE,,,,,,,,,,,,,,,,,,,,,,,,,,,,,,
,,001,2022-04-29_03h14.07.155,classification_task,2021.2.3,Win32,60.0132029,5e5c40b5651391430a31975b,626b377229c10585ec392f8a,626b3b52a84ef0bb1c05e87c,,,,,,,,,,,,,,,,,,,,,,,a,0,0.5973,"[""0.530"",""0.206"",""0.492"",""0.760""]","[0,1,1,1]",0,8,8,8,1,1,0,,,1,FALSE,,,,,,,,,,,,,,,,,,,,,,,,,,,,,,
,,001,2022-04-29_03h14.07.155,classification_task,2021.2.3,Win32,60.0132029,5e5c40b5651391430a31975b,626b377229c10585ec392f8a,626b3b52a84ef0bb1c05e87c,,,,,,,,,,,,,,,,,,,,,,,a,1,0.5293,"[""0.249"",""0.336"",""0.649"",""0.901""]","[1,1,1,0]",0,9,9,9,1,0,0,,,1,FALSE,,,,,,,,,,,,,,,,,,,,,,,,,,,,,,
,,001,2022-04-29_03h14.07.155,classification_task,2021.2.3,Win32,60.0132029,5e5c40b5651391430a31975b,626b377229c10585ec392f8a,626b3b52a84ef0bb1c05e87c,,,,,,,,,,,,,,,,,,,,,,,l,0,0.4245,"[""0.302"",""0.409"",""0.447"",""0.850""]","[1,1,0,1]",0,10,10,10,1,0,1,,,1,FALSE,,,,,,,,,,,,,,,,,,,,,,,,,,,,,,
,,001,2022-04-29_03h14.07.155,classification_task,2021.2.3,Win32,60.0132029,5e5c40b5651391430a31975b,626b377229c10585ec392f8a,626b3b52a84ef0bb1c05e87c,,,,,,,,,,,,,,,,,,,,,,,a,1,0.3071,"[""0.249"",""0.336"",""0.370"",""0.938""]","[1,1,0,1]",0,11,11,11,1,0,0,,,1,FALSE,,,,,,,,,,,,,,,,,,,,,,,,,,,,,,
,,001,2022-04-29_03h14.07.155,classification_task,2021.2.3,Win32,60.0132029,5e5c40b5651391430a31975b,626b377229c10585ec392f8a,626b3b52a84ef0bb1c05e87c,,,,,,,,,,,,,,,,,,,,,,,l,0,0.6465,"[""0.302"",""0.556"",""0.688"",""0.850""]","[1,0,1,1]",0,12,12,12,1,0,1,,,1,FALSE,,,,,,,,,,,,,,,,,,,,,,,,,,,,,,
,,001,2022-04-29_03h14.07.155,classification_task,2021.2.3,Win32,60.0132029,5e5c40b5651391430a31975b,626b377229c10585ec392f8a,626b3b52a84ef0bb1c05e87c,,,,,,,,,,,,,,,,,,,,,,,l,1,0.5916,"[""0.905"",""0.157"",""0.590"",""0.808""]","[0,1,1,1]",0,13,13,13,1,1,1,,,1,FALSE,,,,,,,,,,,,,,,,,,,,,,,,,,,,,,
,,001,2022-04-29_03h14.07.155,classification_task,2021.2.3,Win32,60.0132029,5e5c40b5651391430a31975b,626b377229c10585ec392f8a,626b3b52a84ef0bb1c05e87c,,,,,,,,,,,,,,,,,,,,,,,l,1,0.5587,"[""0.041"",""0.530"",""0.590"",""0.808""]","[1,0,1,1]",0,14,14,14,1,1,1,,,1,FALSE,,,,,,,,,,,,,,,,,,,,,,,,,,,,,,
,,001,2022-04-29_03h14.07.155,classification_task,2021.2.3,Win32,60.0132029,5e5c40b5651391430a31975b,626b377229c10585ec392f8a,626b3b52a84ef0bb1c05e87c,,,,,,,,,,,,,,,,,,,,,,,a,1,0.3906,"[""0.447"",""0.336"",""0.649"",""0.938""]","[0,1,1,1]",0,15,15,15,1,0,0,,,1,FALSE,,,,,,,,,,,,,,,,,,,,,,,,,,,,,,
,,001,2022-04-29_03h14.07.155,classification_task,2021.2.3,Win32,60.0132029,5e5c40b5651391430a31975b,626b377229c10585ec392f8a,626b3b52a84ef0bb1c05e87c,,,,,,,,,,,,,,,,,,,,,,,a,1,0.3706,"[""0.249"",""0.530"",""0.649"",""0.938""]","[1,0,1,1]",0,16,16,16,1,0,0,,,1,FALSE,,,,,,,,,,,,,,,,,,,,,,,,,,,,,,
,,001,2022-04-29_03h14.07.155,classification_task,2021.2.3,Win32,60.0132029,5e5c40b5651391430a31975b,626b377229c10585ec392f8a,626b3b52a84ef0bb1c05e87c,,,,,,,,,,,,,,,,,,,,,,,l,0,0.4508,"[""0.302"",""0.409"",""0.688"",""0.533""]","[1,1,1,0]",0,17,17,17,1,0,1,,,1,FALSE,,,,,,,,,,,,,,,,,,,,,,,,,,,,,,
,,001,2022-04-29_03h14.07.155,classification_task,2021.2.3,Win32,60.0132029,5e5c40b5651391430a31975b,626b377229c10585ec392f8a,626b3b52a84ef0bb1c05e87c,,,,,,,,,,,,,,,,,,,,,,,l,1,0.4238,"[""0.555"",""0.157"",""0.590"",""0.808""]","[0,1,1,1]",0,18,18,18,1,1,1,,,1,FALSE,,,,,,,,,,,,,,,,,,,,,,,,,,,,,,
,,001,2022-04-29_03h14.07.155,classification_task,2021.2.3,Win32,60.0132029,5e5c40b5651391430a31975b,626b377229c10585ec392f8a,626b3b52a84ef0bb1c05e87c,,,,,,,,,,,,,,,,,,,,,,,a,0,0.3606,"[""0.530"",""0.206"",""0.492"",""0.760""]","[0,1,1,1]",0,19,19,19,1,1,0,,,1,FALSE,,,,,,,,,,,,,,,,,,,,,,,,,,,,,,
,,001,2022-04-29_03h14.07.155,classification_task,2021.2.3,Win32,60.0132029,5e5c40b5651391430a31975b,626b377229c10585ec392f8a,626b3b52a84ef0bb1c05e87c,,,,,,,,,,,,,,,,,,,,,,,a,0,0.3876,"[""0.113"",""0.206"",""0.530"",""0.760""]","[1,1,0,1]",0,20,20,20,1,1,0,,,1,FALSE,,,,,,,,,,,,,,,,,,,,,,,,,,,,,,
,,001,2022-04-29_03h14.07.155,classification_task,2021.2.3,Win32,60.0132029,5e5c40b5651391430a31975b,626b377229c10585ec392f8a,626b3b52a84ef0bb1c05e87c,,,,,,,,,,,,,,,,,,,,,,,l,1,0.4261,"[""0.041"",""0.157"",""0.372"",""0.808""]","[1,1,0,1]",0,21,21,21,1,1,1,,,1,FALSE,,,,,,,,,,,,,,,,,,,,,,,,,,,,,,
,,001,2022-04-29_03h14.07.155,classification_task,2021.2.3,Win32,60.0132029,5e5c40b5651391430a31975b,626b377229c10585ec392f8a,626b3b52a84ef0bb1c05e87c,,,,,,,,,,,,,,,,,,,,,,,a,1,0.4784,"[""0.249"",""0.336"",""0.447"",""0.938""]","[1,1,0,1]",0,22,22,22,1,0,0,,,1,FALSE,,,,,,,,,,,,,,,,,,,,,,,,,,,,,,
,,001,2022-04-29_03h14.07.155,classification_task,2021.2.3,Win32,60.0132029,5e5c40b5651391430a31975b,626b377229c10585ec392f8a,626b3b52a84ef0bb1c05e87c,,,,,,,,,,,,,,,,,,,,,,,l,1,0.4126,"[""0.041"",""0.157"",""0.590"",""0.533""]","[1,1,1,0]",0,23,23,23,1,1,1,,,1,FALSE,,,,,,,,,,,,,,,,,,,,,,,,,,,,,,
,,001,2022-04-29_03h14.07.155,classification_task,2021.2.3,Win32,60.0132029,5e5c40b5651391430a31975b,626b377229c10585ec392f8a,626b3b52a84ef0bb1c05e87c,,,,,,,,,,,,,,,,,,,,,,,l,1,0.5109,"[""0.041"",""0.529"",""0.590"",""0.808""]","[1,0,1,1]",0,24,24,24,1,1,1,,,1,FALSE,,,,,,,,,,,,,,,,,,,,,,,,,,,,,,
,,001,2022-04-29_03h14.07.155,classification_task,2021.2.3,Win32,60.0132029,5e5c40b5651391430a31975b,626b377229c10585ec392f8a,626b3b52a84ef0bb1c05e87c,,,,,,,,,,,,,,,,,,,,,,,a,0,0.4601,"[""0.113"",""0.206"",""0.492"",""0.529""]","[1,1,1,0]",0,25,25,25,1,1,0,,,1,FALSE,,,,,,,,,,,,,,,,,,,,,,,,,,,,,,
,,001,2022-04-29_03h14.07.155,classification_task,2021.2.3,Win32,60.0132029,5e5c40b5651391430a31975b,626b377229c10585ec392f8a,626b3b52a84ef0bb1c05e87c,,,,,,,,,,,,,,,,,,,,,,,l,0,0.5032,"[""0.302"",""0.409"",""0.447"",""0.850""]","[1,1,0,1]",0,26,26,26,1,0,1,,,1,FALSE,,,,,,,,,,,,,,,,,,,,,,,,,,,,,,
,,001,2022-04-29_03h14.07.155,classification_task,2021.2.3,Win32,60.0132029,5e5c40b5651391430a31975b,626b377229c10585ec392f8a,626b3b52a84ef0bb1c05e87c,,,,,,,,,,,,,,,,,,,,,,,l,0,0.4677,"[""0.556"",""0.409"",""0.688"",""0.850""]","[0,1,1,1]",0,27,27,27,1,0,1,,,1,FALSE,,,,,,,,,,,,,,,,,,,,,,,,,,,,,,
,,001,2022-04-29_03h14.07.155,classification_task,2021.2.3,Win32,60.0132029,5e5c40b5651391430a31975b,626b377229c10585ec392f8a,626b3b52a84ef0bb1c05e87c,,,,,,,,,,,,,,,,,,,,,,,a,0,0.4241,"[""0.113"",""0.556"",""0.492"",""0.760""]","[1,0,1,1]",0,28,28,28,1,1,0,,,1,FALSE,,,,,,,,,,,,,,,,,,,,,,,,,,,,,,
,,001,2022-04-29_03h14.07.155,classification_task,2021.2.3,Win32,60.0132029,5e5c40b5651391430a31975b,626b377229c10585ec392f8a,626b3b52a84ef0bb1c05e87c,,,,,,,,,,,,,,,,,,,,,,,a,1,0.4499,"[""0.249"",""0.336"",""0.649"",""0.905""]","[1,1,1,0]",0,29,29,29,1,0,0,,,1,FALSE,,,,,,,,,,,,,,,,,,,,,,,,,,,,,,
,,001,2022-04-29_03h14.07.155,classification_task,2021.2.3,Win32,60.0132029,5e5c40b5651391430a31975b,626b377229c10585ec392f8a,626b3b52a84ef0bb1c05e87c,,,,,,,,,,,,,,,,,,,,,,,a,1,0.5747,"[""0.456"",""0.336"",""0.649"",""0.938""]","[0,1,1,1]",0,30,30,30,1,0,0,,,1,FALSE,,,,,,,,,,,,,,,,,,,,,,,,,,,,,,
,,001,2022-04-29_03h14.07.155,classification_task,2021.2.3,Win32,60.0132029,5e5c40b5651391430a31975b,626b377229c10585ec392f8a,626b3b52a84ef0bb1c05e87c,,,,,,,,,,,,,,,,,,,,,,,l,0,0.5077,"[""0.302"",""0.530"",""0.688"",""0.850""]","[1,0,1,1]",0,31,31,31,1,0,1,,,1,FALSE,,,,,,,,,,,,,,,,,,,,,,,,,,,,,,
,,001,2022-04-29_03h14.07.155,classification_task,2021.2.3,Win32,60.0132029,5e5c40b5651391430a31975b,626b377229c10585ec392f8a,626b3b52a84ef0bb1c05e87c,,,,,,,,,,,,,,,,,,,,,,,a,1,0.4672,"[""0.370"",""0.336"",""0.649"",""0.938""]","[0,1,1,1]",0,32,32,32,1,0,0,,,1,FALSE,,,,,,,,,,,,,,,,,,,,,,,,,,,,,,
,,001,2022-04-29_03h14.07.155,classification_task,2021.2.3,Win32,60.0132029,5e5c40b5651391430a31975b,626b377229c10585ec392f8a,626b3b52a84ef0bb1c05e87c,,,,,,,,,,,,,,,,,,,,,,,a,0,0.5799,"[""0.113"",""0.206"",""0.492"",""0.555""]","[1,1,1,0]",0,33,33,33,1,1,0,,,1,FALSE,,,,,,,,,,,,,,,,,,,,,,,,,,,,,,
,,001,2022-04-29_03h14.07.155,classification_task,2021.2.3,Win32,60.0132029,5e5c40b5651391430a31975b,626b377229c10585ec392f8a,626b3b52a84ef0bb1c05e87c,,,,,,,,,,,,,,,,,,,,,,,l,0,0.5128,"[""0.302"",""0.409"",""0.688"",""0.529""]","[1,1,1,0]",0,34,34,34,1,0,1,,,1,FALSE,,,,,,,,,,,,,,,,,,,,,,,,,,,,,,
,,001,2022-04-29_03h14.07.155,classification_task,2021.2.3,Win32,60.0132029,5e5c40b5651391430a31975b,626b377229c10585ec392f8a,626b3b52a84ef0bb1c05e87c,,,,,,,,,,,,,,,,,,,,,,,l,1,0.6114,"[""0.041"",""0.157"",""0.590"",""0.445""]","[1,1,1,0]",0,35,35,35,1,1,1,,,1,FALSE,,,,,,,,,,,,,,,,,,,,,,,,,,,,,,
,,001,2022-04-29_03h14.07.155,classification_task,2021.2.3,Win32,60.0132029,5e5c40b5651391430a31975b,626b377229c10585ec392f8a,626b3b52a84ef0bb1c05e87c,,,,,,,,,,,,,,,,,,,,,,,a,0,0.5434,"[""0.113"",""0.555"",""0.492"",""0.760""]","[1,0,1,1]",0,36,36,36,1,1,0,,,1,FALSE,,,,,,,,,,,,,,,,,,,,,,,,,,,,,,
,,001,2022-04-29_03h14.07.155,classification_task,2021.2.3,Win32,60.0132029,5e5c40b5651391430a31975b,626b377229c10585ec392f8a,626b3b52a84ef0bb1c05e87c,,,,,,,,,,,,,,,,,,,,,,,l,0,0.4842,"[""0.901"",""0.409"",""0.688"",""0.850""]","[0,1,1,1]",0,37,37,37,1,0,1,,,1,FALSE,,,,,,,,,,,,,,,,,,,,,,,,,,,,,,
,,001,2022-04-29_03h14.07.155,classification_task,2021.2.3,Win32,60.0132029,5e5c40b5651391430a31975b,626b377229c10585ec392f8a,626b3b52a84ef0bb1c05e87c,,,,,,,,,,,,,,,,,,,,,,,l,0,0.5261,"[""0.302"",""0.555"",""0.688"",""0.850""]","[1,0,1,1]",0,38,38,38,1,0,1,,,1,FALSE,,,,,,,,,,,,,,,,,,,,,,,,,,,,,,
,,001,2022-04-29_03h14.07.155,classification_task,2021.2.3,Win32,60.0132029,5e5c40b5651391430a31975b,626b377229c10585ec392f8a,626b3b52a84ef0bb1c05e87c,,,,,,,,,,,,,,,,,,,,,,,l,1,0.5807,"[""0.041"",""0.157"",""0.555"",""0.808""]","[1,1,0,1]",0,39,39,39,1,1,1,,,1,FALSE,,,,,,,,,,,,,,,,,,,,,,,,,,,,,,
,,001,2022-04-29_03h14.07.155,classification_task,2021.2.3,Win32,60.0132029,5e5c40b5651391430a31975b,626b377229c10585ec392f8a,626b3b52a84ef0bb1c05e87c,,,,,,,,,,,,,,,,,,,,,,,l,1,0.5113,"[""0.372"",""0.157"",""0.590"",""0.808""]","[0,1,1,1]",0,40,40,40,1,1,1,,,1,FALSE,,,,,,,,,,,,,,,,,,,,,,,,,,,,,,
,,001,2022-04-29_03h14.07.155,classification_task,2021.2.3,Win32,60.0132029,5e5c40b5651391430a31975b,626b377229c10585ec392f8a,626b3b52a84ef0bb1c05e87c,,,,,,,,,,,,,,,,,,,,,,,a,0,0.7443,"[""0.533"",""0.206"",""0.492"",""0.760""]","[0,1,1,1]",0,41,41,41,1,1,0,,,1,FALSE,,,,,,,,,,,,,,,,,,,,,,,,,,,,,,
,,001,2022-04-29_03h14.07.155,classification_task,2021.2.3,Win32,60.0132029,5e5c40b5651391430a31975b,626b377229c10585ec392f8a,626b3b52a84ef0bb1c05e87c,,,,,,,,,,,,,,,,,,,,,,,a,0,0.781,"[""0.113"",""0.206"",""0.533"",""0.760""]","[1,1,0,1]",0,42,42,42,1,1,0,,,1,FALSE,,,,,,,,,,,,,,,,,,,,,,,,,,,,,,
,,001,2022-04-29_03h14.07.155,classification_task,2021.2.3,Win32,60.0132029,5e5c40b5651391430a31975b,626b377229c10585ec392f8a,626b3b52a84ef0bb1c05e87c,,,,,,,,,,,,,,,,,,,,,,,a,1,0.5261,"[""0.249"",""0.336"",""0.533"",""0.938""]","[1,1,0,1]",0,43,43,43,1,0,0,,,1,FALSE,,,,,,,,,,,,,,,,,,,,,,,,,,,,,,
,,001,2022-04-29_03h14.07.155,classification_task,2021.2.3,Win32,60.0132029,5e5c40b5651391430a31975b,626b377229c10585ec392f8a,626b3b52a84ef0bb1c05e87c,,,,,,,,,,,,,,,,,,,,,,,a,1,0.362,"[""0.249"",""0.530"",""0.649"",""0.938""]","[1,0,1,1]",0,44,44,44,1,0,0,,,1,FALSE,,,,,,,,,,,,,,,,,,,,,,,,,,,,,,
,,001,2022-04-29_03h14.07.155,classification_task,2021.2.3,Win32,60.0132029,5e5c40b5651391430a31975b,626b377229c10585ec392f8a,626b3b52a84ef0bb1c05e87c,,,,,,,,,,,,,,,,,,,,,,,a,1,0.4611,"[""0.249"",""0.336"",""0.649"",""0.530""]","[1,1,1,0]",0,45,45,45,1,0,0,,,1,FALSE,,,,,,,,,,,,,,,,,,,,,,,,,,,,,,
,,001,2022-04-29_03h14.07.155,classification_task,2021.2.3,Win32,60.0132029,5e5c40b5651391430a31975b,626b377229c10585ec392f8a,626b3b52a84ef0bb1c05e87c,,,,,,,,,,,,,,,,,,,,,,,l,1,0.5426,"[""0.041"",""0.555"",""0.590"",""0.808""]","[1,0,1,1]",0,46,46,46,1,1,1,,,1,FALSE,,,,,,,,,,,,,,,,,,,,,,,,,,,,,,
,,001,2022-04-29_03h14.07.155,classification_task,2021.2.3,Win32,60.0132029,5e5c40b5651391430a31975b,626b377229c10585ec392f8a,626b3b52a84ef0bb1c05e87c,,,,,,,,,,,,,,,,,,,,,,,l,0,0.4618,"[""0.302"",""0.409"",""0.530"",""0.850""]","[1,1,0,1]",0,47,47,47,1,0,1,,,1,FALSE,,,,,,,,,,,,,,,,,,,,,,,,,,,,,,
,,001,2022-04-29_03h14.07.155,classification_task,2021.2.3,Win32,60.0132029,5e5c40b5651391430a31975b,626b377229c10585ec392f8a,626b3b52a84ef0bb1c05e87c,,,,,,,,,,,,,,,,,,,,,,,a,0,0.5097,"[""0.113"",""0.555"",""0.492"",""0.760""]","[1,0,1,1]",0,48,48,48,1,1,0,,,1,FALSE,,,,,,,,,,,,,,,,,,,,,,,,,,,,,,
,,001,2022-04-29_03h14.07.155,classification_task,2021.2.3,Win32,60.0132029,5e5c40b5651391430a31975b,626b377229c10585ec392f8a,626b3b52a84ef0bb1c05e87c,,,,,,,,,,,,,,,,,,,,,,,a,0,0.3293,"[""0.555"",""0.206"",""0.492"",""0.760""]","[0,1,1,1]",0,49,49,49,1,1,0,,,1,FALSE,,,,,,,,,,,,,,,,,,,,,,,,,,,,,,
,,001,2022-04-29_03h14.07.155,classification_task,2021.2.3,Win32,60.0132029,5e5c40b5651391430a31975b,626b377229c10585ec392f8a,626b3b52a84ef0bb1c05e87c,,,,,,,,,,,,,,,,,,,,,,,a,1,0.4471,"[""0.249"",""0.336"",""0.547"",""0.938""]","[1,1,0,1]",0,50,50,50,1,0,0,,,1,FALSE,,,,,,,,,,,,,,,,,,,,,,,,,,,,,,
,,001,2022-04-29_03h14.07.155,classification_task,2021.2.3,Win32,60.0132029,5e5c40b5651391430a31975b,626b377229c10585ec392f8a,626b3b52a84ef0bb1c05e87c,,,,,,,,,,,,,,,,,,,,,,,l,0,0.4453,"[""0.547"",""0.409"",""0.688"",""0.850""]","[0,1,1,1]",0,51,51,51,1,0,1,,,1,FALSE,,,,,,,,,,,,,,,,,,,,,,,,,,,,,,
,,001,2022-04-29_03h14.07.155,classification_task,2021.2.3,Win32,60.0132029,5e5c40b5651391430a31975b,626b377229c10585ec392f8a,626b3b52a84ef0bb1c05e87c,,,,,,,,,,,,,,,,,,,,,,,l,1,0.5271,"[""0.041"",""0.157"",""0.555"",""0.808""]","[1,1,0,1]",0,52,52,52,1,1,1,,,1,FALSE,,,,,,,,,,,,,,,,,,,,,,,,,,,,,,
,,001,2022-04-29_03h14.07.155,classification_task,2021.2.3,Win32,60.0132029,5e5c40b5651391430a31975b,626b377229c10585ec392f8a,626b3b52a84ef0bb1c05e87c,,,,,,,,,,,,,,,,,,,,,,,l,1,0.4093,"[""0.041"",""0.370"",""0.590"",""0.808""]","[1,0,1,1]",0,53,53,53,1,1,1,,,1,FALSE,,,,,,,,,,,,,,,,,,,,,,,,,,,,,,
,,001,2022-04-29_03h14.07.155,classification_task,2021.2.3,Win32,60.0132029,5e5c40b5651391430a31975b,626b377229c10585ec392f8a,626b3b52a84ef0bb1c05e87c,,,,,,,,,,,,,,,,,,,,,,,a,1,0.6438,"[""0.530"",""0.336"",""0.649"",""0.938""]","[0,1,1,1]",0,54,54,54,1,0,0,,,1,FALSE,,,,,,,,,,,,,,,,,,,,,,,,,,,,,,
,,001,2022-04-29_03h14.07.155,classification_task,2021.2.3,Win32,60.0132029,5e5c40b5651391430a31975b,626b377229c10585ec392f8a,626b3b52a84ef0bb1c05e87c,,,,,,,,,,,,,,,,,,,,,,,a,1,0.411,"[""0.249"",""0.336"",""0.649"",""0.530""]","[1,1,1,0]",0,55,55,55,1,0,0,,,1,FALSE,,,,,,,,,,,,,,,,,,,,,,,,,,,,,,
,,001,2022-04-29_03h14.07.155,classification_task,2021.2.3,Win32,60.0132029,5e5c40b5651391430a31975b,626b377229c10585ec392f8a,626b3b52a84ef0bb1c05e87c,,,,,,,,,,,,,,,,,,,,,,,l,0,0.6251,"[""0.302"",""0.901"",""0.688"",""0.850""]","[1,0,1,1]",0,56,56,56,1,0,1,,,1,FALSE,,,,,,,,,,,,,,,,,,,,,,,,,,,,,,
,,001,2022-04-29_03h14.07.155,classification_task,2021.2.3,Win32,60.0132029,5e5c40b5651391430a31975b,626b377229c10585ec392f8a,626b3b52a84ef0bb1c05e87c,,,,,,,,,,,,,,,,,,,,,,,a,0,0.5273,"[""0.113"",""0.206"",""0.492"",""0.456""]","[1,1,1,0]",0,57,57,57,1,1,0,,,1,FALSE,,,,,,,,,,,,,,,,,,,,,,,,,,,,,,
,,001,2022-04-29_03h14.07.155,classification_task,2021.2.3,Win32,60.0132029,5e5c40b5651391430a31975b,626b377229c10585ec392f8a,626b3b52a84ef0bb1c05e87c,,,,,,,,,,,,,,,,,,,,,,,l,1,0.4745,"[""0.041"",""0.157"",""0.590"",""0.447""]","[1,1,1,0]",0,58,58,58,1,1,1,,,1,FALSE,,,,,,,,,,,,,,,,,,,,,,,,,,,,,,
,,001,2022-04-29_03h14.07.155,classification_task,2021.2.3,Win32,60.0132029,5e5c40b5651391430a31975b,626b377229c10585ec392f8a,626b3b52a84ef0bb1c05e87c,,,,,,,,,,,,,,,,,,,,,,,a,0,0.5123,"[""0.113"",""0.206"",""0.529"",""0.760""]","[1,1,0,1]",0,59,59,59,1,1,0,,,1,FALSE,,,,,,,,,,,,,,,,,,,,,,,,,,,,,,
,,001,2022-04-29_03h14.07.155,classification_task,2021.2.3,Win32,60.0132029,5e5c40b5651391430a31975b,626b377229c10585ec392f8a,626b3b52a84ef0bb1c05e87c,,,,,,,,,,,,,,,,,,,,,,,l,0,0.3643,"[""0.302"",""0.409"",""0.370"",""0.850""]","[1,1,0,1]",0,60,60,60,1,0,1,,,1,FALSE,,,,,,,,,,,,,,,,,,,,,,,,,,,,,,
,,001,2022-04-29_03h14.07.155,classification_task,2021.2.3,Win32,60.0132029,5e5c40b5651391430a31975b,626b377229c10585ec392f8a,626b3b52a84ef0bb1c05e87c,,,,,,,,,,,,,,,,,,,,,,,a,1,0.2727,"[""0.302"",""0.409"",""0.688"",""0.905""]","[1,1,1,0]",0,61,61,61,1,0,1,,,1,FALSE,,,,,,,,,,,,,,,,,,,,,,,,,,,,,,
,,001,2022-04-29_03h14.07.155,classification_task,2021.2.3,Win32,60.0132029,5e5c40b5651391430a31975b,626b377229c10585ec392f8a,626b3b52a84ef0bb1c05e87c,,,,,,,,,,,,,,,,,,,,,,,a,1,0.8949,"[""0.249"",""0.533"",""0.649"",""0.938""]","[1,0,1,1]",0,62,62,62,1,0,0,,,1,FALSE,,,,,,,,,,,,,,,,,,,,,,,,,,,,,,
,,001,2022-04-29_03h14.07.155,classification_task,2021.2.3,Win32,60.0132029,5e5c40b5651391430a31975b,626b377229c10585ec392f8a,626b3b52a84ef0bb1c05e87c,,,,,,,,,,,,,,,,,,,,,,,l,1,0.4441,"[""0.370"",""0.157"",""0.590"",""0.808""]","[0,1,1,1]",0,63,63,63,1,1,1,,,1,FALSE,,,,,,,,,,,,,,,,,,,,,,,,,,,,,,
,,001,2022-04-29_03h14.07.155,classification_task,2021.2.3,Win32,60.0132029,5e5c40b5651391430a31975b,626b377229c10585ec392f8a,626b3b52a84ef0bb1c05e87c,,,,,,,,,,,,,,,,,,,,,,,,,,,,,,,,,,,,,,,0, ,,0,1.423673097,161.1415,0,2,2,2,1,2,3,,,,,,,,,,,,,,,,,
,,001,2022-04-29_03h14.07.155,classification_task,2021.2.3,Win32,60.0132029,5e5c40b5651391430a31975b,626b377229c10585ec392f8a,626b3b52a84ef0bb1c05e87c,,,,,,,,,,,,,,,,,,,,,,,,,,,,,,,,,,,,,,,1,  ,,0,1.497159282,158.2504,0,2,2,2,1,2,3,,,,,,,,,,,,,,,,,
,,001,2022-04-29_03h14.07.155,classification_task,2021.2.3,Win32,60.0132029,5e5c40b5651391430a31975b,626b377229c10585ec392f8a,626b3b52a84ef0bb1c05e87c,,,,,,,,,,,,,,,,,,,,,,,,,,,,,,,,,,,,,,,2,  ,,0,1.521655424,164.3729,0,2,2,2,1,2,3,,,,,,,,,,,,,,,,,
,,001,2022-04-29_03h14.07.155,classification_task,2021.2.3,Win32,60.0132029,5e5c40b5651391430a31975b,626b377229c10585ec392f8a,626b3b52a84ef0bb1c05e87c,,,,,,,,,,,,,,,,,,,,,,,,,,,,,,,,,,,,,,,,,,,,,0,2,2,2,1,,3,,,,,,,,,,,,,,,,,
,,001,2022-04-29_03h14.07.155,classification_task,2021.2.3,Win32,60.0132029,5e5c40b5651391430a31975b,626b377229c10585ec392f8a,626b3b52a84ef0bb1c05e87c,,,,,,,,,,,,,,,,,,,,,,,,,,,,,,,,,,,,,,,,,,,,,,,,,,,,,I believe the aid is a competent performer,,0.7,0,4,1017.1198,0,0,0,0,1,0,,,,
,,001,2022-04-29_03h14.07.155,classification_task,2021.2.3,Win32,60.0132029,5e5c40b5651391430a31975b,626b377229c10585ec392f8a,626b3b52a84ef0bb1c05e87c,,,,,,,,,,,,,,,,,,,,,,,,,,,,,,,,,,,,,,,,,,,,,,,,,,,,,I trust the aid,,0.7,0,4,1023.3684,0,0,0,0,1,0,,,,
,,001,2022-04-29_03h14.07.155,classification_task,2021.2.3,Win32,60.0132029,5e5c40b5651391430a31975b,626b377229c10585ec392f8a,626b3b52a84ef0bb1c05e87c,,,,,,,,,,,,,,,,,,,,,,,,,,,,,,,,,,,,,,,,,,,,,,,,,,,,,I have confidence in the advice given by the aid,,0.7,0,5,1029.4229,0,0,0,0,1,0,,,,
,,001,2022-04-29_03h14.07.155,classification_task,2021.2.3,Win32,60.0132029,5e5c40b5651391430a31975b,626b377229c10585ec392f8a,626b3b52a84ef0bb1c05e87c,,,,,,,,,,,,,,,,,,,,,,,,,,,,,,,,,,,,,,,,,,,,,,,,,,,,,I can depend on the aid,,0.7,0,4,1034.8128,0,0,0,0,1,0,,,,
,,001,2022-04-29_03h14.07.155,classification_task,2021.2.3,Win32,60.0132029,5e5c40b5651391430a31975b,626b377229c10585ec392f8a,626b3b52a84ef0bb1c05e87c,,,,,,,,,,,,,,,,,,,,,,,,,,,,,,,,,,,,,,,,,,,,,,,,,,,,,I can rely on the aid to behave in consistent ways,,0.7,0,4,1042.7231,0,0,0,0,1,0,,,,
,,001,2022-04-29_03h14.07.155,classification_task,2021.2.3,Win32,60.0132029,5e5c40b5651391430a31975b,626b377229c10585ec392f8a,626b3b52a84ef0bb1c05e87c,,,,,,,,,,,,,,,,,,,,,,,,,,,,,,,,,,,,,,,,,,,,,,,,,,,,,I can rely on the aid to do its best every time I take its advice,,0.7,0,4,1049.3831,0,0,0,0,1,0,,,,
,,001,2022-04-29_03h14.07.155,classification_task,2021.2.3,Win32,60.0132029,5e5c40b5651391430a31975b,626b377229c10585ec392f8a,626b3b52a84ef0bb1c05e87c,,,,,,,,,,,,,,,,,,,,,,,,,,,,,,,,,,,,,,,,,,,,,,,,,,,,,"On trials you completed with assistance from the aid, how frequently did you think the aid was correct?",,0.7,0,100%,,0,0,0,0,1,0,,,,
,,001,2022-04-29_03h14.07.155,classification_task,2021.2.3,Win32,60.0132029,5e5c40b5651391430a31975b,626b377229c10585ec392f8a,626b3b52a84ef0bb1c05e87c,,,,,,,,,,,,,,,,,,,,,,,,,,,,,,,,,,,,,,,,,,,,,,,,,,,,,"On trials you completed without the aid, how frequently did you think you were correct?",,0.7,0,40%,,0,0,0,0,1,0,,,,
,,001,2022-04-29_03h14.07.155,classification_task,2021.2.3,Win32,60.0132029,5e5c40b5651391430a31975b,626b377229c10585ec392f8a,626b3b52a84ef0bb1c05e87c,,,,,,,,,,,,,,,,,,,,,,,,,,,,,,,,,,,,,,,,,,,,,,,,,,,,,,,,,,,0,0,0,0,1,,,,,
,,001,2022-04-29_03h14.07.155,classification_task,2021.2.3,Win32,60.0132029,5e5c40b5651391430a31975b,626b377229c10585ec392f8a,626b3b52a84ef0bb1c05e87c,,,,,,,,,,,,,,,,,,,,,,,,,,,,,,,,,,,,,,,,,,,,,,,,,,,,,,,,,,,,,,,,,space,20.3848,1115.6105,
,,001,2022-04-29_03h14.07.155,classification_task,2021.2.3,Win32,60.0132029,5e5c40b5651391430a31975b,626b377229c10585ec392f8a,626b3b52a84ef0bb1c05e87c,,,,,,,,,,,,,,,,,,,,,,,,,,,,,,,,,,,,,,,,,,,,,,,,,,,,,,,,,,,,,,,,,,,,"Mozilla/5.0 (Windows NT 10.0; Win64; x64) AppleWebKit/537.36 (KHTML, like Gecko) Chrome/100.0.4896.127 Safari/537.36"
