usingWebGL,participant,session,date,expName,psychopyVersion,OS,frameRate,PROLIFIC_PID,STUDY_ID,SESSION_ID,signatures_friend,signatures_foe,band_ranges_top,band_ranges_bottom,formitemText,formtype,formundefined,formitemWidth,formindex,formresponse,formrt,key_resp_2.keys,key_resp_2.rt,tute_resp.keys,tute_resp.rt,tutorial.thisRepN,tutorial.thisTrialN,tutorial.thisN,tutorial.thisIndex,tutorial.ran,key_resp_4.keys,key_resp_4.rt,key_resp.keys,key_resp.corr,key_resp.rt,lines_presented,is_signal_presented,trials.thisRepN,trials.thisTrialN,trials.thisN,trials.thisIndex,trials.ran,vessel,active_band,lines,is_signal,supported_pos,catch_trial,debrief_formindex,debrief_formitemText,debrief_formtype,debrief_formitemWidth,debrief_formresponse,debrief_formrt,phases.thisRepN,phases.thisTrialN,phases.thisN,phases.thisIndex,phases.ran,phases.order,phase,key_resp_3.keys,trustitemText,trusttype,trustitemWidth,trustindex,trustresponse,trustrt,support_status.thisRepN,support_status.thisTrialN,support_status.thisN,support_status.thisIndex,support_status.ran,support_status.order,key_resp_5.keys,key_resp_5.rt,globalClockTime,userAgent
TRUE,,001,2022-04-29_03h08.26.155,classification_task,2021.2.3,Win32,71.94244604,5d96a61b5d0f1c00117201bd,626b377229c10585ec392f89,626b3a794d2cebb7e363ff66,,,,,,,,,,,,,,,,,,,,,,,,,,,,,,,,,,,,,,,,,,,,,,,,,,,,,,,,,,,,,,,,,,,,
,,001,2022-04-29_03h08.26.155,classification_task,2021.2.3,Win32,71.94244604,5d96a61b5d0f1c00117201bd,626b377229c10585ec392f89,626b3a794d2cebb7e363ff66,"[[""0.160"",""0.390"",""0.663"",""0.875""],[""0.202"",""0.446"",""0.939"",""0.974""]]","[[""0.070"",""0.350"",""0.610"",""0.752""],[""0.108"",""0.253"",""0.511"",""0.712""]]","[1,10]","[100,1000]",Video game experience,,,0.7,0,,,,,,,,,,,,,,,,,,,,,,,,,,,,,,,,,,,,,,,,,,,,,,,,,,,,,,,,,,,
,,001,2022-04-29_03h08.26.155,classification_task,2021.2.3,Win32,71.94244604,5d96a61b5d0f1c00117201bd,626b377229c10585ec392f89,626b3a794d2cebb7e363ff66,,,,,Approximately how many hours did you spend playing video games in the last week?,,,0.7,0,12,,,,,,,,,,,,,,,,,,,,,,,,,,,,,,,,,,,,,,,,,,,,,,,,,,,,,,,,,,
,,001,2022-04-29_03h08.26.155,classification_task,2021.2.3,Win32,71.94244604,5d96a61b5d0f1c00117201bd,626b377229c10585ec392f89,626b3a794d2cebb7e363ff66,,,,,"Which game did you play the most this year? (Enter ""None"" if you didn't play any)",,,0.7,0,Kingdom Come Deliverance,,,,,,,,,,,,,,,,,,,,,,,,,,,,,,,,,,,,,,,,,,,,,,,,,,,,,,,,,,
,,001,2022-04-29_03h08.26.155,classification_task,2021.2.3,Win32,71.94244604,5d96a61b5d0f1c00117201bd,626b377229c10585ec392f89,626b3a794d2cebb7e363ff66,,,,,Visual perception,,,0.7,0,,,,,,,,,,,,,,,,,,,,,,,,,,,,,,,,,,,,,,,,,,,,,,,,,,,,,,,,,,,
,,001,2022-04-29_03h08.26.155,classification_task,2021.2.3,Win32,71.94244604,5d96a61b5d0f1c00117201bd,626b377229c10585ec392f89,626b3a794d2cebb7e363ff66,,,,,Do you have any form of color blindness?,,,0.7,0,No,22.119,,,,,,,,,,,,,,,,,,,,,,,,,,,,,,,,,,,,,,,,,,,,,,,,,,,,,,,,,
,,001,2022-04-29_03h08.26.155,classification_task,2021.2.3,Win32,71.94244604,5d96a61b5d0f1c00117201bd,626b377229c10585ec392f89,626b3a794d2cebb7e363ff66,,,,,Do you use software to change the colour temperature of your screen (e.g. f.lux)?,,,0.7,0,No,24.542,,,,,,,,,,,,,,,,,,,,,,,,,,,,,,,,,,,,,,,,,,,,,,,,,,,,,,,,,
,,001,2022-04-29_03h08.26.155,classification_task,2021.2.3,Win32,71.94244604,5d96a61b5d0f1c00117201bd,626b377229c10585ec392f89,626b3a794d2cebb7e363ff66,,,,,,,,,,,,space,60.865,space,7.277,0,0,0,0,1,,,,,,,,,,,,,,,,,,,,,,,,,,,,,,,,,,,,,,,,,,,,,,,,
,,001,2022-04-29_03h08.26.155,classification_task,2021.2.3,Win32,71.94244604,5d96a61b5d0f1c00117201bd,626b377229c10585ec392f89,626b3a794d2cebb7e363ff66,,,,,,,,,,,,,,space,6.728,1,0,1,0,1,,,,,,,,,,,,,,,,,,,,,,,,,,,,,,,,,,,,,,,,,,,,,,,,
,,001,2022-04-29_03h08.26.155,classification_task,2021.2.3,Win32,71.94244604,5d96a61b5d0f1c00117201bd,626b377229c10585ec392f89,626b3a794d2cebb7e363ff66,,,,,,,,,,,,,,space,16.395,2,0,2,0,1,,,,,,,,,,,,,,,,,,,,,,,,,,,,,,,,,,,,,,,,,,,,,,,,
,,001,2022-04-29_03h08.26.155,classification_task,2021.2.3,Win32,71.94244604,5d96a61b5d0f1c00117201bd,626b377229c10585ec392f89,626b3a794d2cebb7e363ff66,,,,,,,,,,,,,,space,31.815,3,0,3,0,1,,,,,,,,,,,,,,,,,,,,,,,,,,,,,,,,,,,,,,,,,,,,,,,,
,,001,2022-04-29_03h08.26.155,classification_task,2021.2.3,Win32,71.94244604,5d96a61b5d0f1c00117201bd,626b377229c10585ec392f89,626b3a794d2cebb7e363ff66,,,,,,,,,,,,,,space,6.961,4,0,4,0,1,,,,,,,,,,,,,,,,,,,,,,,,,,,,,,,,,,,,,,,,,,,,,,,,
,,001,2022-04-29_03h08.26.155,classification_task,2021.2.3,Win32,71.94244604,5d96a61b5d0f1c00117201bd,626b377229c10585ec392f89,626b3a794d2cebb7e363ff66,,,,,,,,,,,,,,,,,,,,,space,7.498,l,1,5.822,"[""0.108"",""0.253"",""0.511"",""0.551""]","[1,1,1,0]",0,0,0,0,1,1,1,,,0,FALSE,,,,,,,,,,,,,,,,,,,,,,,,,,,,,,
,,001,2022-04-29_03h08.26.155,classification_task,2021.2.3,Win32,71.94244604,5d96a61b5d0f1c00117201bd,626b377229c10585ec392f89,626b3a794d2cebb7e363ff66,,,,,,,,,,,,,,,,,,,,,,,a,1,6.508,"[""0.160"",""0.390"",""0.663"",""0.299""]","[1,1,1,0]",0,1,1,1,1,0,0,,,0,FALSE,,,,,,,,,,,,,,,,,,,,,,,,,,,,,,
,,001,2022-04-29_03h08.26.155,classification_task,2021.2.3,Win32,71.94244604,5d96a61b5d0f1c00117201bd,626b377229c10585ec392f89,626b3a794d2cebb7e363ff66,,,,,,,,,,,,,,,,,,,,,,,l,1,2.352,"[""0.108"",""0.253"",""0.573"",""0.712""]","[1,1,0,1]",0,2,2,2,1,1,1,,,0,FALSE,,,,,,,,,,,,,,,,,,,,,,,,,,,,,,
,,001,2022-04-29_03h08.26.155,classification_task,2021.2.3,Win32,71.94244604,5d96a61b5d0f1c00117201bd,626b377229c10585ec392f89,626b3a794d2cebb7e363ff66,,,,,,,,,,,,,,,,,,,,,,,a,1,4.379,"[""0.202"",""0.295"",""0.939"",""0.974""]","[1,0,1,1]",0,3,3,3,1,0,1,,,0,FALSE,,,,,,,,,,,,,,,,,,,,,,,,,,,,,,
,,001,2022-04-29_03h08.26.155,classification_task,2021.2.3,Win32,71.94244604,5d96a61b5d0f1c00117201bd,626b377229c10585ec392f89,626b3a794d2cebb7e363ff66,,,,,,,,,,,,,,,,,,,,,,,l,1,4.931,"[""0.108"",""0.031"",""0.511"",""0.712""]","[1,0,1,1]",0,4,4,4,1,1,1,,,0,FALSE,,,,,,,,,,,,,,,,,,,,,,,,,,,,,,
,,001,2022-04-29_03h08.26.155,classification_task,2021.2.3,Win32,71.94244604,5d96a61b5d0f1c00117201bd,626b377229c10585ec392f89,626b3a794d2cebb7e363ff66,,,,,,,,,,,,,,,,,,,,,,,a,0,3.812,"[""0.070"",""0.350"",""0.791"",""0.752""]","[1,1,0,1]",0,5,5,5,1,1,0,,,0,FALSE,,,,,,,,,,,,,,,,,,,,,,,,,,,,,,
,,001,2022-04-29_03h08.26.155,classification_task,2021.2.3,Win32,71.94244604,5d96a61b5d0f1c00117201bd,626b377229c10585ec392f89,626b3a794d2cebb7e363ff66,,,,,,,,,,,,,,,,,,,,,,,a,1,3.291,"[""0.160"",""0.827"",""0.663"",""0.875""]","[1,0,1,1]",0,6,6,6,1,0,0,,,0,FALSE,,,,,,,,,,,,,,,,,,,,,,,,,,,,,,
,,001,2022-04-29_03h08.26.155,classification_task,2021.2.3,Win32,71.94244604,5d96a61b5d0f1c00117201bd,626b377229c10585ec392f89,626b3a794d2cebb7e363ff66,,,,,,,,,,,,,,,,,,,,,,,l,1,2.921,"[""0.070"",""0.350"",""0.610"",""0.821""]","[1,1,1,0]",0,7,7,7,1,1,0,,,0,FALSE,,,,,,,,,,,,,,,,,,,,,,,,,,,,,,
,,001,2022-04-29_03h08.26.155,classification_task,2021.2.3,Win32,71.94244604,5d96a61b5d0f1c00117201bd,626b377229c10585ec392f89,626b3a794d2cebb7e363ff66,,,,,,,,,,,,,,,,,,,,,,,l,0,8.777,"[""0.299"",""0.446"",""0.939"",""0.974""]","[0,1,1,1]",0,8,8,8,1,0,1,,,0,FALSE,,,,,,,,,,,,,,,,,,,,,,,,,,,,,,
,,001,2022-04-29_03h08.26.155,classification_task,2021.2.3,Win32,71.94244604,5d96a61b5d0f1c00117201bd,626b377229c10585ec392f89,626b3a794d2cebb7e363ff66,,,,,,,,,,,,,,,,,,,,,,,,0,,"[""0.295"",""0.350"",""0.610"",""0.752""]","[0,1,1,1]",0,9,9,9,1,1,0,,,0,FALSE,,,,,,,,,,,,,,,,,,,,,,,,,,,,,,
,,001,2022-04-29_03h08.26.155,classification_task,2021.2.3,Win32,71.94244604,5d96a61b5d0f1c00117201bd,626b377229c10585ec392f89,626b3a794d2cebb7e363ff66,,,,,,,,,,,,,,,,,,,,,,,a,1,6.98,"[""0.202"",""0.446"",""0.939"",""0.031""]","[1,1,1,0]",0,10,10,10,1,0,1,,,0,FALSE,,,,,,,,,,,,,,,,,,,,,,,,,,,,,,
,,001,2022-04-29_03h08.26.155,classification_task,2021.2.3,Win32,71.94244604,5d96a61b5d0f1c00117201bd,626b377229c10585ec392f89,626b3a794d2cebb7e363ff66,,,,,,,,,,,,,,,,,,,,,,,l,1,6.109,"[""0.070"",""0.551"",""0.610"",""0.752""]","[1,0,1,1]",0,11,11,11,1,1,0,,,0,FALSE,,,,,,,,,,,,,,,,,,,,,,,,,,,,,,
,,001,2022-04-29_03h08.26.155,classification_task,2021.2.3,Win32,71.94244604,5d96a61b5d0f1c00117201bd,626b377229c10585ec392f89,626b3a794d2cebb7e363ff66,,,,,,,,,,,,,,,,,,,,,,,a,1,2.689,"[""0.202"",""0.446"",""0.821"",""0.974""]","[1,1,0,1]",0,12,12,12,1,0,1,,,0,FALSE,,,,,,,,,,,,,,,,,,,,,,,,,,,,,,
,,001,2022-04-29_03h08.26.155,classification_task,2021.2.3,Win32,71.94244604,5d96a61b5d0f1c00117201bd,626b377229c10585ec392f89,626b3a794d2cebb7e363ff66,,,,,,,,,,,,,,,,,,,,,,,a,1,3.503,"[""0.827"",""0.390"",""0.663"",""0.875""]","[0,1,1,1]",0,13,13,13,1,0,0,,,0,FALSE,,,,,,,,,,,,,,,,,,,,,,,,,,,,,,
,,001,2022-04-29_03h08.26.155,classification_task,2021.2.3,Win32,71.94244604,5d96a61b5d0f1c00117201bd,626b377229c10585ec392f89,626b3a794d2cebb7e363ff66,,,,,,,,,,,,,,,,,,,,,,,l,1,4.84,"[""0.790"",""0.253"",""0.511"",""0.712""]","[0,1,1,1]",0,14,14,14,1,1,1,,,0,FALSE,,,,,,,,,,,,,,,,,,,,,,,,,,,,,,
,,001,2022-04-29_03h08.26.155,classification_task,2021.2.3,Win32,71.94244604,5d96a61b5d0f1c00117201bd,626b377229c10585ec392f89,626b3a794d2cebb7e363ff66,,,,,,,,,,,,,,,,,,,,,,,a,1,4.195,"[""0.160"",""0.390"",""0.568"",""0.875""]","[1,1,0,1]",0,15,15,15,1,0,0,,,0,FALSE,,,,,,,,,,,,,,,,,,,,,,,,,,,,,,
,,001,2022-04-29_03h08.26.155,classification_task,2021.2.3,Win32,71.94244604,5d96a61b5d0f1c00117201bd,626b377229c10585ec392f89,626b3a794d2cebb7e363ff66,,,,,,,,,,,,,,,,,,,,,,,l,1,3.259,"[""0.070"",""0.350"",""0.610"",""0.034""]","[1,1,1,0]",0,16,16,16,1,1,0,,,0,FALSE,,,,,,,,,,,,,,,,,,,,,,,,,,,,,,
,,001,2022-04-29_03h08.26.155,classification_task,2021.2.3,Win32,71.94244604,5d96a61b5d0f1c00117201bd,626b377229c10585ec392f89,626b3a794d2cebb7e363ff66,,,,,,,,,,,,,,,,,,,,,,,a,1,4.132,"[""0.160"",""0.390"",""0.663"",""0.573""]","[1,1,1,0]",0,17,17,17,1,0,0,,,0,FALSE,,,,,,,,,,,,,,,,,,,,,,,,,,,,,,
,,001,2022-04-29_03h08.26.155,classification_task,2021.2.3,Win32,71.94244604,5d96a61b5d0f1c00117201bd,626b377229c10585ec392f89,626b3a794d2cebb7e363ff66,,,,,,,,,,,,,,,,,,,,,,,l,1,5.376,"[""0.573"",""0.350"",""0.610"",""0.752""]","[0,1,1,1]",0,18,18,18,1,1,0,,,0,FALSE,,,,,,,,,,,,,,,,,,,,,,,,,,,,,,
,,001,2022-04-29_03h08.26.155,classification_task,2021.2.3,Win32,71.94244604,5d96a61b5d0f1c00117201bd,626b377229c10585ec392f89,626b3a794d2cebb7e363ff66,,,,,,,,,,,,,,,,,,,,,,,l,1,3.303,"[""0.070"",""0.350"",""0.034"",""0.752""]","[1,1,0,1]",0,19,19,19,1,1,0,,,0,FALSE,,,,,,,,,,,,,,,,,,,,,,,,,,,,,,
,,001,2022-04-29_03h08.26.155,classification_task,2021.2.3,Win32,71.94244604,5d96a61b5d0f1c00117201bd,626b377229c10585ec392f89,626b3a794d2cebb7e363ff66,,,,,,,,,,,,,,,,,,,,,,,a,1,3.288,"[""0.202"",""0.034"",""0.939"",""0.974""]","[1,0,1,1]",0,20,20,20,1,0,1,,,0,FALSE,,,,,,,,,,,,,,,,,,,,,,,,,,,,,,
,,001,2022-04-29_03h08.26.155,classification_task,2021.2.3,Win32,71.94244604,5d96a61b5d0f1c00117201bd,626b377229c10585ec392f89,626b3a794d2cebb7e363ff66,,,,,,,,,,,,,,,,,,,,,,,a,1,3.106,"[""0.160"",""0.031"",""0.663"",""0.875""]","[1,0,1,1]",0,21,21,21,1,0,0,,,0,FALSE,,,,,,,,,,,,,,,,,,,,,,,,,,,,,,
,,001,2022-04-29_03h08.26.155,classification_task,2021.2.3,Win32,71.94244604,5d96a61b5d0f1c00117201bd,626b377229c10585ec392f89,626b3a794d2cebb7e363ff66,,,,,,,,,,,,,,,,,,,,,,,l,1,7.104,"[""0.791"",""0.253"",""0.511"",""0.712""]","[0,1,1,1]",0,22,22,22,1,1,1,,,0,FALSE,,,,,,,,,,,,,,,,,,,,,,,,,,,,,,
,,001,2022-04-29_03h08.26.155,classification_task,2021.2.3,Win32,71.94244604,5d96a61b5d0f1c00117201bd,626b377229c10585ec392f89,626b3a794d2cebb7e363ff66,,,,,,,,,,,,,,,,,,,,,,,l,1,2.722,"[""0.108"",""0.253"",""0.827"",""0.712""]","[1,1,0,1]",0,23,23,23,1,1,1,,,0,FALSE,,,,,,,,,,,,,,,,,,,,,,,,,,,,,,
,,001,2022-04-29_03h08.26.155,classification_task,2021.2.3,Win32,71.94244604,5d96a61b5d0f1c00117201bd,626b377229c10585ec392f89,626b3a794d2cebb7e363ff66,,,,,,,,,,,,,,,,,,,,,,,a,1,1.86,"[""0.573"",""0.446"",""0.939"",""0.974""]","[0,1,1,1]",0,24,24,24,1,0,1,,,0,FALSE,,,,,,,,,,,,,,,,,,,,,,,,,,,,,,
,,001,2022-04-29_03h08.26.155,classification_task,2021.2.3,Win32,71.94244604,5d96a61b5d0f1c00117201bd,626b377229c10585ec392f89,626b3a794d2cebb7e363ff66,,,,,,,,,,,,,,,,,,,,,,,a,1,5.907,"[""0.202"",""0.446"",""0.545"",""0.974""]","[1,1,0,1]",0,25,25,25,1,0,1,,,0,FALSE,,,,,,,,,,,,,,,,,,,,,,,,,,,,,,
,,001,2022-04-29_03h08.26.155,classification_task,2021.2.3,Win32,71.94244604,5d96a61b5d0f1c00117201bd,626b377229c10585ec392f89,626b3a794d2cebb7e363ff66,,,,,,,,,,,,,,,,,,,,,,,a,1,2.7,"[""0.295"",""0.390"",""0.663"",""0.875""]","[0,1,1,1]",0,26,26,26,1,0,0,,,0,FALSE,,,,,,,,,,,,,,,,,,,,,,,,,,,,,,
,,001,2022-04-29_03h08.26.155,classification_task,2021.2.3,Win32,71.94244604,5d96a61b5d0f1c00117201bd,626b377229c10585ec392f89,626b3a794d2cebb7e363ff66,,,,,,,,,,,,,,,,,,,,,,,a,1,1.152,"[""0.160"",""0.390"",""0.545"",""0.875""]","[1,1,0,1]",0,27,27,27,1,0,0,,,0,FALSE,,,,,,,,,,,,,,,,,,,,,,,,,,,,,,
,,001,2022-04-29_03h08.26.155,classification_task,2021.2.3,Win32,71.94244604,5d96a61b5d0f1c00117201bd,626b377229c10585ec392f89,626b3a794d2cebb7e363ff66,,,,,,,,,,,,,,,,,,,,,,,l,1,6.918,"[""0.108"",""0.790"",""0.511"",""0.712""]","[1,0,1,1]",0,28,28,28,1,1,1,,,0,FALSE,,,,,,,,,,,,,,,,,,,,,,,,,,,,,,
,,001,2022-04-29_03h08.26.155,classification_task,2021.2.3,Win32,71.94244604,5d96a61b5d0f1c00117201bd,626b377229c10585ec392f89,626b3a794d2cebb7e363ff66,,,,,,,,,,,,,,,,,,,,,,,l,1,1.768,"[""0.108"",""0.253"",""0.511"",""0.568""]","[1,1,1,0]",0,29,29,29,1,1,1,,,0,FALSE,,,,,,,,,,,,,,,,,,,,,,,,,,,,,,
,,001,2022-04-29_03h08.26.155,classification_task,2021.2.3,Win32,71.94244604,5d96a61b5d0f1c00117201bd,626b377229c10585ec392f89,626b3a794d2cebb7e363ff66,,,,,,,,,,,,,,,,,,,,,,,a,1,4.176,"[""0.202"",""0.446"",""0.939"",""0.573""]","[1,1,1,0]",0,30,30,30,1,0,1,,,0,FALSE,,,,,,,,,,,,,,,,,,,,,,,,,,,,,,
,,001,2022-04-29_03h08.26.155,classification_task,2021.2.3,Win32,71.94244604,5d96a61b5d0f1c00117201bd,626b377229c10585ec392f89,626b3a794d2cebb7e363ff66,,,,,,,,,,,,,,,,,,,,,,,l,1,3.997,"[""0.070"",""0.573"",""0.610"",""0.752""]","[1,0,1,1]",0,31,31,31,1,1,0,,,0,FALSE,,,,,,,,,,,,,,,,,,,,,,,,,,,,,,
,,001,2022-04-29_03h08.26.155,classification_task,2021.2.3,Win32,71.94244604,5d96a61b5d0f1c00117201bd,626b377229c10585ec392f89,626b3a794d2cebb7e363ff66,,,,,,,,,,,,,,,,,,,,,,,a,0,6.37,"[""0.070"",""0.034"",""0.610"",""0.752""]","[1,0,1,1]",0,32,32,32,1,1,0,,,0,FALSE,,,,,,,,,,,,,,,,,,,,,,,,,,,,,,
,,001,2022-04-29_03h08.26.155,classification_task,2021.2.3,Win32,71.94244604,5d96a61b5d0f1c00117201bd,626b377229c10585ec392f89,626b3a794d2cebb7e363ff66,,,,,,,,,,,,,,,,,,,,,,,a,0,2.723,"[""0.108"",""0.253"",""0.511"",""0.790""]","[1,1,1,0]",0,33,33,33,1,1,1,,,0,FALSE,,,,,,,,,,,,,,,,,,,,,,,,,,,,,,
,,001,2022-04-29_03h08.26.155,classification_task,2021.2.3,Win32,71.94244604,5d96a61b5d0f1c00117201bd,626b377229c10585ec392f89,626b3a794d2cebb7e363ff66,,,,,,,,,,,,,,,,,,,,,,,l,1,2.151,"[""0.070"",""0.350"",""0.546"",""0.752""]","[1,1,0,1]",0,34,34,34,1,1,0,,,0,FALSE,,,,,,,,,,,,,,,,,,,,,,,,,,,,,,
,,001,2022-04-29_03h08.26.155,classification_task,2021.2.3,Win32,71.94244604,5d96a61b5d0f1c00117201bd,626b377229c10585ec392f89,626b3a794d2cebb7e363ff66,,,,,,,,,,,,,,,,,,,,,,,l,1,1.367,"[""0.790"",""0.350"",""0.610"",""0.752""]","[0,1,1,1]",0,35,35,35,1,1,0,,,0,FALSE,,,,,,,,,,,,,,,,,,,,,,,,,,,,,,
,,001,2022-04-29_03h08.26.155,classification_task,2021.2.3,Win32,71.94244604,5d96a61b5d0f1c00117201bd,626b377229c10585ec392f89,626b3a794d2cebb7e363ff66,,,,,,,,,,,,,,,,,,,,,,,l,0,1.936,"[""0.202"",""0.821"",""0.939"",""0.974""]","[1,0,1,1]",0,36,36,36,1,0,1,,,0,FALSE,,,,,,,,,,,,,,,,,,,,,,,,,,,,,,
,,001,2022-04-29_03h08.26.155,classification_task,2021.2.3,Win32,71.94244604,5d96a61b5d0f1c00117201bd,626b377229c10585ec392f89,626b3a794d2cebb7e363ff66,,,,,,,,,,,,,,,,,,,,,,,l,1,1.46,"[""0.108"",""0.253"",""0.031"",""0.712""]","[1,1,0,1]",0,37,37,37,1,1,1,,,0,FALSE,,,,,,,,,,,,,,,,,,,,,,,,,,,,,,
,,001,2022-04-29_03h08.26.155,classification_task,2021.2.3,Win32,71.94244604,5d96a61b5d0f1c00117201bd,626b377229c10585ec392f89,626b3a794d2cebb7e363ff66,,,,,,,,,,,,,,,,,,,,,,,l,0,1.307,"[""0.160"",""0.390"",""0.573"",""0.875""]","[1,1,0,1]",0,38,38,38,1,0,0,,,0,FALSE,,,,,,,,,,,,,,,,,,,,,,,,,,,,,,
,,001,2022-04-29_03h08.26.155,classification_task,2021.2.3,Win32,71.94244604,5d96a61b5d0f1c00117201bd,626b377229c10585ec392f89,626b3a794d2cebb7e363ff66,,,,,,,,,,,,,,,,,,,,,,,a,1,1.213,"[""0.202"",""0.446"",""0.827"",""0.974""]","[1,1,0,1]",0,39,39,39,1,0,1,,,0,FALSE,,,,,,,,,,,,,,,,,,,,,,,,,,,,,,
,,001,2022-04-29_03h08.26.155,classification_task,2021.2.3,Win32,71.94244604,5d96a61b5d0f1c00117201bd,626b377229c10585ec392f89,626b3a794d2cebb7e363ff66,,,,,,,,,,,,,,,,,,,,,,,l,0,1.726,"[""0.160"",""0.390"",""0.663"",""0.573""]","[1,1,1,0]",0,40,40,40,1,0,0,,,0,FALSE,,,,,,,,,,,,,,,,,,,,,,,,,,,,,,
,,001,2022-04-29_03h08.26.155,classification_task,2021.2.3,Win32,71.94244604,5d96a61b5d0f1c00117201bd,626b377229c10585ec392f89,626b3a794d2cebb7e363ff66,,,,,,,,,,,,,,,,,,,,,,,a,1,1.107,"[""0.160"",""0.031"",""0.663"",""0.875""]","[1,0,1,1]",0,41,41,41,1,0,0,,,0,FALSE,,,,,,,,,,,,,,,,,,,,,,,,,,,,,,
,,001,2022-04-29_03h08.26.155,classification_task,2021.2.3,Win32,71.94244604,5d96a61b5d0f1c00117201bd,626b377229c10585ec392f89,626b3a794d2cebb7e363ff66,,,,,,,,,,,,,,,,,,,,,,,l,1,1.659,"[""0.108"",""0.546"",""0.511"",""0.712""]","[1,0,1,1]",0,42,42,42,1,1,1,,,0,FALSE,,,,,,,,,,,,,,,,,,,,,,,,,,,,,,
,,001,2022-04-29_03h08.26.155,classification_task,2021.2.3,Win32,71.94244604,5d96a61b5d0f1c00117201bd,626b377229c10585ec392f89,626b3a794d2cebb7e363ff66,,,,,,,,,,,,,,,,,,,,,,,a,1,0.892,"[""0.821"",""0.390"",""0.663"",""0.875""]","[0,1,1,1]",0,43,43,43,1,0,0,,,0,FALSE,,,,,,,,,,,,,,,,,,,,,,,,,,,,,,
,,001,2022-04-29_03h08.26.155,classification_task,2021.2.3,Win32,71.94244604,5d96a61b5d0f1c00117201bd,626b377229c10585ec392f89,626b3a794d2cebb7e363ff66,,,,,,,,,,,,,,,,,,,,,,,l,1,0.957,"[""0.295"",""0.253"",""0.511"",""0.712""]","[0,1,1,1]",0,44,44,44,1,1,1,,,0,FALSE,,,,,,,,,,,,,,,,,,,,,,,,,,,,,,
,,001,2022-04-29_03h08.26.155,classification_task,2021.2.3,Win32,71.94244604,5d96a61b5d0f1c00117201bd,626b377229c10585ec392f89,626b3a794d2cebb7e363ff66,,,,,,,,,,,,,,,,,,,,,,,a,0,1.797,"[""0.070"",""0.350"",""0.610"",""0.790""]","[1,1,1,0]",0,45,45,45,1,1,0,,,0,FALSE,,,,,,,,,,,,,,,,,,,,,,,,,,,,,,
,,001,2022-04-29_03h08.26.155,classification_task,2021.2.3,Win32,71.94244604,5d96a61b5d0f1c00117201bd,626b377229c10585ec392f89,626b3a794d2cebb7e363ff66,,,,,,,,,,,,,,,,,,,,,,,a,1,1.838,"[""0.202"",""0.446"",""0.939"",""0.034""]","[1,1,1,0]",0,46,46,46,1,0,1,,,0,FALSE,,,,,,,,,,,,,,,,,,,,,,,,,,,,,,
,,001,2022-04-29_03h08.26.155,classification_task,2021.2.3,Win32,71.94244604,5d96a61b5d0f1c00117201bd,626b377229c10585ec392f89,626b3a794d2cebb7e363ff66,,,,,,,,,,,,,,,,,,,,,,,a,1,0.753,"[""0.827"",""0.446"",""0.939"",""0.974""]","[0,1,1,1]",0,47,47,47,1,0,1,,,0,FALSE,,,,,,,,,,,,,,,,,,,,,,,,,,,,,,
,,001,2022-04-29_03h08.26.155,classification_task,2021.2.3,Win32,71.94244604,5d96a61b5d0f1c00117201bd,626b377229c10585ec392f89,626b3a794d2cebb7e363ff66,,,,,,,,,,,,,,,,,,,,,,,l,1,0.96,"[""0.108"",""0.253"",""0.511"",""0.546""]","[1,1,1,0]",0,48,48,48,1,1,1,,,0,FALSE,,,,,,,,,,,,,,,,,,,,,,,,,,,,,,
,,001,2022-04-29_03h08.26.155,classification_task,2021.2.3,Win32,71.94244604,5d96a61b5d0f1c00117201bd,626b377229c10585ec392f89,626b3a794d2cebb7e363ff66,,,,,,,,,,,,,,,,,,,,,,,a,1,1.401,"[""0.031"",""0.390"",""0.663"",""0.875""]","[0,1,1,1]",0,49,49,49,1,0,0,,,0,FALSE,,,,,,,,,,,,,,,,,,,,,,,,,,,,,,
,,001,2022-04-29_03h08.26.155,classification_task,2021.2.3,Win32,71.94244604,5d96a61b5d0f1c00117201bd,626b377229c10585ec392f89,626b3a794d2cebb7e363ff66,,,,,,,,,,,,,,,,,,,,,,,a,0,0.984,"[""0.573"",""0.350"",""0.610"",""0.752""]","[0,1,1,1]",0,50,50,50,1,1,0,,,0,FALSE,,,,,,,,,,,,,,,,,,,,,,,,,,,,,,
,,001,2022-04-29_03h08.26.155,classification_task,2021.2.3,Win32,71.94244604,5d96a61b5d0f1c00117201bd,626b377229c10585ec392f89,626b3a794d2cebb7e363ff66,,,,,,,,,,,,,,,,,,,,,,,a,1,0.599,"[""0.299"",""0.446"",""0.939"",""0.974""]","[0,1,1,1]",0,51,51,51,1,0,1,,,0,FALSE,,,,,,,,,,,,,,,,,,,,,,,,,,,,,,
,,001,2022-04-29_03h08.26.155,classification_task,2021.2.3,Win32,71.94244604,5d96a61b5d0f1c00117201bd,626b377229c10585ec392f89,626b3a794d2cebb7e363ff66,,,,,,,,,,,,,,,,,,,,,,,l,1,0.8,"[""0.108"",""0.253"",""0.034"",""0.712""]","[1,1,0,1]",0,52,52,52,1,1,1,,,0,FALSE,,,,,,,,,,,,,,,,,,,,,,,,,,,,,,
,,001,2022-04-29_03h08.26.155,classification_task,2021.2.3,Win32,71.94244604,5d96a61b5d0f1c00117201bd,626b377229c10585ec392f89,626b3a794d2cebb7e363ff66,,,,,,,,,,,,,,,,,,,,,,,l,1,0.884,"[""0.790"",""0.253"",""0.511"",""0.712""]","[0,1,1,1]",0,53,53,53,1,1,1,,,0,FALSE,,,,,,,,,,,,,,,,,,,,,,,,,,,,,,
,,001,2022-04-29_03h08.26.155,classification_task,2021.2.3,Win32,71.94244604,5d96a61b5d0f1c00117201bd,626b377229c10585ec392f89,626b3a794d2cebb7e363ff66,,,,,,,,,,,,,,,,,,,,,,,a,1,0.711,"[""0.202"",""0.446"",""0.939"",""0.791""]","[1,1,1,0]",0,54,54,54,1,0,1,,,0,FALSE,,,,,,,,,,,,,,,,,,,,,,,,,,,,,,
,,001,2022-04-29_03h08.26.155,classification_task,2021.2.3,Win32,71.94244604,5d96a61b5d0f1c00117201bd,626b377229c10585ec392f89,626b3a794d2cebb7e363ff66,,,,,,,,,,,,,,,,,,,,,,,l,0,1.808,"[""0.160"",""0.390"",""0.663"",""0.031""]","[1,1,1,0]",0,55,55,55,1,0,0,,,0,FALSE,,,,,,,,,,,,,,,,,,,,,,,,,,,,,,
,,001,2022-04-29_03h08.26.155,classification_task,2021.2.3,Win32,71.94244604,5d96a61b5d0f1c00117201bd,626b377229c10585ec392f89,626b3a794d2cebb7e363ff66,,,,,,,,,,,,,,,,,,,,,,,l,1,1.17,"[""0.070"",""0.350"",""0.551"",""0.752""]","[1,1,0,1]",0,56,56,56,1,1,0,,,0,FALSE,,,,,,,,,,,,,,,,,,,,,,,,,,,,,,
,,001,2022-04-29_03h08.26.155,classification_task,2021.2.3,Win32,71.94244604,5d96a61b5d0f1c00117201bd,626b377229c10585ec392f89,626b3a794d2cebb7e363ff66,,,,,,,,,,,,,,,,,,,,,,,l,1,1.147,"[""0.108"",""0.299"",""0.511"",""0.712""]","[1,0,1,1]",0,57,57,57,1,1,1,,,0,FALSE,,,,,,,,,,,,,,,,,,,,,,,,,,,,,,
,,001,2022-04-29_03h08.26.155,classification_task,2021.2.3,Win32,71.94244604,5d96a61b5d0f1c00117201bd,626b377229c10585ec392f89,626b3a794d2cebb7e363ff66,,,,,,,,,,,,,,,,,,,,,,,l,1,1,"[""0.070"",""0.295"",""0.610"",""0.752""]","[1,0,1,1]",0,58,58,58,1,1,0,,,0,FALSE,,,,,,,,,,,,,,,,,,,,,,,,,,,,,,
,,001,2022-04-29_03h08.26.155,classification_task,2021.2.3,Win32,71.94244604,5d96a61b5d0f1c00117201bd,626b377229c10585ec392f89,626b3a794d2cebb7e363ff66,,,,,,,,,,,,,,,,,,,,,,,a,1,0.753,"[""0.202"",""0.790"",""0.939"",""0.974""]","[1,0,1,1]",0,59,59,59,1,0,1,,,0,FALSE,,,,,,,,,,,,,,,,,,,,,,,,,,,,,,
,,001,2022-04-29_03h08.26.155,classification_task,2021.2.3,Win32,71.94244604,5d96a61b5d0f1c00117201bd,626b377229c10585ec392f89,626b3a794d2cebb7e363ff66,,,,,,,,,,,,,,,,,,,,,,,l,1,1.23,"[""0.070"",""0.350"",""0.610"",""0.034""]","[1,1,1,0]",0,60,60,60,1,1,0,,,0,FALSE,,,,,,,,,,,,,,,,,,,,,,,,,,,,,,
,,001,2022-04-29_03h08.26.155,classification_task,2021.2.3,Win32,71.94244604,5d96a61b5d0f1c00117201bd,626b377229c10585ec392f89,626b3a794d2cebb7e363ff66,,,,,,,,,,,,,,,,,,,,,,,a,1,0.676,"[""0.160"",""0.821"",""0.663"",""0.875""]","[1,0,1,1]",0,61,61,61,1,0,0,,,0,FALSE,,,,,,,,,,,,,,,,,,,,,,,,,,,,,,
,,001,2022-04-29_03h08.26.155,classification_task,2021.2.3,Win32,71.94244604,5d96a61b5d0f1c00117201bd,626b377229c10585ec392f89,626b3a794d2cebb7e363ff66,,,,,,,,,,,,,,,,,,,,,,,a,1,0.648,"[""0.160"",""0.390"",""0.568"",""0.875""]","[1,1,0,1]",0,62,62,62,1,0,0,,,0,FALSE,,,,,,,,,,,,,,,,,,,,,,,,,,,,,,
,,001,2022-04-29_03h08.26.155,classification_task,2021.2.3,Win32,71.94244604,5d96a61b5d0f1c00117201bd,626b377229c10585ec392f89,626b3a794d2cebb7e363ff66,,,,,,,,,,,,,,,,,,,,,,,a,1,0.579,"[""0.202"",""0.446"",""0.295"",""0.974""]","[1,1,0,1]",0,63,63,63,1,0,1,,,0,FALSE,,,,,,,,,,,,,,,,,,,,,,,,,,,,,,
,,001,2022-04-29_03h08.26.155,classification_task,2021.2.3,Win32,71.94244604,5d96a61b5d0f1c00117201bd,626b377229c10585ec392f89,626b3a794d2cebb7e363ff66,,,,,,,,,,,,,,,,,,,,,,,,,,,,,,,,,,,,,,,0, ,,0,5.514403292,441.978,0,0,0,0,1,2,1,,,,,,,,,,,,,,,,,
,,001,2022-04-29_03h08.26.155,classification_task,2021.2.3,Win32,71.94244604,5d96a61b5d0f1c00117201bd,626b377229c10585ec392f89,626b3a794d2cebb7e363ff66,,,,,,,,,,,,,,,,,,,,,,,,,,,,,,,,,,,,,,,1,  ,,0,5.992063492,438.993,0,0,0,0,1,2,1,,,,,,,,,,,,,,,,,
,,001,2022-04-29_03h08.26.155,classification_task,2021.2.3,Win32,71.94244604,5d96a61b5d0f1c00117201bd,626b377229c10585ec392f89,626b3a794d2cebb7e363ff66,,,,,,,,,,,,,,,,,,,,,,,,,,,,,,,,,,,,,,,2,  ,,0,3.695620223,444.608,0,0,0,0,1,2,1,,,,,,,,,,,,,,,,,
,,001,2022-04-29_03h08.26.155,classification_task,2021.2.3,Win32,71.94244604,5d96a61b5d0f1c00117201bd,626b377229c10585ec392f89,626b3a794d2cebb7e363ff66,,,,,,,,,,,,,,,,,,,,,,,,,,,,,,,,,,,,,,,,,,,,,0,0,0,0,1,,1,,,,,,,,,,,,,,,,,
,,001,2022-04-29_03h08.26.155,classification_task,2021.2.3,Win32,71.94244604,5d96a61b5d0f1c00117201bd,626b377229c10585ec392f89,626b3a794d2cebb7e363ff66,,,,,,,,,,,,,,,,,,,,,space,7.418,a,1,3.998,"[""0.202"",""0.446"",""0.034"",""0.974""]","[1,1,0,1]",0,0,0,0,1,0,1,,,0,FALSE,,,,,,,,,,,,,,,,,,,,,,,,,,,,,,
,,001,2022-04-29_03h08.26.155,classification_task,2021.2.3,Win32,71.94244604,5d96a61b5d0f1c00117201bd,626b377229c10585ec392f89,626b3a794d2cebb7e363ff66,,,,,,,,,,,,,,,,,,,,,,,l,1,1.724,"[""0.573"",""0.350"",""0.610"",""0.752""]","[0,1,1,1]",0,1,1,1,1,1,0,,,0,FALSE,,,,,,,,,,,,,,,,,,,,,,,,,,,,,,
,,001,2022-04-29_03h08.26.155,classification_task,2021.2.3,Win32,71.94244604,5d96a61b5d0f1c00117201bd,626b377229c10585ec392f89,626b3a794d2cebb7e363ff66,,,,,,,,,,,,,,,,,,,,,,,l,1,0.678,"[""0.070"",""0.350"",""0.546"",""0.752""]","[1,1,0,1]",0,2,2,2,1,1,0,,,0,FALSE,,,,,,,,,,,,,,,,,,,,,,,,,,,,,,
,,001,2022-04-29_03h08.26.155,classification_task,2021.2.3,Win32,71.94244604,5d96a61b5d0f1c00117201bd,626b377229c10585ec392f89,626b3a794d2cebb7e363ff66,,,,,,,,,,,,,,,,,,,,,,,a,0,1.277,"[""0.791"",""0.253"",""0.511"",""0.712""]","[0,1,1,1]",0,3,3,3,1,1,1,,,0,FALSE,,,,,,,,,,,,,,,,,,,,,,,,,,,,,,
,,001,2022-04-29_03h08.26.155,classification_task,2021.2.3,Win32,71.94244604,5d96a61b5d0f1c00117201bd,626b377229c10585ec392f89,626b3a794d2cebb7e363ff66,,,,,,,,,,,,,,,,,,,,,,,a,1,0.787,"[""0.202"",""0.446"",""0.939"",""0.790""]","[1,1,1,0]",0,4,4,4,1,0,1,,,0,FALSE,,,,,,,,,,,,,,,,,,,,,,,,,,,,,,
,,001,2022-04-29_03h08.26.155,classification_task,2021.2.3,Win32,71.94244604,5d96a61b5d0f1c00117201bd,626b377229c10585ec392f89,626b3a794d2cebb7e363ff66,,,,,,,,,,,,,,,,,,,,,,,a,1,1.272,"[""0.546"",""0.390"",""0.663"",""0.875""]","[0,1,1,1]",0,5,5,5,1,0,0,,,0,FALSE,,,,,,,,,,,,,,,,,,,,,,,,,,,,,,
,,001,2022-04-29_03h08.26.155,classification_task,2021.2.3,Win32,71.94244604,5d96a61b5d0f1c00117201bd,626b377229c10585ec392f89,626b3a794d2cebb7e363ff66,,,,,,,,,,,,,,,,,,,,,,,a,1,0.696,"[""0.299"",""0.446"",""0.939"",""0.974""]","[0,1,1,1]",0,6,6,6,1,0,1,,,0,FALSE,,,,,,,,,,,,,,,,,,,,,,,,,,,,,,
,,001,2022-04-29_03h08.26.155,classification_task,2021.2.3,Win32,71.94244604,5d96a61b5d0f1c00117201bd,626b377229c10585ec392f89,626b3a794d2cebb7e363ff66,,,,,,,,,,,,,,,,,,,,,,,l,1,1.523,"[""0.108"",""0.253"",""0.790"",""0.712""]","[1,1,0,1]",0,7,7,7,1,1,1,,,0,FALSE,,,,,,,,,,,,,,,,,,,,,,,,,,,,,,
,,001,2022-04-29_03h08.26.155,classification_task,2021.2.3,Win32,71.94244604,5d96a61b5d0f1c00117201bd,626b377229c10585ec392f89,626b3a794d2cebb7e363ff66,,,,,,,,,,,,,,,,,,,,,,,a,0,1.539,"[""0.070"",""0.827"",""0.610"",""0.752""]","[1,0,1,1]",0,8,8,8,1,1,0,,,0,FALSE,,,,,,,,,,,,,,,,,,,,,,,,,,,,,,
,,001,2022-04-29_03h08.26.155,classification_task,2021.2.3,Win32,71.94244604,5d96a61b5d0f1c00117201bd,626b377229c10585ec392f89,626b3a794d2cebb7e363ff66,,,,,,,,,,,,,,,,,,,,,,,l,0,0.815,"[""0.160"",""0.390"",""0.663"",""0.551""]","[1,1,1,0]",0,9,9,9,1,0,0,,,0,FALSE,,,,,,,,,,,,,,,,,,,,,,,,,,,,,,
,,001,2022-04-29_03h08.26.155,classification_task,2021.2.3,Win32,71.94244604,5d96a61b5d0f1c00117201bd,626b377229c10585ec392f89,626b3a794d2cebb7e363ff66,,,,,,,,,,,,,,,,,,,,,,,a,1,0.768,"[""0.202"",""0.790"",""0.939"",""0.974""]","[1,0,1,1]",0,10,10,10,1,0,1,,,0,FALSE,,,,,,,,,,,,,,,,,,,,,,,,,,,,,,
,,001,2022-04-29_03h08.26.155,classification_task,2021.2.3,Win32,71.94244604,5d96a61b5d0f1c00117201bd,626b377229c10585ec392f89,626b3a794d2cebb7e363ff66,,,,,,,,,,,,,,,,,,,,,,,l,1,1.706,"[""0.108"",""0.253"",""0.511"",""0.568""]","[1,1,1,0]",0,11,11,11,1,1,1,,,0,FALSE,,,,,,,,,,,,,,,,,,,,,,,,,,,,,,
,,001,2022-04-29_03h08.26.155,classification_task,2021.2.3,Win32,71.94244604,5d96a61b5d0f1c00117201bd,626b377229c10585ec392f89,626b3a794d2cebb7e363ff66,,,,,,,,,,,,,,,,,,,,,,,a,1,1.154,"[""0.160"",""0.299"",""0.663"",""0.875""]","[1,0,1,1]",0,12,12,12,1,0,0,,,0,FALSE,,,,,,,,,,,,,,,,,,,,,,,,,,,,,,
,,001,2022-04-29_03h08.26.155,classification_task,2021.2.3,Win32,71.94244604,5d96a61b5d0f1c00117201bd,626b377229c10585ec392f89,626b3a794d2cebb7e363ff66,,,,,,,,,,,,,,,,,,,,,,,a,1,0.66,"[""0.160"",""0.390"",""0.031"",""0.875""]","[1,1,0,1]",0,13,13,13,1,0,0,,,0,FALSE,,,,,,,,,,,,,,,,,,,,,,,,,,,,,,
,,001,2022-04-29_03h08.26.155,classification_task,2021.2.3,Win32,71.94244604,5d96a61b5d0f1c00117201bd,626b377229c10585ec392f89,626b3a794d2cebb7e363ff66,,,,,,,,,,,,,,,,,,,,,,,l,1,0.847,"[""0.108"",""0.573"",""0.511"",""0.712""]","[1,0,1,1]",0,14,14,14,1,1,1,,,0,FALSE,,,,,,,,,,,,,,,,,,,,,,,,,,,,,,
,,001,2022-04-29_03h08.26.155,classification_task,2021.2.3,Win32,71.94244604,5d96a61b5d0f1c00117201bd,626b377229c10585ec392f89,626b3a794d2cebb7e363ff66,,,,,,,,,,,,,,,,,,,,,,,l,1,1.216,"[""0.070"",""0.350"",""0.610"",""0.031""]","[1,1,1,0]",0,15,15,15,1,1,0,,,0,FALSE,,,,,,,,,,,,,,,,,,,,,,,,,,,,,,
,,001,2022-04-29_03h08.26.155,classification_task,2021.2.3,Win32,71.94244604,5d96a61b5d0f1c00117201bd,626b377229c10585ec392f89,626b3a794d2cebb7e363ff66,,,,,,,,,,,,,,,,,,,,,,,l,1,0.769,"[""0.070"",""0.350"",""0.610"",""0.295""]","[1,1,1,0]",0,16,16,16,1,1,0,,,0,FALSE,,,,,,,,,,,,,,,,,,,,,,,,,,,,,,
,,001,2022-04-29_03h08.26.155,classification_task,2021.2.3,Win32,71.94244604,5d96a61b5d0f1c00117201bd,626b377229c10585ec392f89,626b3a794d2cebb7e363ff66,,,,,,,,,,,,,,,,,,,,,,,l,0,0.63,"[""0.160"",""0.390"",""0.663"",""0.573""]","[1,1,1,0]",0,17,17,17,1,0,0,,,0,FALSE,,,,,,,,,,,,,,,,,,,,,,,,,,,,,,
,,001,2022-04-29_03h08.26.155,classification_task,2021.2.3,Win32,71.94244604,5d96a61b5d0f1c00117201bd,626b377229c10585ec392f89,626b3a794d2cebb7e363ff66,,,,,,,,,,,,,,,,,,,,,,,a,1,0.721,"[""0.160"",""0.299"",""0.663"",""0.875""]","[1,0,1,1]",0,18,18,18,1,0,0,,,0,FALSE,,,,,,,,,,,,,,,,,,,,,,,,,,,,,,
,,001,2022-04-29_03h08.26.155,classification_task,2021.2.3,Win32,71.94244604,5d96a61b5d0f1c00117201bd,626b377229c10585ec392f89,626b3a794d2cebb7e363ff66,,,,,,,,,,,,,,,,,,,,,,,a,1,0.617,"[""0.160"",""0.390"",""0.031"",""0.875""]","[1,1,0,1]",0,19,19,19,1,0,0,,,0,FALSE,,,,,,,,,,,,,,,,,,,,,,,,,,,,,,
,,001,2022-04-29_03h08.26.155,classification_task,2021.2.3,Win32,71.94244604,5d96a61b5d0f1c00117201bd,626b377229c10585ec392f89,626b3a794d2cebb7e363ff66,,,,,,,,,,,,,,,,,,,,,,,a,0,1.077,"[""0.108"",""0.253"",""0.546"",""0.712""]","[1,1,0,1]",0,20,20,20,1,1,1,,,0,FALSE,,,,,,,,,,,,,,,,,,,,,,,,,,,,,,
,,001,2022-04-29_03h08.26.155,classification_task,2021.2.3,Win32,71.94244604,5d96a61b5d0f1c00117201bd,626b377229c10585ec392f89,626b3a794d2cebb7e363ff66,,,,,,,,,,,,,,,,,,,,,,,l,1,1.737,"[""0.108"",""0.573"",""0.511"",""0.712""]","[1,0,1,1]",0,21,21,21,1,1,1,,,0,FALSE,,,,,,,,,,,,,,,,,,,,,,,,,,,,,,
,,001,2022-04-29_03h08.26.155,classification_task,2021.2.3,Win32,71.94244604,5d96a61b5d0f1c00117201bd,626b377229c10585ec392f89,626b3a794d2cebb7e363ff66,,,,,,,,,,,,,,,,,,,,,,,a,0,0.908,"[""0.031"",""0.350"",""0.610"",""0.752""]","[0,1,1,1]",0,22,22,22,1,1,0,,,0,FALSE,,,,,,,,,,,,,,,,,,,,,,,,,,,,,,
,,001,2022-04-29_03h08.26.155,classification_task,2021.2.3,Win32,71.94244604,5d96a61b5d0f1c00117201bd,626b377229c10585ec392f89,626b3a794d2cebb7e363ff66,,,,,,,,,,,,,,,,,,,,,,,l,0,0.37,"[""0.790"",""0.446"",""0.939"",""0.974""]","[0,1,1,1]",0,23,23,23,1,0,1,,,0,FALSE,,,,,,,,,,,,,,,,,,,,,,,,,,,,,,
,,001,2022-04-29_03h08.26.155,classification_task,2021.2.3,Win32,71.94244604,5d96a61b5d0f1c00117201bd,626b377229c10585ec392f89,626b3a794d2cebb7e363ff66,,,,,,,,,,,,,,,,,,,,,,,a,1,0.679,"[""0.202"",""0.446"",""0.573"",""0.974""]","[1,1,0,1]",0,24,24,24,1,0,1,,,0,FALSE,,,,,,,,,,,,,,,,,,,,,,,,,,,,,,
,,001,2022-04-29_03h08.26.155,classification_task,2021.2.3,Win32,71.94244604,5d96a61b5d0f1c00117201bd,626b377229c10585ec392f89,626b3a794d2cebb7e363ff66,,,,,,,,,,,,,,,,,,,,,,,a,1,0.523,"[""0.202"",""0.573"",""0.939"",""0.974""]","[1,0,1,1]",0,25,25,25,1,0,1,,,0,FALSE,,,,,,,,,,,,,,,,,,,,,,,,,,,,,,
,,001,2022-04-29_03h08.26.155,classification_task,2021.2.3,Win32,71.94244604,5d96a61b5d0f1c00117201bd,626b377229c10585ec392f89,626b3a794d2cebb7e363ff66,,,,,,,,,,,,,,,,,,,,,,,a,0,1,"[""0.070"",""0.827"",""0.610"",""0.752""]","[1,0,1,1]",0,26,26,26,1,1,0,,,0,FALSE,,,,,,,,,,,,,,,,,,,,,,,,,,,,,,
,,001,2022-04-29_03h08.26.155,classification_task,2021.2.3,Win32,71.94244604,5d96a61b5d0f1c00117201bd,626b377229c10585ec392f89,626b3a794d2cebb7e363ff66,,,,,,,,,,,,,,,,,,,,,,,a,1,0.786,"[""0.568"",""0.390"",""0.663"",""0.875""]","[0,1,1,1]",0,27,27,27,1,0,0,,,0,FALSE,,,,,,,,,,,,,,,,,,,,,,,,,,,,,,
,,001,2022-04-29_03h08.26.155,classification_task,2021.2.3,Win32,71.94244604,5d96a61b5d0f1c00117201bd,626b377229c10585ec392f89,626b3a794d2cebb7e363ff66,,,,,,,,,,,,,,,,,,,,,,,l,1,0.677,"[""0.108"",""0.253"",""0.511"",""0.034""]","[1,1,1,0]",0,28,28,28,1,1,1,,,0,FALSE,,,,,,,,,,,,,,,,,,,,,,,,,,,,,,
,,001,2022-04-29_03h08.26.155,classification_task,2021.2.3,Win32,71.94244604,5d96a61b5d0f1c00117201bd,626b377229c10585ec392f89,626b3a794d2cebb7e363ff66,,,,,,,,,,,,,,,,,,,,,,,l,1,1.737,"[""0.070"",""0.350"",""0.545"",""0.752""]","[1,1,0,1]",0,29,29,29,1,1,0,,,0,FALSE,,,,,,,,,,,,,,,,,,,,,,,,,,,,,,
,,001,2022-04-29_03h08.26.155,classification_task,2021.2.3,Win32,71.94244604,5d96a61b5d0f1c00117201bd,626b377229c10585ec392f89,626b3a794d2cebb7e363ff66,,,,,,,,,,,,,,,,,,,,,,,a,1,0.768,"[""0.202"",""0.446"",""0.939"",""0.034""]","[1,1,1,0]",0,30,30,30,1,0,1,,,0,FALSE,,,,,,,,,,,,,,,,,,,,,,,,,,,,,,
,,001,2022-04-29_03h08.26.155,classification_task,2021.2.3,Win32,71.94244604,5d96a61b5d0f1c00117201bd,626b377229c10585ec392f89,626b3a794d2cebb7e363ff66,,,,,,,,,,,,,,,,,,,,,,,l,1,2.768,"[""0.295"",""0.253"",""0.511"",""0.712""]","[0,1,1,1]",0,31,31,31,1,1,1,,,0,FALSE,,,,,,,,,,,,,,,,,,,,,,,,,,,,,,
,,001,2022-04-29_03h08.26.155,classification_task,2021.2.3,Win32,71.94244604,5d96a61b5d0f1c00117201bd,626b377229c10585ec392f89,626b3a794d2cebb7e363ff66,,,,,,,,,,,,,,,,,,,,,,,a,1,0.85,"[""0.202"",""0.546"",""0.939"",""0.974""]","[1,0,1,1]",0,32,32,32,1,0,1,,,0,FALSE,,,,,,,,,,,,,,,,,,,,,,,,,,,,,,
,,001,2022-04-29_03h08.26.155,classification_task,2021.2.3,Win32,71.94244604,5d96a61b5d0f1c00117201bd,626b377229c10585ec392f89,626b3a794d2cebb7e363ff66,,,,,,,,,,,,,,,,,,,,,,,a,1,0.782,"[""0.202"",""0.446"",""0.545"",""0.974""]","[1,1,0,1]",0,33,33,33,1,0,1,,,0,FALSE,,,,,,,,,,,,,,,,,,,,,,,,,,,,,,
,,001,2022-04-29_03h08.26.155,classification_task,2021.2.3,Win32,71.94244604,5d96a61b5d0f1c00117201bd,626b377229c10585ec392f89,626b3a794d2cebb7e363ff66,,,,,,,,,,,,,,,,,,,,,,,a,1,0.937,"[""0.034"",""0.390"",""0.663"",""0.875""]","[0,1,1,1]",0,34,34,34,1,0,0,,,0,FALSE,,,,,,,,,,,,,,,,,,,,,,,,,,,,,,
,,001,2022-04-29_03h08.26.155,classification_task,2021.2.3,Win32,71.94244604,5d96a61b5d0f1c00117201bd,626b377229c10585ec392f89,626b3a794d2cebb7e363ff66,,,,,,,,,,,,,,,,,,,,,,,a,1,0.601,"[""0.160"",""0.573"",""0.663"",""0.875""]","[1,0,1,1]",0,35,35,35,1,0,0,,,0,FALSE,,,,,,,,,,,,,,,,,,,,,,,,,,,,,,
,,001,2022-04-29_03h08.26.155,classification_task,2021.2.3,Win32,71.94244604,5d96a61b5d0f1c00117201bd,626b377229c10585ec392f89,626b3a794d2cebb7e363ff66,,,,,,,,,,,,,,,,,,,,,,,l,1,0.768,"[""0.790"",""0.253"",""0.511"",""0.712""]","[0,1,1,1]",0,36,36,36,1,1,1,,,0,FALSE,,,,,,,,,,,,,,,,,,,,,,,,,,,,,,
,,001,2022-04-29_03h08.26.155,classification_task,2021.2.3,Win32,71.94244604,5d96a61b5d0f1c00117201bd,626b377229c10585ec392f89,626b3a794d2cebb7e363ff66,,,,,,,,,,,,,,,,,,,,,,,l,1,0.754,"[""0.108"",""0.791"",""0.511"",""0.712""]","[1,0,1,1]",0,37,37,37,1,1,1,,,0,FALSE,,,,,,,,,,,,,,,,,,,,,,,,,,,,,,
,,001,2022-04-29_03h08.26.155,classification_task,2021.2.3,Win32,71.94244604,5d96a61b5d0f1c00117201bd,626b377229c10585ec392f89,626b3a794d2cebb7e363ff66,,,,,,,,,,,,,,,,,,,,,,,l,1,0.647,"[""0.108"",""0.253"",""0.551"",""0.712""]","[1,1,0,1]",0,38,38,38,1,1,1,,,0,FALSE,,,,,,,,,,,,,,,,,,,,,,,,,,,,,,
,,001,2022-04-29_03h08.26.155,classification_task,2021.2.3,Win32,71.94244604,5d96a61b5d0f1c00117201bd,626b377229c10585ec392f89,626b3a794d2cebb7e363ff66,,,,,,,,,,,,,,,,,,,,,,,a,1,1.184,"[""0.160"",""0.390"",""0.031"",""0.875""]","[1,1,0,1]",0,39,39,39,1,0,0,,,0,FALSE,,,,,,,,,,,,,,,,,,,,,,,,,,,,,,
,,001,2022-04-29_03h08.26.155,classification_task,2021.2.3,Win32,71.94244604,5d96a61b5d0f1c00117201bd,626b377229c10585ec392f89,626b3a794d2cebb7e363ff66,,,,,,,,,,,,,,,,,,,,,,,a,1,0.583,"[""0.790"",""0.446"",""0.939"",""0.974""]","[0,1,1,1]",0,40,40,40,1,0,1,,,0,FALSE,,,,,,,,,,,,,,,,,,,,,,,,,,,,,,
,,001,2022-04-29_03h08.26.155,classification_task,2021.2.3,Win32,71.94244604,5d96a61b5d0f1c00117201bd,626b377229c10585ec392f89,626b3a794d2cebb7e363ff66,,,,,,,,,,,,,,,,,,,,,,,l,1,1.201,"[""0.070"",""0.350"",""0.827"",""0.752""]","[1,1,0,1]",0,41,41,41,1,1,0,,,0,FALSE,,,,,,,,,,,,,,,,,,,,,,,,,,,,,,
,,001,2022-04-29_03h08.26.155,classification_task,2021.2.3,Win32,71.94244604,5d96a61b5d0f1c00117201bd,626b377229c10585ec392f89,626b3a794d2cebb7e363ff66,,,,,,,,,,,,,,,,,,,,,,,l,1,0.876,"[""0.070"",""0.350"",""0.610"",""0.551""]","[1,1,1,0]",0,42,42,42,1,1,0,,,0,FALSE,,,,,,,,,,,,,,,,,,,,,,,,,,,,,,
,,001,2022-04-29_03h08.26.155,classification_task,2021.2.3,Win32,71.94244604,5d96a61b5d0f1c00117201bd,626b377229c10585ec392f89,626b3a794d2cebb7e363ff66,,,,,,,,,,,,,,,,,,,,,,,l,1,1.262,"[""0.295"",""0.350"",""0.610"",""0.752""]","[0,1,1,1]",0,43,43,43,1,1,0,,,0,FALSE,,,,,,,,,,,,,,,,,,,,,,,,,,,,,,
,,001,2022-04-29_03h08.26.155,classification_task,2021.2.3,Win32,71.94244604,5d96a61b5d0f1c00117201bd,626b377229c10585ec392f89,626b3a794d2cebb7e363ff66,,,,,,,,,,,,,,,,,,,,,,,l,1,0.644,"[""0.070"",""0.568"",""0.610"",""0.752""]","[1,0,1,1]",0,44,44,44,1,1,0,,,0,FALSE,,,,,,,,,,,,,,,,,,,,,,,,,,,,,,
,,001,2022-04-29_03h08.26.155,classification_task,2021.2.3,Win32,71.94244604,5d96a61b5d0f1c00117201bd,626b377229c10585ec392f89,626b3a794d2cebb7e363ff66,,,,,,,,,,,,,,,,,,,,,,,l,1,0.694,"[""0.108"",""0.253"",""0.511"",""0.034""]","[1,1,1,0]",0,45,45,45,1,1,1,,,0,FALSE,,,,,,,,,,,,,,,,,,,,,,,,,,,,,,
,,001,2022-04-29_03h08.26.155,classification_task,2021.2.3,Win32,71.94244604,5d96a61b5d0f1c00117201bd,626b377229c10585ec392f89,626b3a794d2cebb7e363ff66,,,,,,,,,,,,,,,,,,,,,,,l,0,0.632,"[""0.160"",""0.390"",""0.663"",""0.551""]","[1,1,1,0]",0,46,46,46,1,0,0,,,0,FALSE,,,,,,,,,,,,,,,,,,,,,,,,,,,,,,
,,001,2022-04-29_03h08.26.155,classification_task,2021.2.3,Win32,71.94244604,5d96a61b5d0f1c00117201bd,626b377229c10585ec392f89,626b3a794d2cebb7e363ff66,,,,,,,,,,,,,,,,,,,,,,,a,1,0.523,"[""0.202"",""0.446"",""0.939"",""0.546""]","[1,1,1,0]",0,47,47,47,1,0,1,,,0,FALSE,,,,,,,,,,,,,,,,,,,,,,,,,,,,,,
,,001,2022-04-29_03h08.26.155,classification_task,2021.2.3,Win32,71.94244604,5d96a61b5d0f1c00117201bd,626b377229c10585ec392f89,626b3a794d2cebb7e363ff66,,,,,,,,,,,,,,,,,,,,,,,a,1,2.321,"[""0.160"",""0.390"",""0.663"",""0.551""]","[1,1,1,0]",0,48,48,48,1,0,0,,,0,FALSE,,,,,,,,,,,,,,,,,,,,,,,,,,,,,,
,,001,2022-04-29_03h08.26.155,classification_task,2021.2.3,Win32,71.94244604,5d96a61b5d0f1c00117201bd,626b377229c10585ec392f89,626b3a794d2cebb7e363ff66,,,,,,,,,,,,,,,,,,,,,,,l,1,1.369,"[""0.108"",""0.034"",""0.511"",""0.712""]","[1,0,1,1]",0,49,49,49,1,1,1,,,0,FALSE,,,,,,,,,,,,,,,,,,,,,,,,,,,,,,
,,001,2022-04-29_03h08.26.155,classification_task,2021.2.3,Win32,71.94244604,5d96a61b5d0f1c00117201bd,626b377229c10585ec392f89,626b3a794d2cebb7e363ff66,,,,,,,,,,,,,,,,,,,,,,,l,1,0.939,"[""0.108"",""0.253"",""0.511"",""0.546""]","[1,1,1,0]",0,50,50,50,1,1,1,,,0,FALSE,,,,,,,,,,,,,,,,,,,,,,,,,,,,,,
,,001,2022-04-29_03h08.26.155,classification_task,2021.2.3,Win32,71.94244604,5d96a61b5d0f1c00117201bd,626b377229c10585ec392f89,626b3a794d2cebb7e363ff66,,,,,,,,,,,,,,,,,,,,,,,a,1,0.815,"[""0.568"",""0.446"",""0.939"",""0.974""]","[0,1,1,1]",0,51,51,51,1,0,1,,,0,FALSE,,,,,,,,,,,,,,,,,,,,,,,,,,,,,,
,,001,2022-04-29_03h08.26.155,classification_task,2021.2.3,Win32,71.94244604,5d96a61b5d0f1c00117201bd,626b377229c10585ec392f89,626b3a794d2cebb7e363ff66,,,,,,,,,,,,,,,,,,,,,,,l,1,2.339,"[""0.108"",""0.253"",""0.827"",""0.712""]","[1,1,0,1]",0,52,52,52,1,1,1,,,0,FALSE,,,,,,,,,,,,,,,,,,,,,,,,,,,,,,
,,001,2022-04-29_03h08.26.155,classification_task,2021.2.3,Win32,71.94244604,5d96a61b5d0f1c00117201bd,626b377229c10585ec392f89,626b3a794d2cebb7e363ff66,,,,,,,,,,,,,,,,,,,,,,,a,1,0.693,"[""0.202"",""0.446"",""0.939"",""0.791""]","[1,1,1,0]",0,53,53,53,1,0,1,,,0,FALSE,,,,,,,,,,,,,,,,,,,,,,,,,,,,,,
,,001,2022-04-29_03h08.26.155,classification_task,2021.2.3,Win32,71.94244604,5d96a61b5d0f1c00117201bd,626b377229c10585ec392f89,626b3a794d2cebb7e363ff66,,,,,,,,,,,,,,,,,,,,,,,l,1,3.087,"[""0.070"",""0.821"",""0.610"",""0.752""]","[1,0,1,1]",0,54,54,54,1,1,0,,,0,FALSE,,,,,,,,,,,,,,,,,,,,,,,,,,,,,,
,,001,2022-04-29_03h08.26.155,classification_task,2021.2.3,Win32,71.94244604,5d96a61b5d0f1c00117201bd,626b377229c10585ec392f89,626b3a794d2cebb7e363ff66,,,,,,,,,,,,,,,,,,,,,,,l,0,1.982,"[""0.160"",""0.034"",""0.663"",""0.875""]","[1,0,1,1]",0,55,55,55,1,0,0,,,0,FALSE,,,,,,,,,,,,,,,,,,,,,,,,,,,,,,
,,001,2022-04-29_03h08.26.155,classification_task,2021.2.3,Win32,71.94244604,5d96a61b5d0f1c00117201bd,626b377229c10585ec392f89,626b3a794d2cebb7e363ff66,,,,,,,,,,,,,,,,,,,,,,,a,0,1.615,"[""0.031"",""0.350"",""0.610"",""0.752""]","[0,1,1,1]",0,56,56,56,1,1,0,,,0,FALSE,,,,,,,,,,,,,,,,,,,,,,,,,,,,,,
,,001,2022-04-29_03h08.26.155,classification_task,2021.2.3,Win32,71.94244604,5d96a61b5d0f1c00117201bd,626b377229c10585ec392f89,626b3a794d2cebb7e363ff66,,,,,,,,,,,,,,,,,,,,,,,a,1,0.601,"[""0.202"",""0.446"",""0.031"",""0.974""]","[1,1,0,1]",0,57,57,57,1,0,1,,,0,FALSE,,,,,,,,,,,,,,,,,,,,,,,,,,,,,,
,,001,2022-04-29_03h08.26.155,classification_task,2021.2.3,Win32,71.94244604,5d96a61b5d0f1c00117201bd,626b377229c10585ec392f89,626b3a794d2cebb7e363ff66,,,,,,,,,,,,,,,,,,,,,,,a,1,1.37,"[""0.573"",""0.390"",""0.663"",""0.875""]","[0,1,1,1]",0,58,58,58,1,0,0,,,0,FALSE,,,,,,,,,,,,,,,,,,,,,,,,,,,,,,
,,001,2022-04-29_03h08.26.155,classification_task,2021.2.3,Win32,71.94244604,5d96a61b5d0f1c00117201bd,626b377229c10585ec392f89,626b3a794d2cebb7e363ff66,,,,,,,,,,,,,,,,,,,,,,,a,1,0.738,"[""0.202"",""0.568"",""0.939"",""0.974""]","[1,0,1,1]",0,59,59,59,1,0,1,,,0,FALSE,,,,,,,,,,,,,,,,,,,,,,,,,,,,,,
,,001,2022-04-29_03h08.26.155,classification_task,2021.2.3,Win32,71.94244604,5d96a61b5d0f1c00117201bd,626b377229c10585ec392f89,626b3a794d2cebb7e363ff66,,,,,,,,,,,,,,,,,,,,,,,a,1,0.753,"[""0.160"",""0.390"",""0.031"",""0.875""]","[1,1,0,1]",0,60,60,60,1,0,0,,,0,FALSE,,,,,,,,,,,,,,,,,,,,,,,,,,,,,,
,,001,2022-04-29_03h08.26.155,classification_task,2021.2.3,Win32,71.94244604,5d96a61b5d0f1c00117201bd,626b377229c10585ec392f89,626b3a794d2cebb7e363ff66,,,,,,,,,,,,,,,,,,,,,,,l,1,0.936,"[""0.070"",""0.350"",""0.610"",""0.034""]","[1,1,1,0]",0,61,61,61,1,1,0,,,0,FALSE,,,,,,,,,,,,,,,,,,,,,,,,,,,,,,
,,001,2022-04-29_03h08.26.155,classification_task,2021.2.3,Win32,71.94244604,5d96a61b5d0f1c00117201bd,626b377229c10585ec392f89,626b3a794d2cebb7e363ff66,,,,,,,,,,,,,,,,,,,,,,,l,1,0.877,"[""0.573"",""0.253"",""0.511"",""0.712""]","[0,1,1,1]",0,62,62,62,1,1,1,,,0,FALSE,,,,,,,,,,,,,,,,,,,,,,,,,,,,,,
,,001,2022-04-29_03h08.26.155,classification_task,2021.2.3,Win32,71.94244604,5d96a61b5d0f1c00117201bd,626b377229c10585ec392f89,626b3a794d2cebb7e363ff66,,,,,,,,,,,,,,,,,,,,,,,a,0,0.783,"[""0.070"",""0.350"",""0.791"",""0.752""]","[1,1,0,1]",0,63,63,63,1,1,0,,,0,FALSE,,,,,,,,,,,,,,,,,,,,,,,,,,,,,,
,,001,2022-04-29_03h08.26.155,classification_task,2021.2.3,Win32,71.94244604,5d96a61b5d0f1c00117201bd,626b377229c10585ec392f89,626b3a794d2cebb7e363ff66,,,,,,,,,,,,,,,,,,,,,,,,,,,,,,,,,,,,,,,0, ,,0,3.456790123,149.291,0,1,1,1,1,2,2,,,,,,,,,,,,,,,,,
,,001,2022-04-29_03h08.26.155,classification_task,2021.2.3,Win32,71.94244604,5d96a61b5d0f1c00117201bd,626b377229c10585ec392f89,626b3a794d2cebb7e363ff66,,,,,,,,,,,,,,,,,,,,,,,,,,,,,,,,,,,,,,,1,  ,,0,6.616696061,151.548,0,1,1,1,1,2,2,,,,,,,,,,,,,,,,,
,,001,2022-04-29_03h08.26.155,classification_task,2021.2.3,Win32,71.94244604,5d96a61b5d0f1c00117201bd,626b377229c10585ec392f89,626b3a794d2cebb7e363ff66,,,,,,,,,,,,,,,,,,,,,,,,,,,,,,,,,,,,,,,2,  ,,0,3.5670194,152.947,0,1,1,1,1,2,2,,,,,,,,,,,,,,,,,
,,001,2022-04-29_03h08.26.155,classification_task,2021.2.3,Win32,71.94244604,5d96a61b5d0f1c00117201bd,626b377229c10585ec392f89,626b3a794d2cebb7e363ff66,,,,,,,,,,,,,,,,,,,,,,,,,,,,,,,,,,,,,,,,,,,,,0,1,1,1,1,,2,,,,,,,,,,,,,,,,,
,,001,2022-04-29_03h08.26.155,classification_task,2021.2.3,Win32,71.94244604,5d96a61b5d0f1c00117201bd,626b377229c10585ec392f89,626b3a794d2cebb7e363ff66,,,,,,,,,,,,,,,,,,,,,space,5.729,a,1,3.289,"[""0.160"",""0.390"",""0.663"",""0.031""]","[1,1,1,0]",0,0,0,0,1,0,0,,,0,FALSE,,,,,,,,,,,,,,,,,,,,,,,,,,,,,,
,,001,2022-04-29_03h08.26.155,classification_task,2021.2.3,Win32,71.94244604,5d96a61b5d0f1c00117201bd,626b377229c10585ec392f89,626b3a794d2cebb7e363ff66,,,,,,,,,,,,,,,,,,,,,,,l,1,3.332,"[""0.070"",""0.545"",""0.610"",""0.752""]","[1,0,1,1]",0,1,1,1,1,1,0,,,0,FALSE,,,,,,,,,,,,,,,,,,,,,,,,,,,,,,
,,001,2022-04-29_03h08.26.155,classification_task,2021.2.3,Win32,71.94244604,5d96a61b5d0f1c00117201bd,626b377229c10585ec392f89,626b3a794d2cebb7e363ff66,,,,,,,,,,,,,,,,,,,,,,,a,1,0.508,"[""0.031"",""0.446"",""0.939"",""0.974""]","[0,1,1,1]",0,2,2,2,1,0,1,,,0,FALSE,,,,,,,,,,,,,,,,,,,,,,,,,,,,,,
,,001,2022-04-29_03h08.26.155,classification_task,2021.2.3,Win32,71.94244604,5d96a61b5d0f1c00117201bd,626b377229c10585ec392f89,626b3a794d2cebb7e363ff66,,,,,,,,,,,,,,,,,,,,,,,a,1,0.951,"[""0.202"",""0.446"",""0.939"",""0.034""]","[1,1,1,0]",0,3,3,3,1,0,1,,,0,FALSE,,,,,,,,,,,,,,,,,,,,,,,,,,,,,,
,,001,2022-04-29_03h08.26.155,classification_task,2021.2.3,Win32,71.94244604,5d96a61b5d0f1c00117201bd,626b377229c10585ec392f89,626b3a794d2cebb7e363ff66,,,,,,,,,,,,,,,,,,,,,,,a,1,2.487,"[""0.160"",""0.295"",""0.663"",""0.875""]","[1,0,1,1]",0,4,4,4,1,0,0,,,0,FALSE,,,,,,,,,,,,,,,,,,,,,,,,,,,,,,
,,001,2022-04-29_03h08.26.155,classification_task,2021.2.3,Win32,71.94244604,5d96a61b5d0f1c00117201bd,626b377229c10585ec392f89,626b3a794d2cebb7e363ff66,,,,,,,,,,,,,,,,,,,,,,,a,1,1.077,"[""0.202"",""0.821"",""0.939"",""0.974""]","[1,0,1,1]",0,5,5,5,1,0,1,,,0,FALSE,,,,,,,,,,,,,,,,,,,,,,,,,,,,,,
,,001,2022-04-29_03h08.26.155,classification_task,2021.2.3,Win32,71.94244604,5d96a61b5d0f1c00117201bd,626b377229c10585ec392f89,626b3a794d2cebb7e363ff66,,,,,,,,,,,,,,,,,,,,,,,l,1,1.23,"[""0.108"",""0.253"",""0.790"",""0.712""]","[1,1,0,1]",0,6,6,6,1,1,1,,,0,FALSE,,,,,,,,,,,,,,,,,,,,,,,,,,,,,,
,,001,2022-04-29_03h08.26.155,classification_task,2021.2.3,Win32,71.94244604,5d96a61b5d0f1c00117201bd,626b377229c10585ec392f89,626b3a794d2cebb7e363ff66,,,,,,,,,,,,,,,,,,,,,,,a,0,1.765,"[""0.070"",""0.350"",""0.791"",""0.752""]","[1,1,0,1]",0,7,7,7,1,1,0,,,0,FALSE,,,,,,,,,,,,,,,,,,,,,,,,,,,,,,
,,001,2022-04-29_03h08.26.155,classification_task,2021.2.3,Win32,71.94244604,5d96a61b5d0f1c00117201bd,626b377229c10585ec392f89,626b3a794d2cebb7e363ff66,,,,,,,,,,,,,,,,,,,,,,,l,1,2.35,"[""0.108"",""0.031"",""0.511"",""0.712""]","[1,0,1,1]",0,8,8,8,1,1,1,,,0,FALSE,,,,,,,,,,,,,,,,,,,,,,,,,,,,,,
,,001,2022-04-29_03h08.26.155,classification_task,2021.2.3,Win32,71.94244604,5d96a61b5d0f1c00117201bd,626b377229c10585ec392f89,626b3a794d2cebb7e363ff66,,,,,,,,,,,,,,,,,,,,,,,l,1,0.969,"[""0.108"",""0.253"",""0.511"",""0.573""]","[1,1,1,0]",0,9,9,9,1,1,1,,,0,FALSE,,,,,,,,,,,,,,,,,,,,,,,,,,,,,,
,,001,2022-04-29_03h08.26.155,classification_task,2021.2.3,Win32,71.94244604,5d96a61b5d0f1c00117201bd,626b377229c10585ec392f89,626b3a794d2cebb7e363ff66,,,,,,,,,,,,,,,,,,,,,,,l,1,1.259,"[""0.034"",""0.350"",""0.610"",""0.752""]","[0,1,1,1]",0,10,10,10,1,1,0,,,0,FALSE,,,,,,,,,,,,,,,,,,,,,,,,,,,,,,
,,001,2022-04-29_03h08.26.155,classification_task,2021.2.3,Win32,71.94244604,5d96a61b5d0f1c00117201bd,626b377229c10585ec392f89,626b3a794d2cebb7e363ff66,,,,,,,,,,,,,,,,,,,,,,,l,1,1.168,"[""0.573"",""0.253"",""0.511"",""0.712""]","[0,1,1,1]",0,11,11,11,1,1,1,,,0,FALSE,,,,,,,,,,,,,,,,,,,,,,,,,,,,,,
,,001,2022-04-29_03h08.26.155,classification_task,2021.2.3,Win32,71.94244604,5d96a61b5d0f1c00117201bd,626b377229c10585ec392f89,626b3a794d2cebb7e363ff66,,,,,,,,,,,,,,,,,,,,,,,l,1,0.801,"[""0.070"",""0.350"",""0.610"",""0.031""]","[1,1,1,0]",0,12,12,12,1,1,0,,,0,FALSE,,,,,,,,,,,,,,,,,,,,,,,,,,,,,,
,,001,2022-04-29_03h08.26.155,classification_task,2021.2.3,Win32,71.94244604,5d96a61b5d0f1c00117201bd,626b377229c10585ec392f89,626b3a794d2cebb7e363ff66,,,,,,,,,,,,,,,,,,,,,,,a,1,1.999,"[""0.160"",""0.390"",""0.031"",""0.875""]","[1,1,0,1]",0,13,13,13,1,0,0,,,0,FALSE,,,,,,,,,,,,,,,,,,,,,,,,,,,,,,
,,001,2022-04-29_03h08.26.155,classification_task,2021.2.3,Win32,71.94244604,5d96a61b5d0f1c00117201bd,626b377229c10585ec392f89,626b3a794d2cebb7e363ff66,,,,,,,,,,,,,,,,,,,,,,,a,1,0.646,"[""0.202"",""0.446"",""0.573"",""0.974""]","[1,1,0,1]",0,14,14,14,1,0,1,,,0,FALSE,,,,,,,,,,,,,,,,,,,,,,,,,,,,,,
,,001,2022-04-29_03h08.26.155,classification_task,2021.2.3,Win32,71.94244604,5d96a61b5d0f1c00117201bd,626b377229c10585ec392f89,626b3a794d2cebb7e363ff66,,,,,,,,,,,,,,,,,,,,,,,l,0,2.09,"[""0.031"",""0.390"",""0.663"",""0.875""]","[0,1,1,1]",0,15,15,15,1,0,0,,,0,FALSE,,,,,,,,,,,,,,,,,,,,,,,,,,,,,,
,,001,2022-04-29_03h08.26.155,classification_task,2021.2.3,Win32,71.94244604,5d96a61b5d0f1c00117201bd,626b377229c10585ec392f89,626b3a794d2cebb7e363ff66,,,,,,,,,,,,,,,,,,,,,,,a,1,1.818,"[""0.160"",""0.390"",""0.790"",""0.875""]","[1,1,0,1]",0,16,16,16,1,0,0,,,0,FALSE,,,,,,,,,,,,,,,,,,,,,,,,,,,,,,
,,001,2022-04-29_03h08.26.155,classification_task,2021.2.3,Win32,71.94244604,5d96a61b5d0f1c00117201bd,626b377229c10585ec392f89,626b3a794d2cebb7e363ff66,,,,,,,,,,,,,,,,,,,,,,,l,1,1.107,"[""0.070"",""0.034"",""0.610"",""0.752""]","[1,0,1,1]",0,17,17,17,1,1,0,,,0,FALSE,,,,,,,,,,,,,,,,,,,,,,,,,,,,,,
,,001,2022-04-29_03h08.26.155,classification_task,2021.2.3,Win32,71.94244604,5d96a61b5d0f1c00117201bd,626b377229c10585ec392f89,626b3a794d2cebb7e363ff66,,,,,,,,,,,,,,,,,,,,,,,l,1,3.406,"[""0.031"",""0.350"",""0.610"",""0.752""]","[0,1,1,1]",0,18,18,18,1,1,0,,,0,FALSE,,,,,,,,,,,,,,,,,,,,,,,,,,,,,,
,,001,2022-04-29_03h08.26.155,classification_task,2021.2.3,Win32,71.94244604,5d96a61b5d0f1c00117201bd,626b377229c10585ec392f89,626b3a794d2cebb7e363ff66,,,,,,,,,,,,,,,,,,,,,,,l,1,2.504,"[""0.108"",""0.253"",""0.034"",""0.712""]","[1,1,0,1]",0,19,19,19,1,1,1,,,0,FALSE,,,,,,,,,,,,,,,,,,,,,,,,,,,,,,
,,001,2022-04-29_03h08.26.155,classification_task,2021.2.3,Win32,71.94244604,5d96a61b5d0f1c00117201bd,626b377229c10585ec392f89,626b3a794d2cebb7e363ff66,,,,,,,,,,,,,,,,,,,,,,,l,1,1.092,"[""0.070"",""0.350"",""0.034"",""0.752""]","[1,1,0,1]",0,20,20,20,1,1,0,,,0,FALSE,,,,,,,,,,,,,,,,,,,,,,,,,,,,,,
,,001,2022-04-29_03h08.26.155,classification_task,2021.2.3,Win32,71.94244604,5d96a61b5d0f1c00117201bd,626b377229c10585ec392f89,626b3a794d2cebb7e363ff66,,,,,,,,,,,,,,,,,,,,,,,a,1,0.417,"[""0.202"",""0.446"",""0.573"",""0.974""]","[1,1,0,1]",0,21,21,21,1,0,1,,,0,FALSE,,,,,,,,,,,,,,,,,,,,,,,,,,,,,,
,,001,2022-04-29_03h08.26.155,classification_task,2021.2.3,Win32,71.94244604,5d96a61b5d0f1c00117201bd,626b377229c10585ec392f89,626b3a794d2cebb7e363ff66,,,,,,,,,,,,,,,,,,,,,,,l,0,1.075,"[""0.160"",""0.390"",""0.663"",""0.827""]","[1,1,1,0]",0,22,22,22,1,0,0,,,0,FALSE,,,,,,,,,,,,,,,,,,,,,,,,,,,,,,
,,001,2022-04-29_03h08.26.155,classification_task,2021.2.3,Win32,71.94244604,5d96a61b5d0f1c00117201bd,626b377229c10585ec392f89,626b3a794d2cebb7e363ff66,,,,,,,,,,,,,,,,,,,,,,,a,1,1.323,"[""0.160"",""0.299"",""0.663"",""0.875""]","[1,0,1,1]",0,23,23,23,1,0,0,,,0,FALSE,,,,,,,,,,,,,,,,,,,,,,,,,,,,,,
,,001,2022-04-29_03h08.26.155,classification_task,2021.2.3,Win32,71.94244604,5d96a61b5d0f1c00117201bd,626b377229c10585ec392f89,626b3a794d2cebb7e363ff66,,,,,,,,,,,,,,,,,,,,,,,l,1,0.601,"[""0.108"",""0.551"",""0.511"",""0.712""]","[1,0,1,1]",0,24,24,24,1,1,1,,,0,FALSE,,,,,,,,,,,,,,,,,,,,,,,,,,,,,,
,,001,2022-04-29_03h08.26.155,classification_task,2021.2.3,Win32,71.94244604,5d96a61b5d0f1c00117201bd,626b377229c10585ec392f89,626b3a794d2cebb7e363ff66,,,,,,,,,,,,,,,,,,,,,,,a,1,1.119,"[""0.295"",""0.390"",""0.663"",""0.875""]","[0,1,1,1]",0,25,25,25,1,0,0,,,0,FALSE,,,,,,,,,,,,,,,,,,,,,,,,,,,,,,
,,001,2022-04-29_03h08.26.155,classification_task,2021.2.3,Win32,71.94244604,5d96a61b5d0f1c00117201bd,626b377229c10585ec392f89,626b3a794d2cebb7e363ff66,,,,,,,,,,,,,,,,,,,,,,,l,1,1.079,"[""0.299"",""0.253"",""0.511"",""0.712""]","[0,1,1,1]",0,26,26,26,1,1,1,,,0,FALSE,,,,,,,,,,,,,,,,,,,,,,,,,,,,,,
,,001,2022-04-29_03h08.26.155,classification_task,2021.2.3,Win32,71.94244604,5d96a61b5d0f1c00117201bd,626b377229c10585ec392f89,626b3a794d2cebb7e363ff66,,,,,,,,,,,,,,,,,,,,,,,l,1,1.014,"[""0.070"",""0.350"",""0.610"",""0.791""]","[1,1,1,0]",0,27,27,27,1,1,0,,,0,FALSE,,,,,,,,,,,,,,,,,,,,,,,,,,,,,,
,,001,2022-04-29_03h08.26.155,classification_task,2021.2.3,Win32,71.94244604,5d96a61b5d0f1c00117201bd,626b377229c10585ec392f89,626b3a794d2cebb7e363ff66,,,,,,,,,,,,,,,,,,,,,,,a,1,0.63,"[""0.791"",""0.446"",""0.939"",""0.974""]","[0,1,1,1]",0,28,28,28,1,0,1,,,0,FALSE,,,,,,,,,,,,,,,,,,,,,,,,,,,,,,
,,001,2022-04-29_03h08.26.155,classification_task,2021.2.3,Win32,71.94244604,5d96a61b5d0f1c00117201bd,626b377229c10585ec392f89,626b3a794d2cebb7e363ff66,,,,,,,,,,,,,,,,,,,,,,,a,1,0.416,"[""0.202"",""0.446"",""0.939"",""0.545""]","[1,1,1,0]",0,29,29,29,1,0,1,,,0,FALSE,,,,,,,,,,,,,,,,,,,,,,,,,,,,,,
,,001,2022-04-29_03h08.26.155,classification_task,2021.2.3,Win32,71.94244604,5d96a61b5d0f1c00117201bd,626b377229c10585ec392f89,626b3a794d2cebb7e363ff66,,,,,,,,,,,,,,,,,,,,,,,l,1,0.754,"[""0.108"",""0.253"",""0.511"",""0.034""]","[1,1,1,0]",0,30,30,30,1,1,1,,,0,FALSE,,,,,,,,,,,,,,,,,,,,,,,,,,,,,,
,,001,2022-04-29_03h08.26.155,classification_task,2021.2.3,Win32,71.94244604,5d96a61b5d0f1c00117201bd,626b377229c10585ec392f89,626b3a794d2cebb7e363ff66,,,,,,,,,,,,,,,,,,,,,,,a,1,1.031,"[""0.202"",""0.573"",""0.939"",""0.974""]","[1,0,1,1]",0,31,31,31,1,0,1,,,0,FALSE,,,,,,,,,,,,,,,,,,,,,,,,,,,,,,
,,001,2022-04-29_03h08.26.155,classification_task,2021.2.3,Win32,71.94244604,5d96a61b5d0f1c00117201bd,626b377229c10585ec392f89,626b3a794d2cebb7e363ff66,,,,,,,,,,,,,,,,,,,,,,,l,1,0.969,"[""0.108"",""0.253"",""0.511"",""0.034""]","[1,1,1,0]",0,32,32,32,1,1,1,,,0,FALSE,,,,,,,,,,,,,,,,,,,,,,,,,,,,,,
,,001,2022-04-29_03h08.26.155,classification_task,2021.2.3,Win32,71.94244604,5d96a61b5d0f1c00117201bd,626b377229c10585ec392f89,626b3a794d2cebb7e363ff66,,,,,,,,,,,,,,,,,,,,,,,l,1,4.519,"[""0.108"",""0.253"",""0.034"",""0.712""]","[1,1,0,1]",0,33,33,33,1,1,1,,,0,FALSE,,,,,,,,,,,,,,,,,,,,,,,,,,,,,,
,,001,2022-04-29_03h08.26.155,classification_task,2021.2.3,Win32,71.94244604,5d96a61b5d0f1c00117201bd,626b377229c10585ec392f89,626b3a794d2cebb7e363ff66,,,,,,,,,,,,,,,,,,,,,,,a,1,0.953,"[""0.295"",""0.390"",""0.663"",""0.875""]","[0,1,1,1]",0,34,34,34,1,0,0,,,0,FALSE,,,,,,,,,,,,,,,,,,,,,,,,,,,,,,
,,001,2022-04-29_03h08.26.155,classification_task,2021.2.3,Win32,71.94244604,5d96a61b5d0f1c00117201bd,626b377229c10585ec392f89,626b3a794d2cebb7e363ff66,,,,,,,,,,,,,,,,,,,,,,,l,1,1.043,"[""0.070"",""0.350"",""0.034"",""0.752""]","[1,1,0,1]",0,35,35,35,1,1,0,,,0,FALSE,,,,,,,,,,,,,,,,,,,,,,,,,,,,,,
,,001,2022-04-29_03h08.26.155,classification_task,2021.2.3,Win32,71.94244604,5d96a61b5d0f1c00117201bd,626b377229c10585ec392f89,626b3a794d2cebb7e363ff66,,,,,,,,,,,,,,,,,,,,,,,a,1,0.876,"[""0.160"",""0.791"",""0.663"",""0.875""]","[1,0,1,1]",0,36,36,36,1,0,0,,,0,FALSE,,,,,,,,,,,,,,,,,,,,,,,,,,,,,,
,,001,2022-04-29_03h08.26.155,classification_task,2021.2.3,Win32,71.94244604,5d96a61b5d0f1c00117201bd,626b377229c10585ec392f89,626b3a794d2cebb7e363ff66,,,,,,,,,,,,,,,,,,,,,,,a,1,1.384,"[""0.202"",""0.821"",""0.939"",""0.974""]","[1,0,1,1]",0,37,37,37,1,0,1,,,0,FALSE,,,,,,,,,,,,,,,,,,,,,,,,,,,,,,
,,001,2022-04-29_03h08.26.155,classification_task,2021.2.3,Win32,71.94244604,5d96a61b5d0f1c00117201bd,626b377229c10585ec392f89,626b3a794d2cebb7e363ff66,,,,,,,,,,,,,,,,,,,,,,,a,1,1.199,"[""0.202"",""0.446"",""0.546"",""0.974""]","[1,1,0,1]",0,38,38,38,1,0,1,,,0,FALSE,,,,,,,,,,,,,,,,,,,,,,,,,,,,,,
,,001,2022-04-29_03h08.26.155,classification_task,2021.2.3,Win32,71.94244604,5d96a61b5d0f1c00117201bd,626b377229c10585ec392f89,626b3a794d2cebb7e363ff66,,,,,,,,,,,,,,,,,,,,,,,l,1,0.753,"[""0.070"",""0.350"",""0.610"",""0.827""]","[1,1,1,0]",0,39,39,39,1,1,0,,,0,FALSE,,,,,,,,,,,,,,,,,,,,,,,,,,,,,,
,,001,2022-04-29_03h08.26.155,classification_task,2021.2.3,Win32,71.94244604,5d96a61b5d0f1c00117201bd,626b377229c10585ec392f89,626b3a794d2cebb7e363ff66,,,,,,,,,,,,,,,,,,,,,,,a,1,0.675,"[""0.031"",""0.446"",""0.939"",""0.974""]","[0,1,1,1]",0,40,40,40,1,0,1,,,0,FALSE,,,,,,,,,,,,,,,,,,,,,,,,,,,,,,
,,001,2022-04-29_03h08.26.155,classification_task,2021.2.3,Win32,71.94244604,5d96a61b5d0f1c00117201bd,626b377229c10585ec392f89,626b3a794d2cebb7e363ff66,,,,,,,,,,,,,,,,,,,,,,,a,1,1.259,"[""0.160"",""0.390"",""0.573"",""0.875""]","[1,1,0,1]",0,41,41,41,1,0,0,,,0,FALSE,,,,,,,,,,,,,,,,,,,,,,,,,,,,,,
,,001,2022-04-29_03h08.26.155,classification_task,2021.2.3,Win32,71.94244604,5d96a61b5d0f1c00117201bd,626b377229c10585ec392f89,626b3a794d2cebb7e363ff66,,,,,,,,,,,,,,,,,,,,,,,l,1,0.661,"[""0.108"",""0.031"",""0.511"",""0.712""]","[1,0,1,1]",0,42,42,42,1,1,1,,,0,FALSE,,,,,,,,,,,,,,,,,,,,,,,,,,,,,,
,,001,2022-04-29_03h08.26.155,classification_task,2021.2.3,Win32,71.94244604,5d96a61b5d0f1c00117201bd,626b377229c10585ec392f89,626b3a794d2cebb7e363ff66,,,,,,,,,,,,,,,,,,,,,,,a,1,0.677,"[""0.202"",""0.446"",""0.939"",""0.568""]","[1,1,1,0]",0,43,43,43,1,0,1,,,0,FALSE,,,,,,,,,,,,,,,,,,,,,,,,,,,,,,
,,001,2022-04-29_03h08.26.155,classification_task,2021.2.3,Win32,71.94244604,5d96a61b5d0f1c00117201bd,626b377229c10585ec392f89,626b3a794d2cebb7e363ff66,,,,,,,,,,,,,,,,,,,,,,,l,1,4.257,"[""0.573"",""0.350"",""0.610"",""0.752""]","[0,1,1,1]",0,44,44,44,1,1,0,,,0,FALSE,,,,,,,,,,,,,,,,,,,,,,,,,,,,,,
,,001,2022-04-29_03h08.26.155,classification_task,2021.2.3,Win32,71.94244604,5d96a61b5d0f1c00117201bd,626b377229c10585ec392f89,626b3a794d2cebb7e363ff66,,,,,,,,,,,,,,,,,,,,,,,l,1,0.908,"[""0.546"",""0.253"",""0.511"",""0.712""]","[0,1,1,1]",0,45,45,45,1,1,1,,,0,FALSE,,,,,,,,,,,,,,,,,,,,,,,,,,,,,,
,,001,2022-04-29_03h08.26.155,classification_task,2021.2.3,Win32,71.94244604,5d96a61b5d0f1c00117201bd,626b377229c10585ec392f89,626b3a794d2cebb7e363ff66,,,,,,,,,,,,,,,,,,,,,,,l,1,0.741,"[""0.070"",""0.573"",""0.610"",""0.752""]","[1,0,1,1]",0,46,46,46,1,1,0,,,0,FALSE,,,,,,,,,,,,,,,,,,,,,,,,,,,,,,
,,001,2022-04-29_03h08.26.155,classification_task,2021.2.3,Win32,71.94244604,5d96a61b5d0f1c00117201bd,626b377229c10585ec392f89,626b3a794d2cebb7e363ff66,,,,,,,,,,,,,,,,,,,,,,,a,1,1.648,"[""0.160"",""0.390"",""0.663"",""0.299""]","[1,1,1,0]",0,47,47,47,1,0,0,,,0,FALSE,,,,,,,,,,,,,,,,,,,,,,,,,,,,,,
,,001,2022-04-29_03h08.26.155,classification_task,2021.2.3,Win32,71.94244604,5d96a61b5d0f1c00117201bd,626b377229c10585ec392f89,626b3a794d2cebb7e363ff66,,,,,,,,,,,,,,,,,,,,,,,a,1,1.09,"[""0.202"",""0.446"",""0.939"",""0.031""]","[1,1,1,0]",0,48,48,48,1,0,1,,,0,FALSE,,,,,,,,,,,,,,,,,,,,,,,,,,,,,,
,,001,2022-04-29_03h08.26.155,classification_task,2021.2.3,Win32,71.94244604,5d96a61b5d0f1c00117201bd,626b377229c10585ec392f89,626b3a794d2cebb7e363ff66,,,,,,,,,,,,,,,,,,,,,,,a,1,0.602,"[""0.202"",""0.573"",""0.939"",""0.974""]","[1,0,1,1]",0,49,49,49,1,0,1,,,0,FALSE,,,,,,,,,,,,,,,,,,,,,,,,,,,,,,
,,001,2022-04-29_03h08.26.155,classification_task,2021.2.3,Win32,71.94244604,5d96a61b5d0f1c00117201bd,626b377229c10585ec392f89,626b3a794d2cebb7e363ff66,,,,,,,,,,,,,,,,,,,,,,,l,1,0.988,"[""0.070"",""0.295"",""0.610"",""0.752""]","[1,0,1,1]",0,50,50,50,1,1,0,,,0,FALSE,,,,,,,,,,,,,,,,,,,,,,,,,,,,,,
,,001,2022-04-29_03h08.26.155,classification_task,2021.2.3,Win32,71.94244604,5d96a61b5d0f1c00117201bd,626b377229c10585ec392f89,626b3a794d2cebb7e363ff66,,,,,,,,,,,,,,,,,,,,,,,a,1,0.799,"[""0.160"",""0.390"",""0.663"",""0.791""]","[1,1,1,0]",0,51,51,51,1,0,0,,,0,FALSE,,,,,,,,,,,,,,,,,,,,,,,,,,,,,,
,,001,2022-04-29_03h08.26.155,classification_task,2021.2.3,Win32,71.94244604,5d96a61b5d0f1c00117201bd,626b377229c10585ec392f89,626b3a794d2cebb7e363ff66,,,,,,,,,,,,,,,,,,,,,,,l,1,1.109,"[""0.573"",""0.253"",""0.511"",""0.712""]","[0,1,1,1]",0,52,52,52,1,1,1,,,0,FALSE,,,,,,,,,,,,,,,,,,,,,,,,,,,,,,
,,001,2022-04-29_03h08.26.155,classification_task,2021.2.3,Win32,71.94244604,5d96a61b5d0f1c00117201bd,626b377229c10585ec392f89,626b3a794d2cebb7e363ff66,,,,,,,,,,,,,,,,,,,,,,,l,1,0.77,"[""0.108"",""0.551"",""0.511"",""0.712""]","[1,0,1,1]",0,53,53,53,1,1,1,,,0,FALSE,,,,,,,,,,,,,,,,,,,,,,,,,,,,,,
,,001,2022-04-29_03h08.26.155,classification_task,2021.2.3,Win32,71.94244604,5d96a61b5d0f1c00117201bd,626b377229c10585ec392f89,626b3a794d2cebb7e363ff66,,,,,,,,,,,,,,,,,,,,,,,a,1,1.185,"[""0.160"",""0.390"",""0.031"",""0.875""]","[1,1,0,1]",0,54,54,54,1,0,0,,,0,FALSE,,,,,,,,,,,,,,,,,,,,,,,,,,,,,,
,,001,2022-04-29_03h08.26.155,classification_task,2021.2.3,Win32,71.94244604,5d96a61b5d0f1c00117201bd,626b377229c10585ec392f89,626b3a794d2cebb7e363ff66,,,,,,,,,,,,,,,,,,,,,,,l,1,0.784,"[""0.070"",""0.350"",""0.031"",""0.752""]","[1,1,0,1]",0,55,55,55,1,1,0,,,0,FALSE,,,,,,,,,,,,,,,,,,,,,,,,,,,,,,
,,001,2022-04-29_03h08.26.155,classification_task,2021.2.3,Win32,71.94244604,5d96a61b5d0f1c00117201bd,626b377229c10585ec392f89,626b3a794d2cebb7e363ff66,,,,,,,,,,,,,,,,,,,,,,,l,1,1.643,"[""0.791"",""0.350"",""0.610"",""0.752""]","[0,1,1,1]",0,56,56,56,1,1,0,,,0,FALSE,,,,,,,,,,,,,,,,,,,,,,,,,,,,,,
,,001,2022-04-29_03h08.26.155,classification_task,2021.2.3,Win32,71.94244604,5d96a61b5d0f1c00117201bd,626b377229c10585ec392f89,626b3a794d2cebb7e363ff66,,,,,,,,,,,,,,,,,,,,,,,a,1,1.077,"[""0.160"",""0.031"",""0.663"",""0.875""]","[1,0,1,1]",0,57,57,57,1,0,0,,,0,FALSE,,,,,,,,,,,,,,,,,,,,,,,,,,,,,,
,,001,2022-04-29_03h08.26.155,classification_task,2021.2.3,Win32,71.94244604,5d96a61b5d0f1c00117201bd,626b377229c10585ec392f89,626b3a794d2cebb7e363ff66,,,,,,,,,,,,,,,,,,,,,,,l,1,0.967,"[""0.108"",""0.253"",""0.551"",""0.712""]","[1,1,0,1]",0,58,58,58,1,1,1,,,0,FALSE,,,,,,,,,,,,,,,,,,,,,,,,,,,,,,
,,001,2022-04-29_03h08.26.155,classification_task,2021.2.3,Win32,71.94244604,5d96a61b5d0f1c00117201bd,626b377229c10585ec392f89,626b3a794d2cebb7e363ff66,,,,,,,,,,,,,,,,,,,,,,,l,1,1.492,"[""0.070"",""0.350"",""0.610"",""0.573""]","[1,1,1,0]",0,59,59,59,1,1,0,,,0,FALSE,,,,,,,,,,,,,,,,,,,,,,,,,,,,,,
,,001,2022-04-29_03h08.26.155,classification_task,2021.2.3,Win32,71.94244604,5d96a61b5d0f1c00117201bd,626b377229c10585ec392f89,626b3a794d2cebb7e363ff66,,,,,,,,,,,,,,,,,,,,,,,a,1,0.709,"[""0.202"",""0.446"",""0.573"",""0.974""]","[1,1,0,1]",0,60,60,60,1,0,1,,,0,FALSE,,,,,,,,,,,,,,,,,,,,,,,,,,,,,,
,,001,2022-04-29_03h08.26.155,classification_task,2021.2.3,Win32,71.94244604,5d96a61b5d0f1c00117201bd,626b377229c10585ec392f89,626b3a794d2cebb7e363ff66,,,,,,,,,,,,,,,,,,,,,,,l,1,0.921,"[""0.108"",""0.253"",""0.511"",""0.568""]","[1,1,1,0]",0,61,61,61,1,1,1,,,0,FALSE,,,,,,,,,,,,,,,,,,,,,,,,,,,,,,
,,001,2022-04-29_03h08.26.155,classification_task,2021.2.3,Win32,71.94244604,5d96a61b5d0f1c00117201bd,626b377229c10585ec392f89,626b3a794d2cebb7e363ff66,,,,,,,,,,,,,,,,,,,,,,,a,1,0.754,"[""0.790"",""0.446"",""0.939"",""0.974""]","[0,1,1,1]",0,62,62,62,1,0,1,,,0,FALSE,,,,,,,,,,,,,,,,,,,,,,,,,,,,,,
,,001,2022-04-29_03h08.26.155,classification_task,2021.2.3,Win32,71.94244604,5d96a61b5d0f1c00117201bd,626b377229c10585ec392f89,626b3a794d2cebb7e363ff66,,,,,,,,,,,,,,,,,,,,,,,a,1,1.462,"[""0.573"",""0.390"",""0.663"",""0.875""]","[0,1,1,1]",0,63,63,63,1,0,0,,,0,FALSE,,,,,,,,,,,,,,,,,,,,,,,,,,,,,,
,,001,2022-04-29_03h08.26.155,classification_task,2021.2.3,Win32,71.94244604,5d96a61b5d0f1c00117201bd,626b377229c10585ec392f89,626b3a794d2cebb7e363ff66,,,,,,,,,,,,,,,,,,,,,,,,,,,,,,,,,,,,,,,0, ,,0,7.351557907,158.83,0,2,2,2,1,2,3,,,,,,,,,,,,,,,,,
,,001,2022-04-29_03h08.26.155,classification_task,2021.2.3,Win32,71.94244604,5d96a61b5d0f1c00117201bd,626b377229c10585ec392f89,626b3a794d2cebb7e363ff66,,,,,,,,,,,,,,,,,,,,,,,,,,,,,,,,,,,,,,,1,  ,,0,8.67430923,161.087,0,2,2,2,1,2,3,,,,,,,,,,,,,,,,,
,,001,2022-04-29_03h08.26.155,classification_task,2021.2.3,Win32,71.94244604,5d96a61b5d0f1c00117201bd,626b377229c10585ec392f89,626b3a794d2cebb7e363ff66,,,,,,,,,,,,,,,,,,,,,,,,,,,,,,,,,,,,,,,2,  ,,0,8.086419753,164.347,0,2,2,2,1,2,3,,,,,,,,,,,,,,,,,
,,001,2022-04-29_03h08.26.155,classification_task,2021.2.3,Win32,71.94244604,5d96a61b5d0f1c00117201bd,626b377229c10585ec392f89,626b3a794d2cebb7e363ff66,,,,,,,,,,,,,,,,,,,,,,,,,,,,,,,,,,,,,,,,,,,,,0,2,2,2,1,,3,,,,,,,,,,,,,,,,,
,,001,2022-04-29_03h08.26.155,classification_task,2021.2.3,Win32,71.94244604,5d96a61b5d0f1c00117201bd,626b377229c10585ec392f89,626b3a794d2cebb7e363ff66,,,,,,,,,,,,,,,,,,,,,,,,,,,,,,,,,,,,,,,,,,,,,,,,,,,,,I believe the aid is a competent performer,,0.7,0,4,775.979,0,0,0,0,1,0,,,,
,,001,2022-04-29_03h08.26.155,classification_task,2021.2.3,Win32,71.94244604,5d96a61b5d0f1c00117201bd,626b377229c10585ec392f89,626b3a794d2cebb7e363ff66,,,,,,,,,,,,,,,,,,,,,,,,,,,,,,,,,,,,,,,,,,,,,,,,,,,,,I trust the aid,,0.7,0,4,777.1,0,0,0,0,1,0,,,,
,,001,2022-04-29_03h08.26.155,classification_task,2021.2.3,Win32,71.94244604,5d96a61b5d0f1c00117201bd,626b377229c10585ec392f89,626b3a794d2cebb7e363ff66,,,,,,,,,,,,,,,,,,,,,,,,,,,,,,,,,,,,,,,,,,,,,,,,,,,,,I have confidence in the advice given by the aid,,0.7,0,4,778.712,0,0,0,0,1,0,,,,
,,001,2022-04-29_03h08.26.155,classification_task,2021.2.3,Win32,71.94244604,5d96a61b5d0f1c00117201bd,626b377229c10585ec392f89,626b3a794d2cebb7e363ff66,,,,,,,,,,,,,,,,,,,,,,,,,,,,,,,,,,,,,,,,,,,,,,,,,,,,,I can depend on the aid,,0.7,0,4,779.575,0,0,0,0,1,0,,,,
,,001,2022-04-29_03h08.26.155,classification_task,2021.2.3,Win32,71.94244604,5d96a61b5d0f1c00117201bd,626b377229c10585ec392f89,626b3a794d2cebb7e363ff66,,,,,,,,,,,,,,,,,,,,,,,,,,,,,,,,,,,,,,,,,,,,,,,,,,,,,I can rely on the aid to behave in consistent ways,,0.7,0,4,781.446,0,0,0,0,1,0,,,,
,,001,2022-04-29_03h08.26.155,classification_task,2021.2.3,Win32,71.94244604,5d96a61b5d0f1c00117201bd,626b377229c10585ec392f89,626b3a794d2cebb7e363ff66,,,,,,,,,,,,,,,,,,,,,,,,,,,,,,,,,,,,,,,,,,,,,,,,,,,,,I can rely on the aid to do its best every time I take its advice,,0.7,0,4,783.536,0,0,0,0,1,0,,,,
,,001,2022-04-29_03h08.26.155,classification_task,2021.2.3,Win32,71.94244604,5d96a61b5d0f1c00117201bd,626b377229c10585ec392f89,626b3a794d2cebb7e363ff66,,,,,,,,,,,,,,,,,,,,,,,,,,,,,,,,,,,,,,,,,,,,,,,,,,,,,"On trials you completed with assistance from the aid, how frequently did you think the aid was correct?",,0.7,0,85,,0,0,0,0,1,0,,,,
,,001,2022-04-29_03h08.26.155,classification_task,2021.2.3,Win32,71.94244604,5d96a61b5d0f1c00117201bd,626b377229c10585ec392f89,626b3a794d2cebb7e363ff66,,,,,,,,,,,,,,,,,,,,,,,,,,,,,,,,,,,,,,,,,,,,,,,,,,,,,"On trials you completed without the aid, how frequently did you think you were correct?",,0.7,0,70,,0,0,0,0,1,0,,,,
,,001,2022-04-29_03h08.26.155,classification_task,2021.2.3,Win32,71.94244604,5d96a61b5d0f1c00117201bd,626b377229c10585ec392f89,626b3a794d2cebb7e363ff66,,,,,,,,,,,,,,,,,,,,,,,,,,,,,,,,,,,,,,,,,,,,,,,,,,,,,,,,,,,0,0,0,0,1,,,,,
,,001,2022-04-29_03h08.26.155,classification_task,2021.2.3,Win32,71.94244604,5d96a61b5d0f1c00117201bd,626b377229c10585ec392f89,626b3a794d2cebb7e363ff66,,,,,,,,,,,,,,,,,,,,,,,,,,,,,,,,,,,,,,,,,,,,,,,,,,,,,,,,,,,,,,,,,space,9.152,813.543,
,,001,2022-04-29_03h08.26.155,classification_task,2021.2.3,Win32,71.94244604,5d96a61b5d0f1c00117201bd,626b377229c10585ec392f89,626b3a794d2cebb7e363ff66,,,,,,,,,,,,,,,,,,,,,,,,,,,,,,,,,,,,,,,,,,,,,,,,,,,,,,,,,,,,,,,,,,,,Mozilla/5.0 (Windows NT 10.0; Win64; x64; rv:99.0) Gecko/20100101 Firefox/99.0
