usingWebGL,participant,session,date,expName,psychopyVersion,OS,frameRate,PROLIFIC_PID,STUDY_ID,SESSION_ID,signatures_friend,signatures_foe,band_ranges_top,band_ranges_bottom,formitemText,formtype,formundefined,formitemWidth,formindex,formresponse,formrt,key_resp_2.keys,key_resp_2.rt,tute_resp.keys,tute_resp.rt,tutorial.thisRepN,tutorial.thisTrialN,tutorial.thisN,tutorial.thisIndex,tutorial.ran,key_resp_4.keys,key_resp_4.rt,key_resp.keys,key_resp.corr,lines_presented,is_signal_presented,trials.thisRepN,trials.thisTrialN,trials.thisN,trials.thisIndex,trials.ran,vessel,active_band,lines,is_signal,supported_pos,catch_trial,key_resp.rt,debrief_formindex,debrief_formitemText,debrief_formtype,debrief_formitemWidth,debrief_formresponse,debrief_formrt,phases.thisRepN,phases.thisTrialN,phases.thisN,phases.thisIndex,phases.ran,phases.order,phase,key_resp_3.keys,trustitemText,trusttype,trustitemWidth,trustindex,trustresponse,trustrt,support_status.thisRepN,support_status.thisTrialN,support_status.thisN,support_status.thisIndex,support_status.ran,support_status.order,key_resp_5.keys,key_resp_5.rt,globalClockTime,userAgent
TRUE,,001,2022-04-28_20h09.40.283,classification_task,2021.2.3,Win32,59.61251863,5f68f02c41716709ee9be42d,626b377229c10585ec392f89,626b3aaf327281b47670ba1d,,,,,,,,,,,,,,,,,,,,,,,,,,,,,,,,,,,,,,,,,,,,,,,,,,,,,,,,,,,,,,,,,,,,
,,001,2022-04-28_20h09.40.283,classification_task,2021.2.3,Win32,59.61251863,5f68f02c41716709ee9be42d,626b377229c10585ec392f89,626b3aaf327281b47670ba1d,"[[""0.278"",""0.461"",""0.566"",""0.917""],[""0.323"",""0.421"",""0.773"",""0.873""]]","[[""0.058"",""0.233"",""0.495"",""0.834""],[""0.119"",""0.176"",""0.606"",""0.727""]]","[1,10]","[100,1000]",Video game experience,,,0.7,0,,,,,,,,,,,,,,,,,,,,,,,,,,,,,,,,,,,,,,,,,,,,,,,,,,,,,,,,,,,
,,001,2022-04-28_20h09.40.283,classification_task,2021.2.3,Win32,59.61251863,5f68f02c41716709ee9be42d,626b377229c10585ec392f89,626b3aaf327281b47670ba1d,,,,,Approximately how many hours did you spend playing video games in the last week?,,,0.7,0,15,,,,,,,,,,,,,,,,,,,,,,,,,,,,,,,,,,,,,,,,,,,,,,,,,,,,,,,,,,
,,001,2022-04-28_20h09.40.283,classification_task,2021.2.3,Win32,59.61251863,5f68f02c41716709ee9be42d,626b377229c10585ec392f89,626b3aaf327281b47670ba1d,,,,,"Which game did you play the most this year? (Enter ""None"" if you didn't play any)",,,0.7,0,Gods unchained,,,,,,,,,,,,,,,,,,,,,,,,,,,,,,,,,,,,,,,,,,,,,,,,,,,,,,,,,,
,,001,2022-04-28_20h09.40.283,classification_task,2021.2.3,Win32,59.61251863,5f68f02c41716709ee9be42d,626b377229c10585ec392f89,626b3aaf327281b47670ba1d,,,,,Visual perception,,,0.7,0,,,,,,,,,,,,,,,,,,,,,,,,,,,,,,,,,,,,,,,,,,,,,,,,,,,,,,,,,,,
,,001,2022-04-28_20h09.40.283,classification_task,2021.2.3,Win32,59.61251863,5f68f02c41716709ee9be42d,626b377229c10585ec392f89,626b3aaf327281b47670ba1d,,,,,Do you have any form of color blindness?,,,0.7,0,No,25.7367,,,,,,,,,,,,,,,,,,,,,,,,,,,,,,,,,,,,,,,,,,,,,,,,,,,,,,,,,
,,001,2022-04-28_20h09.40.283,classification_task,2021.2.3,Win32,59.61251863,5f68f02c41716709ee9be42d,626b377229c10585ec392f89,626b3aaf327281b47670ba1d,,,,,Do you use software to change the colour temperature of your screen (e.g. f.lux)?,,,0.7,0,No,27.6726,,,,,,,,,,,,,,,,,,,,,,,,,,,,,,,,,,,,,,,,,,,,,,,,,,,,,,,,,
,,001,2022-04-28_20h09.40.283,classification_task,2021.2.3,Win32,59.61251863,5f68f02c41716709ee9be42d,626b377229c10585ec392f89,626b3aaf327281b47670ba1d,,,,,,,,,,,,space,26.6268,space,5.9513,0,0,0,0,1,,,,,,,,,,,,,,,,,,,,,,,,,,,,,,,,,,,,,,,,,,,,,,,,
,,001,2022-04-28_20h09.40.283,classification_task,2021.2.3,Win32,59.61251863,5f68f02c41716709ee9be42d,626b377229c10585ec392f89,626b3aaf327281b47670ba1d,,,,,,,,,,,,,,space,5.569,1,0,1,0,1,,,,,,,,,,,,,,,,,,,,,,,,,,,,,,,,,,,,,,,,,,,,,,,,
,,001,2022-04-28_20h09.40.283,classification_task,2021.2.3,Win32,59.61251863,5f68f02c41716709ee9be42d,626b377229c10585ec392f89,626b3aaf327281b47670ba1d,,,,,,,,,,,,,,space,18.2971,2,0,2,0,1,,,,,,,,,,,,,,,,,,,,,,,,,,,,,,,,,,,,,,,,,,,,,,,,
,,001,2022-04-28_20h09.40.283,classification_task,2021.2.3,Win32,59.61251863,5f68f02c41716709ee9be42d,626b377229c10585ec392f89,626b3aaf327281b47670ba1d,,,,,,,,,,,,,,space,10.0683,3,0,3,0,1,,,,,,,,,,,,,,,,,,,,,,,,,,,,,,,,,,,,,,,,,,,,,,,,
,,001,2022-04-28_20h09.40.283,classification_task,2021.2.3,Win32,59.61251863,5f68f02c41716709ee9be42d,626b377229c10585ec392f89,626b3aaf327281b47670ba1d,,,,,,,,,,,,,,space,15.286,4,0,4,0,1,,,,,,,,,,,,,,,,,,,,,,,,,,,,,,,,,,,,,,,,,,,,,,,,
,,001,2022-04-28_20h09.40.283,classification_task,2021.2.3,Win32,59.61251863,5f68f02c41716709ee9be42d,626b377229c10585ec392f89,626b3aaf327281b47670ba1d,,,,,,,,,,,,,,,,,,,,,space,20.4238,,0,"[""0.278"",""0.461"",""0.651"",""0.917""]","[1,1,0,1]",0,0,0,0,1,0,0,,,0,FALSE,,,,,,,,,,,,,,,,,,,,,,,,,,,,,,,
,,001,2022-04-28_20h09.40.283,classification_task,2021.2.3,Win32,59.61251863,5f68f02c41716709ee9be42d,626b377229c10585ec392f89,626b3aaf327281b47670ba1d,,,,,,,,,,,,,,,,,,,,,,,a,1,"[""0.323"",""0.421"",""0.359"",""0.873""]","[1,1,0,1]",0,1,1,1,1,0,1,,,0,FALSE,3.7112,,,,,,,,,,,,,,,,,,,,,,,,,,,,,,
,,001,2022-04-28_20h09.40.283,classification_task,2021.2.3,Win32,59.61251863,5f68f02c41716709ee9be42d,626b377229c10585ec392f89,626b3aaf327281b47670ba1d,,,,,,,,,,,,,,,,,,,,,,,l,0,"[""0.278"",""0.461"",""0.566"",""0.532""]","[1,1,1,0]",0,2,2,2,1,0,0,,,0,FALSE,3.7783,,,,,,,,,,,,,,,,,,,,,,,,,,,,,,
,,001,2022-04-28_20h09.40.283,classification_task,2021.2.3,Win32,59.61251863,5f68f02c41716709ee9be42d,626b377229c10585ec392f89,626b3aaf327281b47670ba1d,,,,,,,,,,,,,,,,,,,,,,,l,1,"[""0.361"",""0.233"",""0.495"",""0.834""]","[0,1,1,1]",0,3,3,3,1,1,0,,,0,FALSE,2.2754,,,,,,,,,,,,,,,,,,,,,,,,,,,,,,
,,001,2022-04-28_20h09.40.283,classification_task,2021.2.3,Win32,59.61251863,5f68f02c41716709ee9be42d,626b377229c10585ec392f89,626b3aaf327281b47670ba1d,,,,,,,,,,,,,,,,,,,,,,,a,0,"[""0.119"",""0.176"",""0.674"",""0.727""]","[1,1,0,1]",0,4,4,4,1,1,1,,,0,FALSE,2.6246,,,,,,,,,,,,,,,,,,,,,,,,,,,,,,
,,001,2022-04-28_20h09.40.283,classification_task,2021.2.3,Win32,59.61251863,5f68f02c41716709ee9be42d,626b377229c10585ec392f89,626b3aaf327281b47670ba1d,,,,,,,,,,,,,,,,,,,,,,,l,0,"[""0.323"",""0.959"",""0.773"",""0.873""]","[1,0,1,1]",0,5,5,5,1,0,1,,,0,FALSE,2.9272,,,,,,,,,,,,,,,,,,,,,,,,,,,,,,
,,001,2022-04-28_20h09.40.283,classification_task,2021.2.3,Win32,59.61251863,5f68f02c41716709ee9be42d,626b377229c10585ec392f89,626b3aaf327281b47670ba1d,,,,,,,,,,,,,,,,,,,,,,,a,0,"[""0.058"",""0.233"",""0.495"",""0.959""]","[1,1,1,0]",0,6,6,6,1,1,0,,,0,FALSE,2.3912,,,,,,,,,,,,,,,,,,,,,,,,,,,,,,
,,001,2022-04-28_20h09.40.283,classification_task,2021.2.3,Win32,59.61251863,5f68f02c41716709ee9be42d,626b377229c10585ec392f89,626b3aaf327281b47670ba1d,,,,,,,,,,,,,,,,,,,,,,,a,0,"[""0.058"",""0.233"",""0.375"",""0.834""]","[1,1,0,1]",0,7,7,7,1,1,0,,,0,FALSE,3.1275,,,,,,,,,,,,,,,,,,,,,,,,,,,,,,
,,001,2022-04-28_20h09.40.283,classification_task,2021.2.3,Win32,59.61251863,5f68f02c41716709ee9be42d,626b377229c10585ec392f89,626b3aaf327281b47670ba1d,,,,,,,,,,,,,,,,,,,,,,,l,1,"[""0.369"",""0.176"",""0.606"",""0.727""]","[0,1,1,1]",0,8,8,8,1,1,1,,,0,FALSE,2.7752,,,,,,,,,,,,,,,,,,,,,,,,,,,,,,
,,001,2022-04-28_20h09.40.283,classification_task,2021.2.3,Win32,59.61251863,5f68f02c41716709ee9be42d,626b377229c10585ec392f89,626b3aaf327281b47670ba1d,,,,,,,,,,,,,,,,,,,,,,,l,1,"[""0.058"",""0.654"",""0.495"",""0.834""]","[1,0,1,1]",0,9,9,9,1,1,0,,,0,FALSE,2.0059,,,,,,,,,,,,,,,,,,,,,,,,,,,,,,
,,001,2022-04-28_20h09.40.283,classification_task,2021.2.3,Win32,59.61251863,5f68f02c41716709ee9be42d,626b377229c10585ec392f89,626b3aaf327281b47670ba1d,,,,,,,,,,,,,,,,,,,,,,,a,1,"[""0.278"",""0.959"",""0.566"",""0.917""]","[1,0,1,1]",0,10,10,10,1,0,0,,,0,FALSE,1.1869,,,,,,,,,,,,,,,,,,,,,,,,,,,,,,
,,001,2022-04-28_20h09.40.283,classification_task,2021.2.3,Win32,59.61251863,5f68f02c41716709ee9be42d,626b377229c10585ec392f89,626b3aaf327281b47670ba1d,,,,,,,,,,,,,,,,,,,,,,,l,0,"[""0.323"",""0.421"",""0.773"",""0.674""]","[1,1,1,0]",0,11,11,11,1,0,1,,,0,FALSE,1.1868,,,,,,,,,,,,,,,,,,,,,,,,,,,,,,
,,001,2022-04-28_20h09.40.283,classification_task,2021.2.3,Win32,59.61251863,5f68f02c41716709ee9be42d,626b377229c10585ec392f89,626b3aaf327281b47670ba1d,,,,,,,,,,,,,,,,,,,,,,,a,1,"[""0.959"",""0.421"",""0.773"",""0.873""]","[0,1,1,1]",0,12,12,12,1,0,1,,,0,FALSE,1.7898,,,,,,,,,,,,,,,,,,,,,,,,,,,,,,
,,001,2022-04-28_20h09.40.283,classification_task,2021.2.3,Win32,59.61251863,5f68f02c41716709ee9be42d,626b377229c10585ec392f89,626b3aaf327281b47670ba1d,,,,,,,,,,,,,,,,,,,,,,,l,1,"[""0.119"",""0.362"",""0.606"",""0.727""]","[1,0,1,1]",0,13,13,13,1,1,1,,,0,FALSE,2.2067,,,,,,,,,,,,,,,,,,,,,,,,,,,,,,
,,001,2022-04-28_20h09.40.283,classification_task,2021.2.3,Win32,59.61251863,5f68f02c41716709ee9be42d,626b377229c10585ec392f89,626b3aaf327281b47670ba1d,,,,,,,,,,,,,,,,,,,,,,,a,0,"[""0.119"",""0.176"",""0.606"",""0.369""]","[1,1,1,0]",0,14,14,14,1,1,1,,,0,FALSE,0.8355,,,,,,,,,,,,,,,,,,,,,,,,,,,,,,
,,001,2022-04-28_20h09.40.283,classification_task,2021.2.3,Win32,59.61251863,5f68f02c41716709ee9be42d,626b377229c10585ec392f89,626b3aaf327281b47670ba1d,,,,,,,,,,,,,,,,,,,,,,,a,1,"[""0.532"",""0.461"",""0.566"",""0.917""]","[0,1,1,1]",0,15,15,15,1,0,0,,,0,FALSE,1.7551,,,,,,,,,,,,,,,,,,,,,,,,,,,,,,
,,001,2022-04-28_20h09.40.283,classification_task,2021.2.3,Win32,59.61251863,5f68f02c41716709ee9be42d,626b377229c10585ec392f89,626b3aaf327281b47670ba1d,,,,,,,,,,,,,,,,,,,,,,,a,0,"[""0.119"",""0.362"",""0.606"",""0.727""]","[1,0,1,1]",0,16,16,16,1,1,1,,,0,FALSE,2.7094,,,,,,,,,,,,,,,,,,,,,,,,,,,,,,
,,001,2022-04-28_20h09.40.283,classification_task,2021.2.3,Win32,59.61251863,5f68f02c41716709ee9be42d,626b377229c10585ec392f89,626b3aaf327281b47670ba1d,,,,,,,,,,,,,,,,,,,,,,,a,1,"[""0.532"",""0.421"",""0.773"",""0.873""]","[0,1,1,1]",0,17,17,17,1,0,1,,,0,FALSE,1.3213,,,,,,,,,,,,,,,,,,,,,,,,,,,,,,
,,001,2022-04-28_20h09.40.283,classification_task,2021.2.3,Win32,59.61251863,5f68f02c41716709ee9be42d,626b377229c10585ec392f89,626b3aaf327281b47670ba1d,,,,,,,,,,,,,,,,,,,,,,,l,1,"[""0.119"",""0.176"",""0.606"",""0.374""]","[1,1,1,0]",0,18,18,18,1,1,1,,,0,FALSE,0.753,,,,,,,,,,,,,,,,,,,,,,,,,,,,,,
,,001,2022-04-28_20h09.40.283,classification_task,2021.2.3,Win32,59.61251863,5f68f02c41716709ee9be42d,626b377229c10585ec392f89,626b3aaf327281b47670ba1d,,,,,,,,,,,,,,,,,,,,,,,l,1,"[""0.119"",""0.176"",""0.654"",""0.727""]","[1,1,0,1]",0,19,19,19,1,1,1,,,0,FALSE,1.6895,,,,,,,,,,,,,,,,,,,,,,,,,,,,,,
,,001,2022-04-28_20h09.40.283,classification_task,2021.2.3,Win32,59.61251863,5f68f02c41716709ee9be42d,626b377229c10585ec392f89,626b3aaf327281b47670ba1d,,,,,,,,,,,,,,,,,,,,,,,l,0,"[""0.278"",""0.375"",""0.566"",""0.917""]","[1,0,1,1]",0,20,20,20,1,0,0,,,0,FALSE,1.2035,,,,,,,,,,,,,,,,,,,,,,,,,,,,,,
,,001,2022-04-28_20h09.40.283,classification_task,2021.2.3,Win32,59.61251863,5f68f02c41716709ee9be42d,626b377229c10585ec392f89,626b3aaf327281b47670ba1d,,,,,,,,,,,,,,,,,,,,,,,l,0,"[""0.323"",""0.421"",""0.773"",""0.361""]","[1,1,1,0]",0,21,21,21,1,0,1,,,0,FALSE,0.8851,,,,,,,,,,,,,,,,,,,,,,,,,,,,,,
,,001,2022-04-28_20h09.40.283,classification_task,2021.2.3,Win32,59.61251863,5f68f02c41716709ee9be42d,626b377229c10585ec392f89,626b3aaf327281b47670ba1d,,,,,,,,,,,,,,,,,,,,,,,l,1,"[""0.058"",""0.233"",""0.379"",""0.834""]","[1,1,0,1]",0,22,22,22,1,1,0,,,0,FALSE,0.969,,,,,,,,,,,,,,,,,,,,,,,,,,,,,,
,,001,2022-04-28_20h09.40.283,classification_task,2021.2.3,Win32,59.61251863,5f68f02c41716709ee9be42d,626b377229c10585ec392f89,626b3aaf327281b47670ba1d,,,,,,,,,,,,,,,,,,,,,,,a,1,"[""0.278"",""0.461"",""0.566"",""0.375""]","[1,1,1,0]",0,23,23,23,1,0,0,,,0,FALSE,0.8198,,,,,,,,,,,,,,,,,,,,,,,,,,,,,,
,,001,2022-04-28_20h09.40.283,classification_task,2021.2.3,Win32,59.61251863,5f68f02c41716709ee9be42d,626b377229c10585ec392f89,626b3aaf327281b47670ba1d,,,,,,,,,,,,,,,,,,,,,,,l,0,"[""0.278"",""0.461"",""0.959"",""0.917""]","[1,1,0,1]",0,24,24,24,1,0,0,,,0,FALSE,2.0902,,,,,,,,,,,,,,,,,,,,,,,,,,,,,,
,,001,2022-04-28_20h09.40.283,classification_task,2021.2.3,Win32,59.61251863,5f68f02c41716709ee9be42d,626b377229c10585ec392f89,626b3aaf327281b47670ba1d,,,,,,,,,,,,,,,,,,,,,,,l,0,"[""0.651"",""0.461"",""0.566"",""0.917""]","[0,1,1,1]",0,25,25,25,1,0,0,,,0,FALSE,0.9704,,,,,,,,,,,,,,,,,,,,,,,,,,,,,,
,,001,2022-04-28_20h09.40.283,classification_task,2021.2.3,Win32,59.61251863,5f68f02c41716709ee9be42d,626b377229c10585ec392f89,626b3aaf327281b47670ba1d,,,,,,,,,,,,,,,,,,,,,,,l,1,"[""0.674"",""0.176"",""0.606"",""0.727""]","[0,1,1,1]",0,26,26,26,1,1,1,,,0,FALSE,0.9346,,,,,,,,,,,,,,,,,,,,,,,,,,,,,,
,,001,2022-04-28_20h09.40.283,classification_task,2021.2.3,Win32,59.61251863,5f68f02c41716709ee9be42d,626b377229c10585ec392f89,626b3aaf327281b47670ba1d,,,,,,,,,,,,,,,,,,,,,,,a,0,"[""0.058"",""0.233"",""0.495"",""0.674""]","[1,1,1,0]",0,27,27,27,1,1,0,,,0,FALSE,1.1364,,,,,,,,,,,,,,,,,,,,,,,,,,,,,,
,,001,2022-04-28_20h09.40.283,classification_task,2021.2.3,Win32,59.61251863,5f68f02c41716709ee9be42d,626b377229c10585ec392f89,626b3aaf327281b47670ba1d,,,,,,,,,,,,,,,,,,,,,,,l,0,"[""0.323"",""0.421"",""0.959"",""0.873""]","[1,1,0,1]",0,28,28,28,1,0,1,,,0,FALSE,0.9365,,,,,,,,,,,,,,,,,,,,,,,,,,,,,,
,,001,2022-04-28_20h09.40.283,classification_task,2021.2.3,Win32,59.61251863,5f68f02c41716709ee9be42d,626b377229c10585ec392f89,626b3aaf327281b47670ba1d,,,,,,,,,,,,,,,,,,,,,,,l,0,"[""0.323"",""0.651"",""0.773"",""0.873""]","[1,0,1,1]",0,29,29,29,1,0,1,,,0,FALSE,0.9359,,,,,,,,,,,,,,,,,,,,,,,,,,,,,,
,,001,2022-04-28_20h09.40.283,classification_task,2021.2.3,Win32,59.61251863,5f68f02c41716709ee9be42d,626b377229c10585ec392f89,626b3aaf327281b47670ba1d,,,,,,,,,,,,,,,,,,,,,,,l,1,"[""0.959"",""0.233"",""0.495"",""0.834""]","[0,1,1,1]",0,30,30,30,1,1,0,,,0,FALSE,1.1025,,,,,,,,,,,,,,,,,,,,,,,,,,,,,,
,,001,2022-04-28_20h09.40.283,classification_task,2021.2.3,Win32,59.61251863,5f68f02c41716709ee9be42d,626b377229c10585ec392f89,626b3aaf327281b47670ba1d,,,,,,,,,,,,,,,,,,,,,,,a,0,"[""0.058"",""0.674"",""0.495"",""0.834""]","[1,0,1,1]",0,31,31,31,1,1,0,,,0,FALSE,1.3378,,,,,,,,,,,,,,,,,,,,,,,,,,,,,,
,,001,2022-04-28_20h09.40.283,classification_task,2021.2.3,Win32,59.61251863,5f68f02c41716709ee9be42d,626b377229c10585ec392f89,626b3aaf327281b47670ba1d,,,,,,,,,,,,,,,,,,,,,,,l,0,"[""0.323"",""0.421"",""0.773"",""0.692""]","[1,1,1,0]",0,32,32,32,1,0,1,,,0,FALSE,1.137,,,,,,,,,,,,,,,,,,,,,,,,,,,,,,
,,001,2022-04-28_20h09.40.283,classification_task,2021.2.3,Win32,59.61251863,5f68f02c41716709ee9be42d,626b377229c10585ec392f89,626b3aaf327281b47670ba1d,,,,,,,,,,,,,,,,,,,,,,,l,0,"[""0.654"",""0.461"",""0.566"",""0.917""]","[0,1,1,1]",0,33,33,33,1,0,0,,,0,FALSE,2.5082,,,,,,,,,,,,,,,,,,,,,,,,,,,,,,
,,001,2022-04-28_20h09.40.283,classification_task,2021.2.3,Win32,59.61251863,5f68f02c41716709ee9be42d,626b377229c10585ec392f89,626b3aaf327281b47670ba1d,,,,,,,,,,,,,,,,,,,,,,,l,1,"[""0.119"",""0.674"",""0.606"",""0.727""]","[1,0,1,1]",0,34,34,34,1,1,1,,,0,FALSE,1.0527,,,,,,,,,,,,,,,,,,,,,,,,,,,,,,
,,001,2022-04-28_20h09.40.283,classification_task,2021.2.3,Win32,59.61251863,5f68f02c41716709ee9be42d,626b377229c10585ec392f89,626b3aaf327281b47670ba1d,,,,,,,,,,,,,,,,,,,,,,,a,0,"[""0.674"",""0.233"",""0.495"",""0.834""]","[0,1,1,1]",0,35,35,35,1,1,0,,,0,FALSE,1.1872,,,,,,,,,,,,,,,,,,,,,,,,,,,,,,
,,001,2022-04-28_20h09.40.283,classification_task,2021.2.3,Win32,59.61251863,5f68f02c41716709ee9be42d,626b377229c10585ec392f89,626b3aaf327281b47670ba1d,,,,,,,,,,,,,,,,,,,,,,,a,1,"[""0.278"",""0.461"",""0.566"",""0.692""]","[1,1,1,0]",0,36,36,36,1,0,0,,,0,FALSE,2.8439,,,,,,,,,,,,,,,,,,,,,,,,,,,,,,
,,001,2022-04-28_20h09.40.283,classification_task,2021.2.3,Win32,59.61251863,5f68f02c41716709ee9be42d,626b377229c10585ec392f89,626b3aaf327281b47670ba1d,,,,,,,,,,,,,,,,,,,,,,,l,0,"[""0.278"",""0.369"",""0.566"",""0.917""]","[1,0,1,1]",0,37,37,37,1,0,0,,,0,FALSE,2.3754,,,,,,,,,,,,,,,,,,,,,,,,,,,,,,
,,001,2022-04-28_20h09.40.283,classification_task,2021.2.3,Win32,59.61251863,5f68f02c41716709ee9be42d,626b377229c10585ec392f89,626b3aaf327281b47670ba1d,,,,,,,,,,,,,,,,,,,,,,,l,0,"[""0.323"",""0.651"",""0.773"",""0.873""]","[1,0,1,1]",0,38,38,38,1,0,1,,,0,FALSE,2.4249,,,,,,,,,,,,,,,,,,,,,,,,,,,,,,
,,001,2022-04-28_20h09.40.283,classification_task,2021.2.3,Win32,59.61251863,5f68f02c41716709ee9be42d,626b377229c10585ec392f89,626b3aaf327281b47670ba1d,,,,,,,,,,,,,,,,,,,,,,,a,0,"[""0.119"",""0.176"",""0.375"",""0.727""]","[1,1,0,1]",0,39,39,39,1,1,1,,,0,FALSE,1.4552,,,,,,,,,,,,,,,,,,,,,,,,,,,,,,
,,001,2022-04-28_20h09.40.283,classification_task,2021.2.3,Win32,59.61251863,5f68f02c41716709ee9be42d,626b377229c10585ec392f89,626b3aaf327281b47670ba1d,,,,,,,,,,,,,,,,,,,,,,,a,0,"[""0.058"",""0.233"",""0.495"",""0.674""]","[1,1,1,0]",0,40,40,40,1,1,0,,,0,FALSE,0.9688,,,,,,,,,,,,,,,,,,,,,,,,,,,,,,
,,001,2022-04-28_20h09.40.283,classification_task,2021.2.3,Win32,59.61251863,5f68f02c41716709ee9be42d,626b377229c10585ec392f89,626b3aaf327281b47670ba1d,,,,,,,,,,,,,,,,,,,,,,,l,1,"[""0.651"",""0.176"",""0.606"",""0.727""]","[0,1,1,1]",0,41,41,41,1,1,1,,,0,FALSE,1.6555,,,,,,,,,,,,,,,,,,,,,,,,,,,,,,
,,001,2022-04-28_20h09.40.283,classification_task,2021.2.3,Win32,59.61251863,5f68f02c41716709ee9be42d,626b377229c10585ec392f89,626b3aaf327281b47670ba1d,,,,,,,,,,,,,,,,,,,,,,,a,0,"[""0.119"",""0.176"",""0.606"",""0.674""]","[1,1,1,0]",0,42,42,42,1,1,1,,,0,FALSE,1.0205,,,,,,,,,,,,,,,,,,,,,,,,,,,,,,
,,001,2022-04-28_20h09.40.283,classification_task,2021.2.3,Win32,59.61251863,5f68f02c41716709ee9be42d,626b377229c10585ec392f89,626b3aaf327281b47670ba1d,,,,,,,,,,,,,,,,,,,,,,,l,1,"[""0.058"",""0.377"",""0.495"",""0.834""]","[1,0,1,1]",0,43,43,43,1,1,0,,,0,FALSE,1.0707,,,,,,,,,,,,,,,,,,,,,,,,,,,,,,
,,001,2022-04-28_20h09.40.283,classification_task,2021.2.3,Win32,59.61251863,5f68f02c41716709ee9be42d,626b377229c10585ec392f89,626b3aaf327281b47670ba1d,,,,,,,,,,,,,,,,,,,,,,,a,0,"[""0.058"",""0.233"",""0.674"",""0.834""]","[1,1,0,1]",0,44,44,44,1,1,0,,,0,FALSE,1.1448,,,,,,,,,,,,,,,,,,,,,,,,,,,,,,
,,001,2022-04-28_20h09.40.283,classification_task,2021.2.3,Win32,59.61251863,5f68f02c41716709ee9be42d,626b377229c10585ec392f89,626b3aaf327281b47670ba1d,,,,,,,,,,,,,,,,,,,,,,,a,1,"[""0.361"",""0.421"",""0.773"",""0.873""]","[0,1,1,1]",0,45,45,45,1,0,1,,,0,FALSE,1.4667,,,,,,,,,,,,,,,,,,,,,,,,,,,,,,
,,001,2022-04-28_20h09.40.283,classification_task,2021.2.3,Win32,59.61251863,5f68f02c41716709ee9be42d,626b377229c10585ec392f89,626b3aaf327281b47670ba1d,,,,,,,,,,,,,,,,,,,,,,,l,0,"[""0.278"",""0.461"",""0.375"",""0.917""]","[1,1,0,1]",0,46,46,46,1,0,0,,,0,FALSE,1.4073,,,,,,,,,,,,,,,,,,,,,,,,,,,,,,
,,001,2022-04-28_20h09.40.283,classification_task,2021.2.3,Win32,59.61251863,5f68f02c41716709ee9be42d,626b377229c10585ec392f89,626b3aaf327281b47670ba1d,,,,,,,,,,,,,,,,,,,,,,,l,0,"[""0.323"",""0.421"",""0.959"",""0.873""]","[1,1,0,1]",0,47,47,47,1,0,1,,,0,FALSE,1.1435,,,,,,,,,,,,,,,,,,,,,,,,,,,,,,
,,001,2022-04-28_20h09.40.283,classification_task,2021.2.3,Win32,59.61251863,5f68f02c41716709ee9be42d,626b377229c10585ec392f89,626b3aaf327281b47670ba1d,,,,,,,,,,,,,,,,,,,,,,,l,0,"[""0.323"",""0.421"",""0.773"",""0.377""]","[1,1,1,0]",0,48,48,48,1,0,1,,,0,FALSE,1.0102,,,,,,,,,,,,,,,,,,,,,,,,,,,,,,
,,001,2022-04-28_20h09.40.283,classification_task,2021.2.3,Win32,59.61251863,5f68f02c41716709ee9be42d,626b377229c10585ec392f89,626b3aaf327281b47670ba1d,,,,,,,,,,,,,,,,,,,,,,,a,1,"[""0.361"",""0.421"",""0.773"",""0.873""]","[0,1,1,1]",0,49,49,49,1,0,1,,,0,FALSE,1.0416,,,,,,,,,,,,,,,,,,,,,,,,,,,,,,
,,001,2022-04-28_20h09.40.283,classification_task,2021.2.3,Win32,59.61251863,5f68f02c41716709ee9be42d,626b377229c10585ec392f89,626b3aaf327281b47670ba1d,,,,,,,,,,,,,,,,,,,,,,,l,0,"[""0.959"",""0.461"",""0.566"",""0.917""]","[0,1,1,1]",0,50,50,50,1,0,0,,,0,FALSE,0.8519,,,,,,,,,,,,,,,,,,,,,,,,,,,,,,
,,001,2022-04-28_20h09.40.283,classification_task,2021.2.3,Win32,59.61251863,5f68f02c41716709ee9be42d,626b377229c10585ec392f89,626b3aaf327281b47670ba1d,,,,,,,,,,,,,,,,,,,,,,,l,1,"[""0.058"",""0.233"",""0.375"",""0.834""]","[1,1,0,1]",0,51,51,51,1,1,0,,,0,FALSE,0.6009,,,,,,,,,,,,,,,,,,,,,,,,,,,,,,
,,001,2022-04-28_20h09.40.283,classification_task,2021.2.3,Win32,59.61251863,5f68f02c41716709ee9be42d,626b377229c10585ec392f89,626b3aaf327281b47670ba1d,,,,,,,,,,,,,,,,,,,,,,,a,0,"[""0.058"",""0.233"",""0.495"",""0.377""]","[1,1,1,0]",0,52,52,52,1,1,0,,,0,FALSE,0.6093,,,,,,,,,,,,,,,,,,,,,,,,,,,,,,
,,001,2022-04-28_20h09.40.283,classification_task,2021.2.3,Win32,59.61251863,5f68f02c41716709ee9be42d,626b377229c10585ec392f89,626b3aaf327281b47670ba1d,,,,,,,,,,,,,,,,,,,,,,,l,0,"[""0.278"",""0.461"",""0.674"",""0.917""]","[1,1,0,1]",0,53,53,53,1,0,0,,,0,FALSE,0.4598,,,,,,,,,,,,,,,,,,,,,,,,,,,,,,
,,001,2022-04-28_20h09.40.283,classification_task,2021.2.3,Win32,59.61251863,5f68f02c41716709ee9be42d,626b377229c10585ec392f89,626b3aaf327281b47670ba1d,,,,,,,,,,,,,,,,,,,,,,,a,0,"[""0.058"",""0.692"",""0.495"",""0.834""]","[1,0,1,1]",0,54,54,54,1,1,0,,,0,FALSE,0.5569,,,,,,,,,,,,,,,,,,,,,,,,,,,,,,
,,001,2022-04-28_20h09.40.283,classification_task,2021.2.3,Win32,59.61251863,5f68f02c41716709ee9be42d,626b377229c10585ec392f89,626b3aaf327281b47670ba1d,,,,,,,,,,,,,,,,,,,,,,,l,1,"[""0.119"",""0.362"",""0.606"",""0.727""]","[1,0,1,1]",0,55,55,55,1,1,1,,,0,FALSE,0.4245,,,,,,,,,,,,,,,,,,,,,,,,,,,,,,
,,001,2022-04-28_20h09.40.283,classification_task,2021.2.3,Win32,59.61251863,5f68f02c41716709ee9be42d,626b377229c10585ec392f89,626b3aaf327281b47670ba1d,,,,,,,,,,,,,,,,,,,,,,,l,1,"[""0.119"",""0.176"",""0.361"",""0.727""]","[1,1,0,1]",0,56,56,56,1,1,1,,,0,FALSE,0.5552,,,,,,,,,,,,,,,,,,,,,,,,,,,,,,
,,001,2022-04-28_20h09.40.283,classification_task,2021.2.3,Win32,59.61251863,5f68f02c41716709ee9be42d,626b377229c10585ec392f89,626b3aaf327281b47670ba1d,,,,,,,,,,,,,,,,,,,,,,,l,1,"[""0.369"",""0.176"",""0.606"",""0.727""]","[0,1,1,1]",0,57,57,57,1,1,1,,,0,FALSE,0.768,,,,,,,,,,,,,,,,,,,,,,,,,,,,,,
,,001,2022-04-28_20h09.40.283,classification_task,2021.2.3,Win32,59.61251863,5f68f02c41716709ee9be42d,626b377229c10585ec392f89,626b3aaf327281b47670ba1d,,,,,,,,,,,,,,,,,,,,,,,l,1,"[""0.959"",""0.233"",""0.495"",""0.834""]","[0,1,1,1]",0,58,58,58,1,1,0,,,0,FALSE,1.4088,,,,,,,,,,,,,,,,,,,,,,,,,,,,,,
,,001,2022-04-28_20h09.40.283,classification_task,2021.2.3,Win32,59.61251863,5f68f02c41716709ee9be42d,626b377229c10585ec392f89,626b3aaf327281b47670ba1d,,,,,,,,,,,,,,,,,,,,,,,l,0,"[""0.278"",""0.674"",""0.566"",""0.917""]","[1,0,1,1]",0,59,59,59,1,0,0,,,0,FALSE,1.2324,,,,,,,,,,,,,,,,,,,,,,,,,,,,,,
,,001,2022-04-28_20h09.40.283,classification_task,2021.2.3,Win32,59.61251863,5f68f02c41716709ee9be42d,626b377229c10585ec392f89,626b3aaf327281b47670ba1d,,,,,,,,,,,,,,,,,,,,,,,a,1,"[""0.323"",""0.421"",""0.674"",""0.873""]","[1,1,0,1]",0,60,60,60,1,0,1,,,0,FALSE,0.6015,,,,,,,,,,,,,,,,,,,,,,,,,,,,,,
,,001,2022-04-28_20h09.40.283,classification_task,2021.2.3,Win32,59.61251863,5f68f02c41716709ee9be42d,626b377229c10585ec392f89,626b3aaf327281b47670ba1d,,,,,,,,,,,,,,,,,,,,,,,l,1,"[""0.119"",""0.176"",""0.606"",""0.674""]","[1,1,1,0]",0,61,61,61,1,1,1,,,0,FALSE,1.0183,,,,,,,,,,,,,,,,,,,,,,,,,,,,,,
,,001,2022-04-28_20h09.40.283,classification_task,2021.2.3,Win32,59.61251863,5f68f02c41716709ee9be42d,626b377229c10585ec392f89,626b3aaf327281b47670ba1d,,,,,,,,,,,,,,,,,,,,,,,l,0,"[""0.278"",""0.461"",""0.566"",""0.532""]","[1,1,1,0]",0,62,62,62,1,0,0,,,0,FALSE,0.673,,,,,,,,,,,,,,,,,,,,,,,,,,,,,,
,,001,2022-04-28_20h09.40.283,classification_task,2021.2.3,Win32,59.61251863,5f68f02c41716709ee9be42d,626b377229c10585ec392f89,626b3aaf327281b47670ba1d,,,,,,,,,,,,,,,,,,,,,,,a,1,"[""0.323"",""0.369"",""0.773"",""0.873""]","[1,0,1,1]",0,63,63,63,1,0,1,,,0,FALSE,1.0881,,,,,,,,,,,,,,,,,,,,,,,,,,,,,,
,,001,2022-04-28_20h09.40.283,classification_task,2021.2.3,Win32,59.61251863,5f68f02c41716709ee9be42d,626b377229c10585ec392f89,626b3aaf327281b47670ba1d,,,,,,,,,,,,,,,,,,,,,,,,,,,,,,,,,,,,,,,0, ,,0,1.738421396,310.6182,0,0,0,0,1,2,1,,,,,,,,,,,,,,,,,
,,001,2022-04-28_20h09.40.283,classification_task,2021.2.3,Win32,59.61251863,5f68f02c41716709ee9be42d,626b377229c10585ec392f89,626b3aaf327281b47670ba1d,,,,,,,,,,,,,,,,,,,,,,,,,,,,,,,,,,,,,,,1,  ,,0,1.496822981,315.4919,0,0,0,0,1,2,1,,,,,,,,,,,,,,,,,
,,001,2022-04-28_20h09.40.283,classification_task,2021.2.3,Win32,59.61251863,5f68f02c41716709ee9be42d,626b377229c10585ec392f89,626b3aaf327281b47670ba1d,,,,,,,,,,,,,,,,,,,,,,,,,,,,,,,,,,,,,,,2,  ,,0,7.496516956,325.4017,0,0,0,0,1,2,1,,,,,,,,,,,,,,,,,
,,001,2022-04-28_20h09.40.283,classification_task,2021.2.3,Win32,59.61251863,5f68f02c41716709ee9be42d,626b377229c10585ec392f89,626b3aaf327281b47670ba1d,,,,,,,,,,,,,,,,,,,,,,,,,,,,,,,,,,,,,,,,,,,,,0,0,0,0,1,,1,,,,,,,,,,,,,,,,,
,,001,2022-04-28_20h09.40.283,classification_task,2021.2.3,Win32,59.61251863,5f68f02c41716709ee9be42d,626b377229c10585ec392f89,626b3aaf327281b47670ba1d,,,,,,,,,,,,,,,,,,,,,space,8.5804,a,1,"[""0.323"",""0.421"",""0.773"",""0.374""]","[1,1,1,0]",0,0,0,0,1,0,1,,,0,FALSE,4.2479,,,,,,,,,,,,,,,,,,,,,,,,,,,,,,
,,001,2022-04-28_20h09.40.283,classification_task,2021.2.3,Win32,59.61251863,5f68f02c41716709ee9be42d,626b377229c10585ec392f89,626b3aaf327281b47670ba1d,,,,,,,,,,,,,,,,,,,,,,,l,1,"[""0.058"",""0.233"",""0.674"",""0.834""]","[1,1,0,1]",0,1,1,1,1,1,0,,,0,FALSE,2.842,,,,,,,,,,,,,,,,,,,,,,,,,,,,,,
,,001,2022-04-28_20h09.40.283,classification_task,2021.2.3,Win32,59.61251863,5f68f02c41716709ee9be42d,626b377229c10585ec392f89,626b3aaf327281b47670ba1d,,,,,,,,,,,,,,,,,,,,,,,a,1,"[""0.278"",""0.532"",""0.566"",""0.917""]","[1,0,1,1]",0,2,2,2,1,0,0,,,0,FALSE,1.1021,,,,,,,,,,,,,,,,,,,,,,,,,,,,,,
,,001,2022-04-28_20h09.40.283,classification_task,2021.2.3,Win32,59.61251863,5f68f02c41716709ee9be42d,626b377229c10585ec392f89,626b3aaf327281b47670ba1d,,,,,,,,,,,,,,,,,,,,,,,a,0,"[""0.119"",""0.176"",""0.606"",""0.532""]","[1,1,1,0]",0,3,3,3,1,1,1,,,0,FALSE,2.0887,,,,,,,,,,,,,,,,,,,,,,,,,,,,,,
,,001,2022-04-28_20h09.40.283,classification_task,2021.2.3,Win32,59.61251863,5f68f02c41716709ee9be42d,626b377229c10585ec392f89,626b3aaf327281b47670ba1d,,,,,,,,,,,,,,,,,,,,,,,l,1,"[""0.119"",""0.362"",""0.606"",""0.727""]","[1,0,1,1]",0,4,4,4,1,1,1,,,0,FALSE,1.1706,,,,,,,,,,,,,,,,,,,,,,,,,,,,,,
,,001,2022-04-28_20h09.40.283,classification_task,2021.2.3,Win32,59.61251863,5f68f02c41716709ee9be42d,626b377229c10585ec392f89,626b3aaf327281b47670ba1d,,,,,,,,,,,,,,,,,,,,,,,l,0,"[""0.674"",""0.421"",""0.773"",""0.873""]","[0,1,1,1]",0,5,5,5,1,0,1,,,0,FALSE,0.8693,,,,,,,,,,,,,,,,,,,,,,,,,,,,,,
,,001,2022-04-28_20h09.40.283,classification_task,2021.2.3,Win32,59.61251863,5f68f02c41716709ee9be42d,626b377229c10585ec392f89,626b3aaf327281b47670ba1d,,,,,,,,,,,,,,,,,,,,,,,a,0,"[""0.374"",""0.176"",""0.606"",""0.727""]","[0,1,1,1]",0,6,6,6,1,1,1,,,0,FALSE,1.3709,,,,,,,,,,,,,,,,,,,,,,,,,,,,,,
,,001,2022-04-28_20h09.40.283,classification_task,2021.2.3,Win32,59.61251863,5f68f02c41716709ee9be42d,626b377229c10585ec392f89,626b3aaf327281b47670ba1d,,,,,,,,,,,,,,,,,,,,,,,l,0,"[""0.651"",""0.461"",""0.566"",""0.917""]","[0,1,1,1]",0,7,7,7,1,0,0,,,0,FALSE,2.2064,,,,,,,,,,,,,,,,,,,,,,,,,,,,,,
,,001,2022-04-28_20h09.40.283,classification_task,2021.2.3,Win32,59.61251863,5f68f02c41716709ee9be42d,626b377229c10585ec392f89,626b3aaf327281b47670ba1d,,,,,,,,,,,,,,,,,,,,,,,a,1,"[""0.323"",""0.379"",""0.773"",""0.873""]","[1,0,1,1]",0,8,8,8,1,0,1,,,0,FALSE,1.7053,,,,,,,,,,,,,,,,,,,,,,,,,,,,,,
,,001,2022-04-28_20h09.40.283,classification_task,2021.2.3,Win32,59.61251863,5f68f02c41716709ee9be42d,626b377229c10585ec392f89,626b3aaf327281b47670ba1d,,,,,,,,,,,,,,,,,,,,,,,l,1,"[""0.058"",""0.362"",""0.495"",""0.834""]","[1,0,1,1]",0,9,9,9,1,1,0,,,0,FALSE,1.5208,,,,,,,,,,,,,,,,,,,,,,,,,,,,,,
,,001,2022-04-28_20h09.40.283,classification_task,2021.2.3,Win32,59.61251863,5f68f02c41716709ee9be42d,626b377229c10585ec392f89,626b3aaf327281b47670ba1d,,,,,,,,,,,,,,,,,,,,,,,a,1,"[""0.278"",""0.461"",""0.369"",""0.917""]","[1,1,0,1]",0,10,10,10,1,0,0,,,0,FALSE,1.0861,,,,,,,,,,,,,,,,,,,,,,,,,,,,,,
,,001,2022-04-28_20h09.40.283,classification_task,2021.2.3,Win32,59.61251863,5f68f02c41716709ee9be42d,626b377229c10585ec392f89,626b3aaf327281b47670ba1d,,,,,,,,,,,,,,,,,,,,,,,l,1,"[""0.058"",""0.233"",""0.495"",""0.377""]","[1,1,1,0]",0,11,11,11,1,1,0,,,0,FALSE,1.5379,,,,,,,,,,,,,,,,,,,,,,,,,,,,,,
,,001,2022-04-28_20h09.40.283,classification_task,2021.2.3,Win32,59.61251863,5f68f02c41716709ee9be42d,626b377229c10585ec392f89,626b3aaf327281b47670ba1d,,,,,,,,,,,,,,,,,,,,,,,a,1,"[""0.278"",""0.461"",""0.566"",""0.651""]","[1,1,1,0]",0,12,12,12,1,0,0,,,0,FALSE,0.8694,,,,,,,,,,,,,,,,,,,,,,,,,,,,,,
,,001,2022-04-28_20h09.40.283,classification_task,2021.2.3,Win32,59.61251863,5f68f02c41716709ee9be42d,626b377229c10585ec392f89,626b3aaf327281b47670ba1d,,,,,,,,,,,,,,,,,,,,,,,l,0,"[""0.323"",""0.421"",""0.959"",""0.873""]","[1,1,0,1]",0,13,13,13,1,0,1,,,0,FALSE,1.471,,,,,,,,,,,,,,,,,,,,,,,,,,,,,,
,,001,2022-04-28_20h09.40.283,classification_task,2021.2.3,Win32,59.61251863,5f68f02c41716709ee9be42d,626b377229c10585ec392f89,626b3aaf327281b47670ba1d,,,,,,,,,,,,,,,,,,,,,,,a,0,"[""0.119"",""0.176"",""0.959"",""0.727""]","[1,1,0,1]",0,14,14,14,1,1,1,,,0,FALSE,0.9358,,,,,,,,,,,,,,,,,,,,,,,,,,,,,,
,,001,2022-04-28_20h09.40.283,classification_task,2021.2.3,Win32,59.61251863,5f68f02c41716709ee9be42d,626b377229c10585ec392f89,626b3aaf327281b47670ba1d,,,,,,,,,,,,,,,,,,,,,,,l,1,"[""0.692"",""0.233"",""0.495"",""0.834""]","[0,1,1,1]",0,15,15,15,1,1,0,,,0,FALSE,1.2873,,,,,,,,,,,,,,,,,,,,,,,,,,,,,,
,,001,2022-04-28_20h09.40.283,classification_task,2021.2.3,Win32,59.61251863,5f68f02c41716709ee9be42d,626b377229c10585ec392f89,626b3aaf327281b47670ba1d,,,,,,,,,,,,,,,,,,,,,,,l,0,"[""0.323"",""0.421"",""0.773"",""0.674""]","[1,1,1,0]",0,16,16,16,1,0,1,,,0,FALSE,1.3365,,,,,,,,,,,,,,,,,,,,,,,,,,,,,,
,,001,2022-04-28_20h09.40.283,classification_task,2021.2.3,Win32,59.61251863,5f68f02c41716709ee9be42d,626b377229c10585ec392f89,626b3aaf327281b47670ba1d,,,,,,,,,,,,,,,,,,,,,,,l,1,"[""0.058"",""0.233"",""0.959"",""0.834""]","[1,1,0,1]",0,17,17,17,1,1,0,,,0,FALSE,1.0513,,,,,,,,,,,,,,,,,,,,,,,,,,,,,,
,,001,2022-04-28_20h09.40.283,classification_task,2021.2.3,Win32,59.61251863,5f68f02c41716709ee9be42d,626b377229c10585ec392f89,626b3aaf327281b47670ba1d,,,,,,,,,,,,,,,,,,,,,,,a,0,"[""0.359"",""0.176"",""0.606"",""0.727""]","[0,1,1,1]",0,18,18,18,1,1,1,,,0,FALSE,0.8192,,,,,,,,,,,,,,,,,,,,,,,,,,,,,,
,,001,2022-04-28_20h09.40.283,classification_task,2021.2.3,Win32,59.61251863,5f68f02c41716709ee9be42d,626b377229c10585ec392f89,626b3aaf327281b47670ba1d,,,,,,,,,,,,,,,,,,,,,,,a,1,"[""0.278"",""0.674"",""0.566"",""0.917""]","[1,0,1,1]",0,19,19,19,1,0,0,,,0,FALSE,1.1034,,,,,,,,,,,,,,,,,,,,,,,,,,,,,,
,,001,2022-04-28_20h09.40.283,classification_task,2021.2.3,Win32,59.61251863,5f68f02c41716709ee9be42d,626b377229c10585ec392f89,626b3aaf327281b47670ba1d,,,,,,,,,,,,,,,,,,,,,,,l,0,"[""0.323"",""0.421"",""0.375"",""0.873""]","[1,1,0,1]",0,20,20,20,1,0,1,,,0,FALSE,0.8353,,,,,,,,,,,,,,,,,,,,,,,,,,,,,,
,,001,2022-04-28_20h09.40.283,classification_task,2021.2.3,Win32,59.61251863,5f68f02c41716709ee9be42d,626b377229c10585ec392f89,626b3aaf327281b47670ba1d,,,,,,,,,,,,,,,,,,,,,,,l,1,"[""0.361"",""0.233"",""0.495"",""0.834""]","[0,1,1,1]",0,21,21,21,1,1,0,,,0,FALSE,1.0192,,,,,,,,,,,,,,,,,,,,,,,,,,,,,,
,,001,2022-04-28_20h09.40.283,classification_task,2021.2.3,Win32,59.61251863,5f68f02c41716709ee9be42d,626b377229c10585ec392f89,626b3aaf327281b47670ba1d,,,,,,,,,,,,,,,,,,,,,,,a,1,"[""0.379"",""0.421"",""0.773"",""0.873""]","[0,1,1,1]",0,22,22,22,1,0,1,,,0,FALSE,0.9684,,,,,,,,,,,,,,,,,,,,,,,,,,,,,,
,,001,2022-04-28_20h09.40.283,classification_task,2021.2.3,Win32,59.61251863,5f68f02c41716709ee9be42d,626b377229c10585ec392f89,626b3aaf327281b47670ba1d,,,,,,,,,,,,,,,,,,,,,,,l,1,"[""0.119"",""0.361"",""0.606"",""0.727""]","[1,0,1,1]",0,23,23,23,1,1,1,,,0,FALSE,0.7864,,,,,,,,,,,,,,,,,,,,,,,,,,,,,,
,,001,2022-04-28_20h09.40.283,classification_task,2021.2.3,Win32,59.61251863,5f68f02c41716709ee9be42d,626b377229c10585ec392f89,626b3aaf327281b47670ba1d,,,,,,,,,,,,,,,,,,,,,,,a,1,"[""0.278"",""0.461"",""0.674"",""0.917""]","[1,1,0,1]",0,24,24,24,1,0,0,,,0,FALSE,1.1364,,,,,,,,,,,,,,,,,,,,,,,,,,,,,,
,,001,2022-04-28_20h09.40.283,classification_task,2021.2.3,Win32,59.61251863,5f68f02c41716709ee9be42d,626b377229c10585ec392f89,626b3aaf327281b47670ba1d,,,,,,,,,,,,,,,,,,,,,,,a,0,"[""0.119"",""0.176"",""0.606"",""0.674""]","[1,1,1,0]",0,25,25,25,1,1,1,,,0,FALSE,0.685,,,,,,,,,,,,,,,,,,,,,,,,,,,,,,
,,001,2022-04-28_20h09.40.283,classification_task,2021.2.3,Win32,59.61251863,5f68f02c41716709ee9be42d,626b377229c10585ec392f89,626b3aaf327281b47670ba1d,,,,,,,,,,,,,,,,,,,,,,,l,1,"[""0.119"",""0.176"",""0.374"",""0.727""]","[1,1,0,1]",0,26,26,26,1,1,1,,,0,FALSE,0.6855,,,,,,,,,,,,,,,,,,,,,,,,,,,,,,
,,001,2022-04-28_20h09.40.283,classification_task,2021.2.3,Win32,59.61251863,5f68f02c41716709ee9be42d,626b377229c10585ec392f89,626b3aaf327281b47670ba1d,,,,,,,,,,,,,,,,,,,,,,,l,1,"[""0.058"",""0.233"",""0.495"",""0.374""]","[1,1,1,0]",0,27,27,27,1,1,0,,,0,FALSE,0.8671,,,,,,,,,,,,,,,,,,,,,,,,,,,,,,
,,001,2022-04-28_20h09.40.283,classification_task,2021.2.3,Win32,59.61251863,5f68f02c41716709ee9be42d,626b377229c10585ec392f89,626b3aaf327281b47670ba1d,,,,,,,,,,,,,,,,,,,,,,,a,1,"[""0.278"",""0.461"",""0.566"",""0.532""]","[1,1,1,0]",0,28,28,28,1,0,0,,,0,FALSE,0.6016,,,,,,,,,,,,,,,,,,,,,,,,,,,,,,
,,001,2022-04-28_20h09.40.283,classification_task,2021.2.3,Win32,59.61251863,5f68f02c41716709ee9be42d,626b377229c10585ec392f89,626b3aaf327281b47670ba1d,,,,,,,,,,,,,,,,,,,,,,,a,1,"[""0.323"",""0.674"",""0.773"",""0.873""]","[1,0,1,1]",0,29,29,29,1,0,1,,,0,FALSE,0.9151,,,,,,,,,,,,,,,,,,,,,,,,,,,,,,
,,001,2022-04-28_20h09.40.283,classification_task,2021.2.3,Win32,59.61251863,5f68f02c41716709ee9be42d,626b377229c10585ec392f89,626b3aaf327281b47670ba1d,,,,,,,,,,,,,,,,,,,,,,,l,1,"[""0.058"",""0.674"",""0.495"",""0.834""]","[1,0,1,1]",0,30,30,30,1,1,0,,,0,FALSE,0.9367,,,,,,,,,,,,,,,,,,,,,,,,,,,,,,
,,001,2022-04-28_20h09.40.283,classification_task,2021.2.3,Win32,59.61251863,5f68f02c41716709ee9be42d,626b377229c10585ec392f89,626b3aaf327281b47670ba1d,,,,,,,,,,,,,,,,,,,,,,,a,1,"[""0.359"",""0.461"",""0.566"",""0.917""]","[0,1,1,1]",0,31,31,31,1,0,0,,,0,FALSE,0.8356,,,,,,,,,,,,,,,,,,,,,,,,,,,,,,
,,001,2022-04-28_20h09.40.283,classification_task,2021.2.3,Win32,59.61251863,5f68f02c41716709ee9be42d,626b377229c10585ec392f89,626b3aaf327281b47670ba1d,,,,,,,,,,,,,,,,,,,,,,,l,0,"[""0.323"",""0.692"",""0.773"",""0.873""]","[1,0,1,1]",0,32,32,32,1,0,1,,,0,FALSE,0.6677,,,,,,,,,,,,,,,,,,,,,,,,,,,,,,
,,001,2022-04-28_20h09.40.283,classification_task,2021.2.3,Win32,59.61251863,5f68f02c41716709ee9be42d,626b377229c10585ec392f89,626b3aaf327281b47670ba1d,,,,,,,,,,,,,,,,,,,,,,,l,1,"[""0.119"",""0.369"",""0.606"",""0.727""]","[1,0,1,1]",0,33,33,33,1,1,1,,,0,FALSE,0.6516,,,,,,,,,,,,,,,,,,,,,,,,,,,,,,
,,001,2022-04-28_20h09.40.283,classification_task,2021.2.3,Win32,59.61251863,5f68f02c41716709ee9be42d,626b377229c10585ec392f89,626b3aaf327281b47670ba1d,,,,,,,,,,,,,,,,,,,,,,,a,1,"[""0.323"",""0.421"",""0.773"",""0.377""]","[1,1,1,0]",0,34,34,34,1,0,1,,,0,FALSE,0.9023,,,,,,,,,,,,,,,,,,,,,,,,,,,,,,
,,001,2022-04-28_20h09.40.283,classification_task,2021.2.3,Win32,59.61251863,5f68f02c41716709ee9be42d,626b377229c10585ec392f89,626b3aaf327281b47670ba1d,,,,,,,,,,,,,,,,,,,,,,,l,1,"[""0.361"",""0.233"",""0.495"",""0.834""]","[0,1,1,1]",0,35,35,35,1,1,0,,,0,FALSE,1.1035,,,,,,,,,,,,,,,,,,,,,,,,,,,,,,
,,001,2022-04-28_20h09.40.283,classification_task,2021.2.3,Win32,59.61251863,5f68f02c41716709ee9be42d,626b377229c10585ec392f89,626b3aaf327281b47670ba1d,,,,,,,,,,,,,,,,,,,,,,,l,1,"[""0.058"",""0.233"",""0.374"",""0.834""]","[1,1,0,1]",0,36,36,36,1,1,0,,,0,FALSE,1.2872,,,,,,,,,,,,,,,,,,,,,,,,,,,,,,
,,001,2022-04-28_20h09.40.283,classification_task,2021.2.3,Win32,59.61251863,5f68f02c41716709ee9be42d,626b377229c10585ec392f89,626b3aaf327281b47670ba1d,,,,,,,,,,,,,,,,,,,,,,,a,1,"[""0.692"",""0.421"",""0.773"",""0.873""]","[0,1,1,1]",0,37,37,37,1,0,1,,,0,FALSE,0.7521,,,,,,,,,,,,,,,,,,,,,,,,,,,,,,
,,001,2022-04-28_20h09.40.283,classification_task,2021.2.3,Win32,59.61251863,5f68f02c41716709ee9be42d,626b377229c10585ec392f89,626b3aaf327281b47670ba1d,,,,,,,,,,,,,,,,,,,,,,,a,1,"[""0.323"",""0.421"",""0.379"",""0.873""]","[1,1,0,1]",0,38,38,38,1,0,1,,,0,FALSE,0.6011,,,,,,,,,,,,,,,,,,,,,,,,,,,,,,
,,001,2022-04-28_20h09.40.283,classification_task,2021.2.3,Win32,59.61251863,5f68f02c41716709ee9be42d,626b377229c10585ec392f89,626b3aaf327281b47670ba1d,,,,,,,,,,,,,,,,,,,,,,,a,1,"[""0.278"",""0.374"",""0.566"",""0.917""]","[1,0,1,1]",0,39,39,39,1,0,0,,,0,FALSE,1.0683,,,,,,,,,,,,,,,,,,,,,,,,,,,,,,
,,001,2022-04-28_20h09.40.283,classification_task,2021.2.3,Win32,59.61251863,5f68f02c41716709ee9be42d,626b377229c10585ec392f89,626b3aaf327281b47670ba1d,,,,,,,,,,,,,,,,,,,,,,,a,1,"[""0.278"",""0.461"",""0.532"",""0.917""]","[1,1,0,1]",0,40,40,40,1,0,0,,,0,FALSE,0.8026,,,,,,,,,,,,,,,,,,,,,,,,,,,,,,
,,001,2022-04-28_20h09.40.283,classification_task,2021.2.3,Win32,59.61251863,5f68f02c41716709ee9be42d,626b377229c10585ec392f89,626b3aaf327281b47670ba1d,,,,,,,,,,,,,,,,,,,,,,,a,1,"[""0.278"",""0.461"",""0.566"",""0.369""]","[1,1,1,0]",0,41,41,41,1,0,0,,,0,FALSE,0.5344,,,,,,,,,,,,,,,,,,,,,,,,,,,,,,
,,001,2022-04-28_20h09.40.283,classification_task,2021.2.3,Win32,59.61251863,5f68f02c41716709ee9be42d,626b377229c10585ec392f89,626b3aaf327281b47670ba1d,,,,,,,,,,,,,,,,,,,,,,,a,0,"[""0.119"",""0.176"",""0.606"",""0.651""]","[1,1,1,0]",0,42,42,42,1,1,1,,,0,FALSE,0.9357,,,,,,,,,,,,,,,,,,,,,,,,,,,,,,
,,001,2022-04-28_20h09.40.283,classification_task,2021.2.3,Win32,59.61251863,5f68f02c41716709ee9be42d,626b377229c10585ec392f89,626b3aaf327281b47670ba1d,,,,,,,,,,,,,,,,,,,,,,,l,1,"[""0.119"",""0.176"",""0.692"",""0.727""]","[1,1,0,1]",0,43,43,43,1,1,1,,,0,FALSE,0.668,,,,,,,,,,,,,,,,,,,,,,,,,,,,,,
,,001,2022-04-28_20h09.40.283,classification_task,2021.2.3,Win32,59.61251863,5f68f02c41716709ee9be42d,626b377229c10585ec392f89,626b3aaf327281b47670ba1d,,,,,,,,,,,,,,,,,,,,,,,l,1,"[""0.058"",""0.233"",""0.495"",""0.374""]","[1,1,1,0]",0,44,44,44,1,1,0,,,0,FALSE,0.7017,,,,,,,,,,,,,,,,,,,,,,,,,,,,,,
,,001,2022-04-28_20h09.40.283,classification_task,2021.2.3,Win32,59.61251863,5f68f02c41716709ee9be42d,626b377229c10585ec392f89,626b3aaf327281b47670ba1d,,,,,,,,,,,,,,,,,,,,,,,a,0,"[""0.375"",""0.176"",""0.606"",""0.727""]","[0,1,1,1]",0,45,45,45,1,1,1,,,0,FALSE,0.6511,,,,,,,,,,,,,,,,,,,,,,,,,,,,,,
,,001,2022-04-28_20h09.40.283,classification_task,2021.2.3,Win32,59.61251863,5f68f02c41716709ee9be42d,626b377229c10585ec392f89,626b3aaf327281b47670ba1d,,,,,,,,,,,,,,,,,,,,,,,l,1,"[""0.058"",""0.959"",""0.495"",""0.834""]","[1,0,1,1]",0,46,46,46,1,1,0,,,0,FALSE,0.8523,,,,,,,,,,,,,,,,,,,,,,,,,,,,,,
,,001,2022-04-28_20h09.40.283,classification_task,2021.2.3,Win32,59.61251863,5f68f02c41716709ee9be42d,626b377229c10585ec392f89,626b3aaf327281b47670ba1d,,,,,,,,,,,,,,,,,,,,,,,a,1,"[""0.361"",""0.461"",""0.566"",""0.917""]","[0,1,1,1]",0,47,47,47,1,0,0,,,0,FALSE,0.7193,,,,,,,,,,,,,,,,,,,,,,,,,,,,,,
,,001,2022-04-28_20h09.40.283,classification_task,2021.2.3,Win32,59.61251863,5f68f02c41716709ee9be42d,626b377229c10585ec392f89,626b3aaf327281b47670ba1d,,,,,,,,,,,,,,,,,,,,,,,a,1,"[""0.278"",""0.532"",""0.566"",""0.917""]","[1,0,1,1]",0,48,48,48,1,0,0,,,0,FALSE,0.6524,,,,,,,,,,,,,,,,,,,,,,,,,,,,,,
,,001,2022-04-28_20h09.40.283,classification_task,2021.2.3,Win32,59.61251863,5f68f02c41716709ee9be42d,626b377229c10585ec392f89,626b3aaf327281b47670ba1d,,,,,,,,,,,,,,,,,,,,,,,l,0,"[""0.323"",""0.674"",""0.773"",""0.873""]","[1,0,1,1]",0,49,49,49,1,0,1,,,0,FALSE,0.9517,,,,,,,,,,,,,,,,,,,,,,,,,,,,,,
,,001,2022-04-28_20h09.40.283,classification_task,2021.2.3,Win32,59.61251863,5f68f02c41716709ee9be42d,626b377229c10585ec392f89,626b3aaf327281b47670ba1d,,,,,,,,,,,,,,,,,,,,,,,a,1,"[""0.323"",""0.421"",""0.359"",""0.873""]","[1,1,0,1]",0,50,50,50,1,0,1,,,0,FALSE,0.618,,,,,,,,,,,,,,,,,,,,,,,,,,,,,,
,,001,2022-04-28_20h09.40.283,classification_task,2021.2.3,Win32,59.61251863,5f68f02c41716709ee9be42d,626b377229c10585ec392f89,626b3aaf327281b47670ba1d,,,,,,,,,,,,,,,,,,,,,,,l,1,"[""0.058"",""0.369"",""0.495"",""0.834""]","[1,0,1,1]",0,51,51,51,1,1,0,,,0,FALSE,0.5508,,,,,,,,,,,,,,,,,,,,,,,,,,,,,,
,,001,2022-04-28_20h09.40.283,classification_task,2021.2.3,Win32,59.61251863,5f68f02c41716709ee9be42d,626b377229c10585ec392f89,626b3aaf327281b47670ba1d,,,,,,,,,,,,,,,,,,,,,,,a,1,"[""0.278"",""0.461"",""0.566"",""0.674""]","[1,1,1,0]",0,52,52,52,1,0,0,,,0,FALSE,0.7524,,,,,,,,,,,,,,,,,,,,,,,,,,,,,,
,,001,2022-04-28_20h09.40.283,classification_task,2021.2.3,Win32,59.61251863,5f68f02c41716709ee9be42d,626b377229c10585ec392f89,626b3aaf327281b47670ba1d,,,,,,,,,,,,,,,,,,,,,,,a,1,"[""0.278"",""0.461"",""0.674"",""0.917""]","[1,1,0,1]",0,53,53,53,1,0,0,,,0,FALSE,0.9195,,,,,,,,,,,,,,,,,,,,,,,,,,,,,,
,,001,2022-04-28_20h09.40.283,classification_task,2021.2.3,Win32,59.61251863,5f68f02c41716709ee9be42d,626b377229c10585ec392f89,626b3aaf327281b47670ba1d,,,,,,,,,,,,,,,,,,,,,,,a,0,"[""0.119"",""0.176"",""0.606"",""0.369""]","[1,1,1,0]",0,54,54,54,1,1,1,,,0,FALSE,0.7025,,,,,,,,,,,,,,,,,,,,,,,,,,,,,,
,,001,2022-04-28_20h09.40.283,classification_task,2021.2.3,Win32,59.61251863,5f68f02c41716709ee9be42d,626b377229c10585ec392f89,626b3aaf327281b47670ba1d,,,,,,,,,,,,,,,,,,,,,,,l,1,"[""0.058"",""0.233"",""0.495"",""0.674""]","[1,1,1,0]",0,55,55,55,1,1,0,,,0,FALSE,0.7503,,,,,,,,,,,,,,,,,,,,,,,,,,,,,,
,,001,2022-04-28_20h09.40.283,classification_task,2021.2.3,Win32,59.61251863,5f68f02c41716709ee9be42d,626b377229c10585ec392f89,626b3aaf327281b47670ba1d,,,,,,,,,,,,,,,,,,,,,,,l,1,"[""0.058"",""0.233"",""0.374"",""0.834""]","[1,1,0,1]",0,56,56,56,1,1,0,,,0,FALSE,0.8697,,,,,,,,,,,,,,,,,,,,,,,,,,,,,,
,,001,2022-04-28_20h09.40.283,classification_task,2021.2.3,Win32,59.61251863,5f68f02c41716709ee9be42d,626b377229c10585ec392f89,626b3aaf327281b47670ba1d,,,,,,,,,,,,,,,,,,,,,,,a,0,"[""0.119"",""0.532"",""0.606"",""0.727""]","[1,0,1,1]",0,57,57,57,1,1,1,,,0,FALSE,0.6182,,,,,,,,,,,,,,,,,,,,,,,,,,,,,,
,,001,2022-04-28_20h09.40.283,classification_task,2021.2.3,Win32,59.61251863,5f68f02c41716709ee9be42d,626b377229c10585ec392f89,626b3aaf327281b47670ba1d,,,,,,,,,,,,,,,,,,,,,,,a,1,"[""0.323"",""0.421"",""0.773"",""0.377""]","[1,1,1,0]",0,58,58,58,1,0,1,,,0,FALSE,0.5853,,,,,,,,,,,,,,,,,,,,,,,,,,,,,,
,,001,2022-04-28_20h09.40.283,classification_task,2021.2.3,Win32,59.61251863,5f68f02c41716709ee9be42d,626b377229c10585ec392f89,626b3aaf327281b47670ba1d,,,,,,,,,,,,,,,,,,,,,,,a,1,"[""0.379"",""0.421"",""0.773"",""0.873""]","[0,1,1,1]",0,59,59,59,1,0,1,,,0,FALSE,0.6009,,,,,,,,,,,,,,,,,,,,,,,,,,,,,,
,,001,2022-04-28_20h09.40.283,classification_task,2021.2.3,Win32,59.61251863,5f68f02c41716709ee9be42d,626b377229c10585ec392f89,626b3aaf327281b47670ba1d,,,,,,,,,,,,,,,,,,,,,,,l,1,"[""0.362"",""0.233"",""0.495"",""0.834""]","[0,1,1,1]",0,60,60,60,1,1,0,,,0,FALSE,0.903,,,,,,,,,,,,,,,,,,,,,,,,,,,,,,
,,001,2022-04-28_20h09.40.283,classification_task,2021.2.3,Win32,59.61251863,5f68f02c41716709ee9be42d,626b377229c10585ec392f89,626b3aaf327281b47670ba1d,,,,,,,,,,,,,,,,,,,,,,,a,1,"[""0.674"",""0.461"",""0.566"",""0.917""]","[0,1,1,1]",0,61,61,61,1,0,0,,,0,FALSE,1.0527,,,,,,,,,,,,,,,,,,,,,,,,,,,,,,
,,001,2022-04-28_20h09.40.283,classification_task,2021.2.3,Win32,59.61251863,5f68f02c41716709ee9be42d,626b377229c10585ec392f89,626b3aaf327281b47670ba1d,,,,,,,,,,,,,,,,,,,,,,,l,1,"[""0.959"",""0.176"",""0.606"",""0.727""]","[0,1,1,1]",0,62,62,62,1,1,1,,,0,FALSE,0.6844,,,,,,,,,,,,,,,,,,,,,,,,,,,,,,
,,001,2022-04-28_20h09.40.283,classification_task,2021.2.3,Win32,59.61251863,5f68f02c41716709ee9be42d,626b377229c10585ec392f89,626b3aaf327281b47670ba1d,,,,,,,,,,,,,,,,,,,,,,,a,0,"[""0.119"",""0.176"",""0.959"",""0.727""]","[1,1,0,1]",0,63,63,63,1,1,1,,,0,FALSE,0.6182,,,,,,,,,,,,,,,,,,,,,,,,,,,,,,
,,001,2022-04-28_20h09.40.283,classification_task,2021.2.3,Win32,59.61251863,5f68f02c41716709ee9be42d,626b377229c10585ec392f89,626b3aaf327281b47670ba1d,,,,,,,,,,,,,,,,,,,,,,,,,,,,,,,,,,,,,,,0, ,,0,6.852254516,150.821,0,1,1,1,1,2,2,,,,,,,,,,,,,,,,,
,,001,2022-04-28_20h09.40.283,classification_task,2021.2.3,Win32,59.61251863,5f68f02c41716709ee9be42d,626b377229c10585ec392f89,626b3aaf327281b47670ba1d,,,,,,,,,,,,,,,,,,,,,,,,,,,,,,,,,,,,,,,1,  ,,0,0,153.6141,0,1,1,1,1,2,2,,,,,,,,,,,,,,,,,
,,001,2022-04-28_20h09.40.283,classification_task,2021.2.3,Win32,59.61251863,5f68f02c41716709ee9be42d,626b377229c10585ec392f89,626b3aaf327281b47670ba1d,,,,,,,,,,,,,,,,,,,,,,,,,,,,,,,,,,,,,,,2,  ,,0,4.597335975,157.0593,0,1,1,1,1,2,2,,,,,,,,,,,,,,,,,
,,001,2022-04-28_20h09.40.283,classification_task,2021.2.3,Win32,59.61251863,5f68f02c41716709ee9be42d,626b377229c10585ec392f89,626b3aaf327281b47670ba1d,,,,,,,,,,,,,,,,,,,,,,,,,,,,,,,,,,,,,,,,,,,,,0,1,1,1,1,,2,,,,,,,,,,,,,,,,,
,,001,2022-04-28_20h09.40.283,classification_task,2021.2.3,Win32,59.61251863,5f68f02c41716709ee9be42d,626b377229c10585ec392f89,626b3aaf327281b47670ba1d,,,,,,,,,,,,,,,,,,,,,space,9.7572,l,0,"[""0.654"",""0.421"",""0.773"",""0.873""]","[0,1,1,1]",0,0,0,0,1,0,1,,,0,FALSE,4.8675,,,,,,,,,,,,,,,,,,,,,,,,,,,,,,
,,001,2022-04-28_20h09.40.283,classification_task,2021.2.3,Win32,59.61251863,5f68f02c41716709ee9be42d,626b377229c10585ec392f89,626b3aaf327281b47670ba1d,,,,,,,,,,,,,,,,,,,,,,,a,0,"[""0.058"",""0.375"",""0.495"",""0.834""]","[1,0,1,1]",0,1,1,1,1,1,0,,,0,FALSE,1.5884,,,,,,,,,,,,,,,,,,,,,,,,,,,,,,
,,001,2022-04-28_20h09.40.283,classification_task,2021.2.3,Win32,59.61251863,5f68f02c41716709ee9be42d,626b377229c10585ec392f89,626b3aaf327281b47670ba1d,,,,,,,,,,,,,,,,,,,,,,,l,1,"[""0.119"",""0.651"",""0.606"",""0.727""]","[1,0,1,1]",0,2,2,2,1,1,1,,,0,FALSE,1.6052,,,,,,,,,,,,,,,,,,,,,,,,,,,,,,
,,001,2022-04-28_20h09.40.283,classification_task,2021.2.3,Win32,59.61251863,5f68f02c41716709ee9be42d,626b377229c10585ec392f89,626b3aaf327281b47670ba1d,,,,,,,,,,,,,,,,,,,,,,,a,0,"[""0.058"",""0.233"",""0.654"",""0.834""]","[1,1,0,1]",0,3,3,3,1,1,0,,,0,FALSE,0.9358,,,,,,,,,,,,,,,,,,,,,,,,,,,,,,
,,001,2022-04-28_20h09.40.283,classification_task,2021.2.3,Win32,59.61251863,5f68f02c41716709ee9be42d,626b377229c10585ec392f89,626b3aaf327281b47670ba1d,,,,,,,,,,,,,,,,,,,,,,,a,0,"[""0.674"",""0.233"",""0.495"",""0.834""]","[0,1,1,1]",0,4,4,4,1,1,0,,,0,FALSE,1.0037,,,,,,,,,,,,,,,,,,,,,,,,,,,,,,
,,001,2022-04-28_20h09.40.283,classification_task,2021.2.3,Win32,59.61251863,5f68f02c41716709ee9be42d,626b377229c10585ec392f89,626b3aaf327281b47670ba1d,,,,,,,,,,,,,,,,,,,,,,,l,1,"[""0.674"",""0.176"",""0.606"",""0.727""]","[0,1,1,1]",0,5,5,5,1,1,1,,,0,FALSE,0.9688,,,,,,,,,,,,,,,,,,,,,,,,,,,,,,
,,001,2022-04-28_20h09.40.283,classification_task,2021.2.3,Win32,59.61251863,5f68f02c41716709ee9be42d,626b377229c10585ec392f89,626b3aaf327281b47670ba1d,,,,,,,,,,,,,,,,,,,,,,,l,1,"[""0.119"",""0.176"",""0.606"",""0.674""]","[1,1,1,0]",0,6,6,6,1,1,1,,,0,FALSE,1.4885,,,,,,,,,,,,,,,,,,,,,,,,,,,,,,
,,001,2022-04-28_20h09.40.283,classification_task,2021.2.3,Win32,59.61251863,5f68f02c41716709ee9be42d,626b377229c10585ec392f89,626b3aaf327281b47670ba1d,,,,,,,,,,,,,,,,,,,,,,,a,1,"[""0.278"",""0.461"",""0.566"",""0.379""]","[1,1,1,0]",0,7,7,7,1,0,0,,,0,FALSE,0.8188,,,,,,,,,,,,,,,,,,,,,,,,,,,,,,
,,001,2022-04-28_20h09.40.283,classification_task,2021.2.3,Win32,59.61251863,5f68f02c41716709ee9be42d,626b377229c10585ec392f89,626b3aaf327281b47670ba1d,,,,,,,,,,,,,,,,,,,,,,,l,0,"[""0.359"",""0.461"",""0.566"",""0.917""]","[0,1,1,1]",0,8,8,8,1,0,0,,,0,FALSE,1.8899,,,,,,,,,,,,,,,,,,,,,,,,,,,,,,
,,001,2022-04-28_20h09.40.283,classification_task,2021.2.3,Win32,59.61251863,5f68f02c41716709ee9be42d,626b377229c10585ec392f89,626b3aaf327281b47670ba1d,,,,,,,,,,,,,,,,,,,,,,,l,0,"[""0.278"",""0.461"",""0.375"",""0.917""]","[1,1,0,1]",0,9,9,9,1,0,0,,,0,FALSE,0.7695,,,,,,,,,,,,,,,,,,,,,,,,,,,,,,
,,001,2022-04-28_20h09.40.283,classification_task,2021.2.3,Win32,59.61251863,5f68f02c41716709ee9be42d,626b377229c10585ec392f89,626b3aaf327281b47670ba1d,,,,,,,,,,,,,,,,,,,,,,,a,0,"[""0.058"",""0.233"",""0.495"",""0.379""]","[1,1,1,0]",0,10,10,10,1,1,0,,,0,FALSE,0.5525,,,,,,,,,,,,,,,,,,,,,,,,,,,,,,
,,001,2022-04-28_20h09.40.283,classification_task,2021.2.3,Win32,59.61251863,5f68f02c41716709ee9be42d,626b377229c10585ec392f89,626b3aaf327281b47670ba1d,,,,,,,,,,,,,,,,,,,,,,,l,0,"[""0.323"",""0.421"",""0.773"",""0.359""]","[1,1,1,0]",0,11,11,11,1,0,1,,,0,FALSE,0.7521,,,,,,,,,,,,,,,,,,,,,,,,,,,,,,
,,001,2022-04-28_20h09.40.283,classification_task,2021.2.3,Win32,59.61251863,5f68f02c41716709ee9be42d,626b377229c10585ec392f89,626b3aaf327281b47670ba1d,,,,,,,,,,,,,,,,,,,,,,,l,0,"[""0.278"",""0.692"",""0.566"",""0.917""]","[1,0,1,1]",0,12,12,12,1,0,0,,,0,FALSE,0.6694,,,,,,,,,,,,,,,,,,,,,,,,,,,,,,
,,001,2022-04-28_20h09.40.283,classification_task,2021.2.3,Win32,59.61251863,5f68f02c41716709ee9be42d,626b377229c10585ec392f89,626b3aaf327281b47670ba1d,,,,,,,,,,,,,,,,,,,,,,,a,1,"[""0.323"",""0.421"",""0.369"",""0.873""]","[1,1,0,1]",0,13,13,13,1,0,1,,,0,FALSE,0.3166,,,,,,,,,,,,,,,,,,,,,,,,,,,,,,
,,001,2022-04-28_20h09.40.283,classification_task,2021.2.3,Win32,59.61251863,5f68f02c41716709ee9be42d,626b377229c10585ec392f89,626b3aaf327281b47670ba1d,,,,,,,,,,,,,,,,,,,,,,,a,1,"[""0.323"",""0.654"",""0.773"",""0.873""]","[1,0,1,1]",0,14,14,14,1,0,1,,,0,FALSE,0.6185,,,,,,,,,,,,,,,,,,,,,,,,,,,,,,
,,001,2022-04-28_20h09.40.283,classification_task,2021.2.3,Win32,59.61251863,5f68f02c41716709ee9be42d,626b377229c10585ec392f89,626b3aaf327281b47670ba1d,,,,,,,,,,,,,,,,,,,,,,,a,0,"[""0.119"",""0.176"",""0.674"",""0.727""]","[1,1,0,1]",0,15,15,15,1,1,1,,,0,FALSE,0.8694,,,,,,,,,,,,,,,,,,,,,,,,,,,,,,
,,001,2022-04-28_20h09.40.283,classification_task,2021.2.3,Win32,59.61251863,5f68f02c41716709ee9be42d,626b377229c10585ec392f89,626b3aaf327281b47670ba1d,,,,,,,,,,,,,,,,,,,,,,,a,1,"[""0.278"",""0.461"",""0.359"",""0.917""]","[1,1,0,1]",0,16,16,16,1,0,0,,,0,FALSE,0.6535,,,,,,,,,,,,,,,,,,,,,,,,,,,,,,
,,001,2022-04-28_20h09.40.283,classification_task,2021.2.3,Win32,59.61251863,5f68f02c41716709ee9be42d,626b377229c10585ec392f89,626b3aaf327281b47670ba1d,,,,,,,,,,,,,,,,,,,,,,,l,0,"[""0.278"",""0.651"",""0.566"",""0.917""]","[1,0,1,1]",0,17,17,17,1,0,0,,,0,FALSE,0.4008,,,,,,,,,,,,,,,,,,,,,,,,,,,,,,
,,001,2022-04-28_20h09.40.283,classification_task,2021.2.3,Win32,59.61251863,5f68f02c41716709ee9be42d,626b377229c10585ec392f89,626b3aaf327281b47670ba1d,,,,,,,,,,,,,,,,,,,,,,,a,1,"[""0.323"",""0.421"",""0.773"",""0.377""]","[1,1,1,0]",0,18,18,18,1,0,1,,,0,FALSE,0.6852,,,,,,,,,,,,,,,,,,,,,,,,,,,,,,
,,001,2022-04-28_20h09.40.283,classification_task,2021.2.3,Win32,59.61251863,5f68f02c41716709ee9be42d,626b377229c10585ec392f89,626b3aaf327281b47670ba1d,,,,,,,,,,,,,,,,,,,,,,,l,0,"[""0.278"",""0.461"",""0.566"",""0.674""]","[1,1,1,0]",0,19,19,19,1,0,0,,,0,FALSE,1.0535,,,,,,,,,,,,,,,,,,,,,,,,,,,,,,
,,001,2022-04-28_20h09.40.283,classification_task,2021.2.3,Win32,59.61251863,5f68f02c41716709ee9be42d,626b377229c10585ec392f89,626b3aaf327281b47670ba1d,,,,,,,,,,,,,,,,,,,,,,,a,1,"[""0.323"",""0.959"",""0.773"",""0.873""]","[1,0,1,1]",0,20,20,20,1,0,1,,,0,FALSE,1.7387,,,,,,,,,,,,,,,,,,,,,,,,,,,,,,
,,001,2022-04-28_20h09.40.283,classification_task,2021.2.3,Win32,59.61251863,5f68f02c41716709ee9be42d,626b377229c10585ec392f89,626b3aaf327281b47670ba1d,,,,,,,,,,,,,,,,,,,,,,,l,0,"[""0.374"",""0.421"",""0.773"",""0.873""]","[0,1,1,1]",0,21,21,21,1,0,1,,,0,FALSE,1.3719,,,,,,,,,,,,,,,,,,,,,,,,,,,,,,
,,001,2022-04-28_20h09.40.283,classification_task,2021.2.3,Win32,59.61251863,5f68f02c41716709ee9be42d,626b377229c10585ec392f89,626b3aaf327281b47670ba1d,,,,,,,,,,,,,,,,,,,,,,,l,1,"[""0.058"",""0.233"",""0.692"",""0.834""]","[1,1,0,1]",0,22,22,22,1,1,0,,,0,FALSE,1.0362,,,,,,,,,,,,,,,,,,,,,,,,,,,,,,
,,001,2022-04-28_20h09.40.283,classification_task,2021.2.3,Win32,59.61251863,5f68f02c41716709ee9be42d,626b377229c10585ec392f89,626b3aaf327281b47670ba1d,,,,,,,,,,,,,,,,,,,,,,,a,1,"[""0.651"",""0.461"",""0.566"",""0.917""]","[0,1,1,1]",0,23,23,23,1,0,0,,,0,FALSE,0.86,,,,,,,,,,,,,,,,,,,,,,,,,,,,,,
,,001,2022-04-28_20h09.40.283,classification_task,2021.2.3,Win32,59.61251863,5f68f02c41716709ee9be42d,626b377229c10585ec392f89,626b3aaf327281b47670ba1d,,,,,,,,,,,,,,,,,,,,,,,l,1,"[""0.374"",""0.233"",""0.495"",""0.834""]","[0,1,1,1]",0,24,24,24,1,1,0,,,0,FALSE,1.0259,,,,,,,,,,,,,,,,,,,,,,,,,,,,,,
,,001,2022-04-28_20h09.40.283,classification_task,2021.2.3,Win32,59.61251863,5f68f02c41716709ee9be42d,626b377229c10585ec392f89,626b3aaf327281b47670ba1d,,,,,,,,,,,,,,,,,,,,,,,a,0,"[""0.058"",""0.233"",""0.495"",""0.359""]","[1,1,1,0]",0,25,25,25,1,1,0,,,0,FALSE,1.1303,,,,,,,,,,,,,,,,,,,,,,,,,,,,,,
,,001,2022-04-28_20h09.40.283,classification_task,2021.2.3,Win32,59.61251863,5f68f02c41716709ee9be42d,626b377229c10585ec392f89,626b3aaf327281b47670ba1d,,,,,,,,,,,,,,,,,,,,,,,a,0,"[""0.058"",""0.362"",""0.495"",""0.834""]","[1,0,1,1]",0,26,26,26,1,1,0,,,0,FALSE,1.2225,,,,,,,,,,,,,,,,,,,,,,,,,,,,,,
,,001,2022-04-28_20h09.40.283,classification_task,2021.2.3,Win32,59.61251863,5f68f02c41716709ee9be42d,626b377229c10585ec392f89,626b3aaf327281b47670ba1d,,,,,,,,,,,,,,,,,,,,,,,l,0,"[""0.323"",""0.421"",""0.374"",""0.873""]","[1,1,0,1]",0,27,27,27,1,0,1,,,0,FALSE,0.919,,,,,,,,,,,,,,,,,,,,,,,,,,,,,,
,,001,2022-04-28_20h09.40.283,classification_task,2021.2.3,Win32,59.61251863,5f68f02c41716709ee9be42d,626b377229c10585ec392f89,626b3aaf327281b47670ba1d,,,,,,,,,,,,,,,,,,,,,,,l,1,"[""0.119"",""0.176"",""0.606"",""0.375""]","[1,1,1,0]",0,28,28,28,1,1,1,,,0,FALSE,1.2574,,,,,,,,,,,,,,,,,,,,,,,,,,,,,,
,,001,2022-04-28_20h09.40.283,classification_task,2021.2.3,Win32,59.61251863,5f68f02c41716709ee9be42d,626b377229c10585ec392f89,626b3aaf327281b47670ba1d,,,,,,,,,,,,,,,,,,,,,,,a,0,"[""0.654"",""0.176"",""0.606"",""0.727""]","[0,1,1,1]",0,29,29,29,1,1,1,,,0,FALSE,1.0311,,,,,,,,,,,,,,,,,,,,,,,,,,,,,,
,,001,2022-04-28_20h09.40.283,classification_task,2021.2.3,Win32,59.61251863,5f68f02c41716709ee9be42d,626b377229c10585ec392f89,626b3aaf327281b47670ba1d,,,,,,,,,,,,,,,,,,,,,,,a,0,"[""0.119"",""0.176"",""0.674"",""0.727""]","[1,1,0,1]",0,30,30,30,1,1,1,,,0,FALSE,0.9751,,,,,,,,,,,,,,,,,,,,,,,,,,,,,,
,,001,2022-04-28_20h09.40.283,classification_task,2021.2.3,Win32,59.61251863,5f68f02c41716709ee9be42d,626b377229c10585ec392f89,626b3aaf327281b47670ba1d,,,,,,,,,,,,,,,,,,,,,,,l,1,"[""0.119"",""0.674"",""0.606"",""0.727""]","[1,0,1,1]",0,31,31,31,1,1,1,,,0,FALSE,0.9521,,,,,,,,,,,,,,,,,,,,,,,,,,,,,,
,,001,2022-04-28_20h09.40.283,classification_task,2021.2.3,Win32,59.61251863,5f68f02c41716709ee9be42d,626b377229c10585ec392f89,626b3aaf327281b47670ba1d,,,,,,,,,,,,,,,,,,,,,,,l,0,"[""0.323"",""0.421"",""0.674"",""0.873""]","[1,1,0,1]",0,32,32,32,1,0,1,,,0,FALSE,1.3549,,,,,,,,,,,,,,,,,,,,,,,,,,,,,,
,,001,2022-04-28_20h09.40.283,classification_task,2021.2.3,Win32,59.61251863,5f68f02c41716709ee9be42d,626b377229c10585ec392f89,626b3aaf327281b47670ba1d,,,,,,,,,,,,,,,,,,,,,,,a,0,"[""0.654"",""0.233"",""0.495"",""0.834""]","[0,1,1,1]",0,33,33,33,1,1,0,,,0,FALSE,1.5798,,,,,,,,,,,,,,,,,,,,,,,,,,,,,,
,,001,2022-04-28_20h09.40.283,classification_task,2021.2.3,Win32,59.61251863,5f68f02c41716709ee9be42d,626b377229c10585ec392f89,626b3aaf327281b47670ba1d,,,,,,,,,,,,,,,,,,,,,,,a,0,"[""0.058"",""0.369"",""0.495"",""0.834""]","[1,0,1,1]",0,34,34,34,1,1,0,,,0,FALSE,1.5648,,,,,,,,,,,,,,,,,,,,,,,,,,,,,,
,,001,2022-04-28_20h09.40.283,classification_task,2021.2.3,Win32,59.61251863,5f68f02c41716709ee9be42d,626b377229c10585ec392f89,626b3aaf327281b47670ba1d,,,,,,,,,,,,,,,,,,,,,,,l,0,"[""0.278"",""0.461"",""0.375"",""0.917""]","[1,1,0,1]",0,35,35,35,1,0,0,,,0,FALSE,1.2206,,,,,,,,,,,,,,,,,,,,,,,,,,,,,,
,,001,2022-04-28_20h09.40.283,classification_task,2021.2.3,Win32,59.61251863,5f68f02c41716709ee9be42d,626b377229c10585ec392f89,626b3aaf327281b47670ba1d,,,,,,,,,,,,,,,,,,,,,,,a,1,"[""0.323"",""0.674"",""0.773"",""0.873""]","[1,0,1,1]",0,36,36,36,1,0,1,,,0,FALSE,1.0437,,,,,,,,,,,,,,,,,,,,,,,,,,,,,,
,,001,2022-04-28_20h09.40.283,classification_task,2021.2.3,Win32,59.61251863,5f68f02c41716709ee9be42d,626b377229c10585ec392f89,626b3aaf327281b47670ba1d,,,,,,,,,,,,,,,,,,,,,,,a,1,"[""0.278"",""0.461"",""0.566"",""0.959""]","[1,1,1,0]",0,37,37,37,1,0,0,,,0,FALSE,0.7552,,,,,,,,,,,,,,,,,,,,,,,,,,,,,,
,,001,2022-04-28_20h09.40.283,classification_task,2021.2.3,Win32,59.61251863,5f68f02c41716709ee9be42d,626b377229c10585ec392f89,626b3aaf327281b47670ba1d,,,,,,,,,,,,,,,,,,,,,,,l,1,"[""0.119"",""0.674"",""0.606"",""0.727""]","[1,0,1,1]",0,38,38,38,1,1,1,,,0,FALSE,0.7909,,,,,,,,,,,,,,,,,,,,,,,,,,,,,,
,,001,2022-04-28_20h09.40.283,classification_task,2021.2.3,Win32,59.61251863,5f68f02c41716709ee9be42d,626b377229c10585ec392f89,626b3aaf327281b47670ba1d,,,,,,,,,,,,,,,,,,,,,,,a,0,"[""0.359"",""0.176"",""0.606"",""0.727""]","[0,1,1,1]",0,39,39,39,1,1,1,,,0,FALSE,0.9049,,,,,,,,,,,,,,,,,,,,,,,,,,,,,,
,,001,2022-04-28_20h09.40.283,classification_task,2021.2.3,Win32,59.61251863,5f68f02c41716709ee9be42d,626b377229c10585ec392f89,626b3aaf327281b47670ba1d,,,,,,,,,,,,,,,,,,,,,,,a,0,"[""0.058"",""0.233"",""0.495"",""0.362""]","[1,1,1,0]",0,40,40,40,1,1,0,,,0,FALSE,0.8367,,,,,,,,,,,,,,,,,,,,,,,,,,,,,,
,,001,2022-04-28_20h09.40.283,classification_task,2021.2.3,Win32,59.61251863,5f68f02c41716709ee9be42d,626b377229c10585ec392f89,626b3aaf327281b47670ba1d,,,,,,,,,,,,,,,,,,,,,,,l,0,"[""0.278"",""0.651"",""0.566"",""0.917""]","[1,0,1,1]",0,41,41,41,1,0,0,,,0,FALSE,0.5674,,,,,,,,,,,,,,,,,,,,,,,,,,,,,,
,,001,2022-04-28_20h09.40.283,classification_task,2021.2.3,Win32,59.61251863,5f68f02c41716709ee9be42d,626b377229c10585ec392f89,626b3aaf327281b47670ba1d,,,,,,,,,,,,,,,,,,,,,,,l,0,"[""0.323"",""0.421"",""0.773"",""0.959""]","[1,1,1,0]",0,42,42,42,1,0,1,,,0,FALSE,0.8968,,,,,,,,,,,,,,,,,,,,,,,,,,,,,,
,,001,2022-04-28_20h09.40.283,classification_task,2021.2.3,Win32,59.61251863,5f68f02c41716709ee9be42d,626b377229c10585ec392f89,626b3aaf327281b47670ba1d,,,,,,,,,,,,,,,,,,,,,,,l,0,"[""0.375"",""0.461"",""0.566"",""0.917""]","[0,1,1,1]",0,43,43,43,1,0,0,,,0,FALSE,0.802,,,,,,,,,,,,,,,,,,,,,,,,,,,,,,
,,001,2022-04-28_20h09.40.283,classification_task,2021.2.3,Win32,59.61251863,5f68f02c41716709ee9be42d,626b377229c10585ec392f89,626b3aaf327281b47670ba1d,,,,,,,,,,,,,,,,,,,,,,,a,0,"[""0.119"",""0.176"",""0.606"",""0.362""]","[1,1,1,0]",0,44,44,44,1,1,1,,,0,FALSE,0.8225,,,,,,,,,,,,,,,,,,,,,,,,,,,,,,
,,001,2022-04-28_20h09.40.283,classification_task,2021.2.3,Win32,59.61251863,5f68f02c41716709ee9be42d,626b377229c10585ec392f89,626b3aaf327281b47670ba1d,,,,,,,,,,,,,,,,,,,,,,,l,1,"[""0.119"",""0.176"",""0.674"",""0.727""]","[1,1,0,1]",0,45,45,45,1,1,1,,,0,FALSE,1.3382,,,,,,,,,,,,,,,,,,,,,,,,,,,,,,
,,001,2022-04-28_20h09.40.283,classification_task,2021.2.3,Win32,59.61251863,5f68f02c41716709ee9be42d,626b377229c10585ec392f89,626b3aaf327281b47670ba1d,,,,,,,,,,,,,,,,,,,,,,,l,0,"[""0.379"",""0.421"",""0.773"",""0.873""]","[0,1,1,1]",0,46,46,46,1,0,1,,,0,FALSE,0.7024,,,,,,,,,,,,,,,,,,,,,,,,,,,,,,
,,001,2022-04-28_20h09.40.283,classification_task,2021.2.3,Win32,59.61251863,5f68f02c41716709ee9be42d,626b377229c10585ec392f89,626b3aaf327281b47670ba1d,,,,,,,,,,,,,,,,,,,,,,,a,0,"[""0.058"",""0.233"",""0.959"",""0.834""]","[1,1,0,1]",0,47,47,47,1,1,0,,,0,FALSE,1.3594,,,,,,,,,,,,,,,,,,,,,,,,,,,,,,
,,001,2022-04-28_20h09.40.283,classification_task,2021.2.3,Win32,59.61251863,5f68f02c41716709ee9be42d,626b377229c10585ec392f89,626b3aaf327281b47670ba1d,,,,,,,,,,,,,,,,,,,,,,,a,1,"[""0.278"",""0.461"",""0.374"",""0.917""]","[1,1,0,1]",0,48,48,48,1,0,0,,,0,FALSE,0.9932,,,,,,,,,,,,,,,,,,,,,,,,,,,,,,
,,001,2022-04-28_20h09.40.283,classification_task,2021.2.3,Win32,59.61251863,5f68f02c41716709ee9be42d,626b377229c10585ec392f89,626b3aaf327281b47670ba1d,,,,,,,,,,,,,,,,,,,,,,,l,0,"[""0.374"",""0.421"",""0.773"",""0.873""]","[0,1,1,1]",0,49,49,49,1,0,1,,,0,FALSE,0.9382,,,,,,,,,,,,,,,,,,,,,,,,,,,,,,
,,001,2022-04-28_20h09.40.283,classification_task,2021.2.3,Win32,59.61251863,5f68f02c41716709ee9be42d,626b377229c10585ec392f89,626b3aaf327281b47670ba1d,,,,,,,,,,,,,,,,,,,,,,,a,0,"[""0.119"",""0.176"",""0.369"",""0.727""]","[1,1,0,1]",0,50,50,50,1,1,1,,,0,FALSE,0.7188,,,,,,,,,,,,,,,,,,,,,,,,,,,,,,
,,001,2022-04-28_20h09.40.283,classification_task,2021.2.3,Win32,59.61251863,5f68f02c41716709ee9be42d,626b377229c10585ec392f89,626b3aaf327281b47670ba1d,,,,,,,,,,,,,,,,,,,,,,,l,1,"[""0.058"",""0.674"",""0.495"",""0.834""]","[1,0,1,1]",0,51,51,51,1,1,0,,,0,FALSE,0.627,,,,,,,,,,,,,,,,,,,,,,,,,,,,,,
,,001,2022-04-28_20h09.40.283,classification_task,2021.2.3,Win32,59.61251863,5f68f02c41716709ee9be42d,626b377229c10585ec392f89,626b3aaf327281b47670ba1d,,,,,,,,,,,,,,,,,,,,,,,a,0,"[""0.379"",""0.176"",""0.606"",""0.727""]","[0,1,1,1]",0,52,52,52,1,1,1,,,0,FALSE,0.7638,,,,,,,,,,,,,,,,,,,,,,,,,,,,,,
,,001,2022-04-28_20h09.40.283,classification_task,2021.2.3,Win32,59.61251863,5f68f02c41716709ee9be42d,626b377229c10585ec392f89,626b3aaf327281b47670ba1d,,,,,,,,,,,,,,,,,,,,,,,l,1,"[""0.119"",""0.674"",""0.606"",""0.727""]","[1,0,1,1]",0,53,53,53,1,1,1,,,0,FALSE,0.774,,,,,,,,,,,,,,,,,,,,,,,,,,,,,,
,,001,2022-04-28_20h09.40.283,classification_task,2021.2.3,Win32,59.61251863,5f68f02c41716709ee9be42d,626b377229c10585ec392f89,626b3aaf327281b47670ba1d,,,,,,,,,,,,,,,,,,,,,,,a,0,"[""0.058"",""0.233"",""0.375"",""0.834""]","[1,1,0,1]",0,54,54,54,1,1,0,,,0,FALSE,0.5141,,,,,,,,,,,,,,,,,,,,,,,,,,,,,,
,,001,2022-04-28_20h09.40.283,classification_task,2021.2.3,Win32,59.61251863,5f68f02c41716709ee9be42d,626b377229c10585ec392f89,626b3aaf327281b47670ba1d,,,,,,,,,,,,,,,,,,,,,,,l,0,"[""0.323"",""0.421"",""0.773"",""0.654""]","[1,1,1,0]",0,55,55,55,1,0,1,,,0,FALSE,0.8715,,,,,,,,,,,,,,,,,,,,,,,,,,,,,,
,,001,2022-04-28_20h09.40.283,classification_task,2021.2.3,Win32,59.61251863,5f68f02c41716709ee9be42d,626b377229c10585ec392f89,626b3aaf327281b47670ba1d,,,,,,,,,,,,,,,,,,,,,,,l,0,"[""0.674"",""0.461"",""0.566"",""0.917""]","[0,1,1,1]",0,56,56,56,1,0,0,,,0,FALSE,0.8145,,,,,,,,,,,,,,,,,,,,,,,,,,,,,,
,,001,2022-04-28_20h09.40.283,classification_task,2021.2.3,Win32,59.61251863,5f68f02c41716709ee9be42d,626b377229c10585ec392f89,626b3aaf327281b47670ba1d,,,,,,,,,,,,,,,,,,,,,,,l,0,"[""0.323"",""0.651"",""0.773"",""0.873""]","[1,0,1,1]",0,57,57,57,1,0,1,,,0,FALSE,0.6078,,,,,,,,,,,,,,,,,,,,,,,,,,,,,,
,,001,2022-04-28_20h09.40.283,classification_task,2021.2.3,Win32,59.61251863,5f68f02c41716709ee9be42d,626b377229c10585ec392f89,626b3aaf327281b47670ba1d,,,,,,,,,,,,,,,,,,,,,,,a,0,"[""0.119"",""0.176"",""0.606"",""0.654""]","[1,1,1,0]",0,58,58,58,1,1,1,,,0,FALSE,0.8696,,,,,,,,,,,,,,,,,,,,,,,,,,,,,,
,,001,2022-04-28_20h09.40.283,classification_task,2021.2.3,Win32,59.61251863,5f68f02c41716709ee9be42d,626b377229c10585ec392f89,626b3aaf327281b47670ba1d,,,,,,,,,,,,,,,,,,,,,,,a,1,"[""0.323"",""0.421"",""0.361"",""0.873""]","[1,1,0,1]",0,59,59,59,1,0,1,,,0,FALSE,0.6183,,,,,,,,,,,,,,,,,,,,,,,,,,,,,,
,,001,2022-04-28_20h09.40.283,classification_task,2021.2.3,Win32,59.61251863,5f68f02c41716709ee9be42d,626b377229c10585ec392f89,626b3aaf327281b47670ba1d,,,,,,,,,,,,,,,,,,,,,,,a,1,"[""0.278"",""0.461"",""0.566"",""0.377""]","[1,1,1,0]",0,60,60,60,1,0,0,,,0,FALSE,0.6245,,,,,,,,,,,,,,,,,,,,,,,,,,,,,,
,,001,2022-04-28_20h09.40.283,classification_task,2021.2.3,Win32,59.61251863,5f68f02c41716709ee9be42d,626b377229c10585ec392f89,626b3aaf327281b47670ba1d,,,,,,,,,,,,,,,,,,,,,,,l,1,"[""0.654"",""0.233"",""0.495"",""0.834""]","[0,1,1,1]",0,61,61,61,1,1,0,,,0,FALSE,0.6259,,,,,,,,,,,,,,,,,,,,,,,,,,,,,,
,,001,2022-04-28_20h09.40.283,classification_task,2021.2.3,Win32,59.61251863,5f68f02c41716709ee9be42d,626b377229c10585ec392f89,626b3aaf327281b47670ba1d,,,,,,,,,,,,,,,,,,,,,,,a,0,"[""0.058"",""0.233"",""0.495"",""0.374""]","[1,1,1,0]",0,62,62,62,1,1,0,,,0,FALSE,0.5059,,,,,,,,,,,,,,,,,,,,,,,,,,,,,,
,,001,2022-04-28_20h09.40.283,classification_task,2021.2.3,Win32,59.61251863,5f68f02c41716709ee9be42d,626b377229c10585ec392f89,626b3aaf327281b47670ba1d,,,,,,,,,,,,,,,,,,,,,,,a,1,"[""0.278"",""0.379"",""0.566"",""0.917""]","[1,0,1,1]",0,63,63,63,1,0,0,,,0,FALSE,0.9219,,,,,,,,,,,,,,,,,,,,,,,,,,,,,,
,,001,2022-04-28_20h09.40.283,classification_task,2021.2.3,Win32,59.61251863,5f68f02c41716709ee9be42d,626b377229c10585ec392f89,626b3aaf327281b47670ba1d,,,,,,,,,,,,,,,,,,,,,,,,,,,,,,,,,,,,,,,0, ,,0,1.818954201,147.6073,0,2,2,2,1,2,3,,,,,,,,,,,,,,,,,
,,001,2022-04-28_20h09.40.283,classification_task,2021.2.3,Win32,59.61251863,5f68f02c41716709ee9be42d,626b377229c10585ec392f89,626b3aaf327281b47670ba1d,,,,,,,,,,,,,,,,,,,,,,,,,,,,,,,,,,,,,,,1,  ,,0,1.577355786,150.7279,0,2,2,2,1,2,3,,,,,,,,,,,,,,,,,
,,001,2022-04-28_20h09.40.283,classification_task,2021.2.3,Win32,59.61251863,5f68f02c41716709ee9be42d,626b377229c10585ec392f89,626b3aaf327281b47670ba1d,,,,,,,,,,,,,,,,,,,,,,,,,,,,,,,,,,,,,,,2,  ,,0,10,152.4496,0,2,2,2,1,2,3,,,,,,,,,,,,,,,,,
,,001,2022-04-28_20h09.40.283,classification_task,2021.2.3,Win32,59.61251863,5f68f02c41716709ee9be42d,626b377229c10585ec392f89,626b3aaf327281b47670ba1d,,,,,,,,,,,,,,,,,,,,,,,,,,,,,,,,,,,,,,,,,,,,,0,2,2,2,1,,3,,,,,,,,,,,,,,,,,
,,001,2022-04-28_20h09.40.283,classification_task,2021.2.3,Win32,59.61251863,5f68f02c41716709ee9be42d,626b377229c10585ec392f89,626b3aaf327281b47670ba1d,,,,,,,,,,,,,,,,,,,,,,,,,,,,,,,,,,,,,,,,,,,,,,,,,,,,,I believe the aid is a competent performer,,0.7,0,4,652.1574,0,0,0,0,1,0,,,,
,,001,2022-04-28_20h09.40.283,classification_task,2021.2.3,Win32,59.61251863,5f68f02c41716709ee9be42d,626b377229c10585ec392f89,626b3aaf327281b47670ba1d,,,,,,,,,,,,,,,,,,,,,,,,,,,,,,,,,,,,,,,,,,,,,,,,,,,,,I trust the aid,,0.7,0,5,653.0514,0,0,0,0,1,0,,,,
,,001,2022-04-28_20h09.40.283,classification_task,2021.2.3,Win32,59.61251863,5f68f02c41716709ee9be42d,626b377229c10585ec392f89,626b3aaf327281b47670ba1d,,,,,,,,,,,,,,,,,,,,,,,,,,,,,,,,,,,,,,,,,,,,,,,,,,,,,I have confidence in the advice given by the aid,,0.7,0,5,655.5406,0,0,0,0,1,0,,,,
,,001,2022-04-28_20h09.40.283,classification_task,2021.2.3,Win32,59.61251863,5f68f02c41716709ee9be42d,626b377229c10585ec392f89,626b3aaf327281b47670ba1d,,,,,,,,,,,,,,,,,,,,,,,,,,,,,,,,,,,,,,,,,,,,,,,,,,,,,I can depend on the aid,,0.7,0,5,657.7638,0,0,0,0,1,0,,,,
,,001,2022-04-28_20h09.40.283,classification_task,2021.2.3,Win32,59.61251863,5f68f02c41716709ee9be42d,626b377229c10585ec392f89,626b3aaf327281b47670ba1d,,,,,,,,,,,,,,,,,,,,,,,,,,,,,,,,,,,,,,,,,,,,,,,,,,,,,I can rely on the aid to behave in consistent ways,,0.7,0,5,659.8193,0,0,0,0,1,0,,,,
,,001,2022-04-28_20h09.40.283,classification_task,2021.2.3,Win32,59.61251863,5f68f02c41716709ee9be42d,626b377229c10585ec392f89,626b3aaf327281b47670ba1d,,,,,,,,,,,,,,,,,,,,,,,,,,,,,,,,,,,,,,,,,,,,,,,,,,,,,I can rely on the aid to do its best every time I take its advice,,0.7,0,4,661.1394,0,0,0,0,1,0,,,,
,,001,2022-04-28_20h09.40.283,classification_task,2021.2.3,Win32,59.61251863,5f68f02c41716709ee9be42d,626b377229c10585ec392f89,626b3aaf327281b47670ba1d,,,,,,,,,,,,,,,,,,,,,,,,,,,,,,,,,,,,,,,,,,,,,,,,,,,,,"On trials you completed with assistance from the aid, how frequently did you think the aid was correct?",,0.7,0,100,,0,0,0,0,1,0,,,,
,,001,2022-04-28_20h09.40.283,classification_task,2021.2.3,Win32,59.61251863,5f68f02c41716709ee9be42d,626b377229c10585ec392f89,626b3aaf327281b47670ba1d,,,,,,,,,,,,,,,,,,,,,,,,,,,,,,,,,,,,,,,,,,,,,,,,,,,,,"On trials you completed without the aid, how frequently did you think you were correct?",,0.7,0,40,,0,0,0,0,1,0,,,,
,,001,2022-04-28_20h09.40.283,classification_task,2021.2.3,Win32,59.61251863,5f68f02c41716709ee9be42d,626b377229c10585ec392f89,626b3aaf327281b47670ba1d,,,,,,,,,,,,,,,,,,,,,,,,,,,,,,,,,,,,,,,,,,,,,,,,,,,,,,,,,,,0,0,0,0,1,,,,,
,,001,2022-04-28_20h09.40.283,classification_task,2021.2.3,Win32,59.61251863,5f68f02c41716709ee9be42d,626b377229c10585ec392f89,626b3aaf327281b47670ba1d,,,,,,,,,,,,,,,,,,,,,,,,,,,,,,,,,,,,,,,,,,,,,,,,,,,,,,,,,,,,,,,,,space,8.4309,681.0549,
,,001,2022-04-28_20h09.40.283,classification_task,2021.2.3,Win32,59.61251863,5f68f02c41716709ee9be42d,626b377229c10585ec392f89,626b3aaf327281b47670ba1d,,,,,,,,,,,,,,,,,,,,,,,,,,,,,,,,,,,,,,,,,,,,,,,,,,,,,,,,,,,,,,,,,,,,"Mozilla/5.0 (Windows NT 10.0; Win64; x64) AppleWebKit/537.36 (KHTML, like Gecko) Chrome/100.0.4896.127 Safari/537.36"
