usingWebGL,participant,session,date,expName,psychopyVersion,OS,frameRate,PROLIFIC_PID,STUDY_ID,SESSION_ID,signatures_friend,signatures_foe,band_ranges_top,band_ranges_bottom,formitemText,formtype,formundefined,formitemWidth,formindex,formresponse,formrt,key_resp_2.keys,key_resp_2.rt,tute_resp.keys,tute_resp.rt,tutorial.thisRepN,tutorial.thisTrialN,tutorial.thisN,tutorial.thisIndex,tutorial.ran,key_resp_4.keys,key_resp_4.rt,key_resp.keys,key_resp.corr,key_resp.rt,lines_presented,is_signal_presented,trials.thisRepN,trials.thisTrialN,trials.thisN,trials.thisIndex,trials.ran,vessel,active_band,lines,is_signal,supported_pos,catch_trial,debrief_formindex,debrief_formitemText,debrief_formtype,debrief_formitemWidth,debrief_formresponse,debrief_formrt,phases.thisRepN,phases.thisTrialN,phases.thisN,phases.thisIndex,phases.ran,phases.order,phase,key_resp_3.keys,trustitemText,trusttype,trustitemWidth,trustindex,trustresponse,trustrt,support_status.thisRepN,support_status.thisTrialN,support_status.thisN,support_status.thisIndex,support_status.ran,support_status.order,key_resp_5.keys,key_resp_5.rt,globalClockTime,userAgent
TRUE,,001,2022-04-28_18h15.23.111,classification_task,2021.2.3,MacIntel,60.0024001,61410523235baca0b15c9afd,626b377229c10585ec392f8a,626b3c0963357fc439dd3704,,,,,,,,,,,,,,,,,,,,,,,,,,,,,,,,,,,,,,,,,,,,,,,,,,,,,,,,,,,,,,,,,,,,
,,001,2022-04-28_18h15.23.111,classification_task,2021.2.3,MacIntel,60.0024001,61410523235baca0b15c9afd,626b377229c10585ec392f8a,626b3c0963357fc439dd3704,"[[""0.262"",""0.422"",""0.656"",""0.927""],[""0.159"",""0.463"",""0.858"",""0.970""]]","[[""0.121"",""0.220"",""0.560"",""0.804""],[""0.036"",""0.073"",""0.603"",""0.732""]]","[1,10]","[100,1000]",Video game experience,,,0.7,0,,,,,,,,,,,,,,,,,,,,,,,,,,,,,,,,,,,,,,,,,,,,,,,,,,,,,,,,,,,
,,001,2022-04-28_18h15.23.111,classification_task,2021.2.3,MacIntel,60.0024001,61410523235baca0b15c9afd,626b377229c10585ec392f8a,626b3c0963357fc439dd3704,,,,,Approximately how many hours did you spend playing video games in the last week?,,,0.7,0,1,,,,,,,,,,,,,,,,,,,,,,,,,,,,,,,,,,,,,,,,,,,,,,,,,,,,,,,,,,
,,001,2022-04-28_18h15.23.111,classification_task,2021.2.3,MacIntel,60.0024001,61410523235baca0b15c9afd,626b377229c10585ec392f8a,626b3c0963357fc439dd3704,,,,,"Which game did you play the most this year? (Enter ""None"" if you didn't play any)",,,0.7,0,none,,,,,,,,,,,,,,,,,,,,,,,,,,,,,,,,,,,,,,,,,,,,,,,,,,,,,,,,,,
,,001,2022-04-28_18h15.23.111,classification_task,2021.2.3,MacIntel,60.0024001,61410523235baca0b15c9afd,626b377229c10585ec392f8a,626b3c0963357fc439dd3704,,,,,Visual perception,,,0.7,0,,,,,,,,,,,,,,,,,,,,,,,,,,,,,,,,,,,,,,,,,,,,,,,,,,,,,,,,,,,
,,001,2022-04-28_18h15.23.111,classification_task,2021.2.3,MacIntel,60.0024001,61410523235baca0b15c9afd,626b377229c10585ec392f8a,626b3c0963357fc439dd3704,,,,,Do you have any form of color blindness?,,,0.7,0,No,29.6049,,,,,,,,,,,,,,,,,,,,,,,,,,,,,,,,,,,,,,,,,,,,,,,,,,,,,,,,,
,,001,2022-04-28_18h15.23.111,classification_task,2021.2.3,MacIntel,60.0024001,61410523235baca0b15c9afd,626b377229c10585ec392f8a,626b3c0963357fc439dd3704,,,,,Do you use software to change the colour temperature of your screen (e.g. f.lux)?,,,0.7,0,No,33.8717,,,,,,,,,,,,,,,,,,,,,,,,,,,,,,,,,,,,,,,,,,,,,,,,,,,,,,,,,
,,001,2022-04-28_18h15.23.111,classification_task,2021.2.3,MacIntel,60.0024001,61410523235baca0b15c9afd,626b377229c10585ec392f8a,626b3c0963357fc439dd3704,,,,,,,,,,,,space,42.0111,space,8.7654,0,0,0,0,1,,,,,,,,,,,,,,,,,,,,,,,,,,,,,,,,,,,,,,,,,,,,,,,,
,,001,2022-04-28_18h15.23.111,classification_task,2021.2.3,MacIntel,60.0024001,61410523235baca0b15c9afd,626b377229c10585ec392f8a,626b3c0963357fc439dd3704,,,,,,,,,,,,,,space,7.7344,1,0,1,0,1,,,,,,,,,,,,,,,,,,,,,,,,,,,,,,,,,,,,,,,,,,,,,,,,
,,001,2022-04-28_18h15.23.111,classification_task,2021.2.3,MacIntel,60.0024001,61410523235baca0b15c9afd,626b377229c10585ec392f8a,626b3c0963357fc439dd3704,,,,,,,,,,,,,,space,29.8681,2,0,2,0,1,,,,,,,,,,,,,,,,,,,,,,,,,,,,,,,,,,,,,,,,,,,,,,,,
,,001,2022-04-28_18h15.23.111,classification_task,2021.2.3,MacIntel,60.0024001,61410523235baca0b15c9afd,626b377229c10585ec392f8a,626b3c0963357fc439dd3704,,,,,,,,,,,,,,space,5.6159,3,0,3,0,1,,,,,,,,,,,,,,,,,,,,,,,,,,,,,,,,,,,,,,,,,,,,,,,,
,,001,2022-04-28_18h15.23.111,classification_task,2021.2.3,MacIntel,60.0024001,61410523235baca0b15c9afd,626b377229c10585ec392f8a,626b3c0963357fc439dd3704,,,,,,,,,,,,,,space,27.7306,4,0,4,0,1,,,,,,,,,,,,,,,,,,,,,,,,,,,,,,,,,,,,,,,,,,,,,,,,
,,001,2022-04-28_18h15.23.111,classification_task,2021.2.3,MacIntel,60.0024001,61410523235baca0b15c9afd,626b377229c10585ec392f8a,626b3c0963357fc439dd3704,,,,,,,,,,,,,,,,,,,,,space,9.9844,a,0,8.8776,"[""0.375"",""0.220"",""0.560"",""0.804""]","[0,1,1,1]",0,0,0,0,1,1,0,,,0,FALSE,,,,,,,,,,,,,,,,,,,,,,,,,,,,,,
,,001,2022-04-28_18h15.23.111,classification_task,2021.2.3,MacIntel,60.0024001,61410523235baca0b15c9afd,626b377229c10585ec392f8a,626b3c0963357fc439dd3704,,,,,,,,,,,,,,,,,,,,,,,a,1,6.3309,"[""0.308"",""0.422"",""0.656"",""0.927""]","[0,1,1,1]",0,1,1,1,1,0,0,,,0,FALSE,,,,,,,,,,,,,,,,,,,,,,,,,,,,,,
,,001,2022-04-28_18h15.23.111,classification_task,2021.2.3,MacIntel,60.0024001,61410523235baca0b15c9afd,626b377229c10585ec392f8a,626b3c0963357fc439dd3704,,,,,,,,,,,,,,,,,,,,,,,l,1,5.6408,"[""0.121"",""0.689"",""0.560"",""0.804""]","[1,0,1,1]",0,2,2,2,1,1,0,,,0,FALSE,,,,,,,,,,,,,,,,,,,,,,,,,,,,,,
,,001,2022-04-28_18h15.23.111,classification_task,2021.2.3,MacIntel,60.0024001,61410523235baca0b15c9afd,626b377229c10585ec392f8a,626b3c0963357fc439dd3704,,,,,,,,,,,,,,,,,,,,,,,l,1,4.1159,"[""0.036"",""0.073"",""0.603"",""0.299""]","[1,1,1,0]",0,3,3,3,1,1,1,,,0,FALSE,,,,,,,,,,,,,,,,,,,,,,,,,,,,,,
,,001,2022-04-28_18h15.23.111,classification_task,2021.2.3,MacIntel,60.0024001,61410523235baca0b15c9afd,626b377229c10585ec392f8a,626b3c0963357fc439dd3704,,,,,,,,,,,,,,,,,,,,,,,a,1,5.8364,"[""0.159"",""0.514"",""0.858"",""0.970""]","[1,0,1,1]",0,4,4,4,1,0,1,,,0,FALSE,,,,,,,,,,,,,,,,,,,,,,,,,,,,,,
,,001,2022-04-28_18h15.23.111,classification_task,2021.2.3,MacIntel,60.0024001,61410523235baca0b15c9afd,626b377229c10585ec392f8a,626b3c0963357fc439dd3704,,,,,,,,,,,,,,,,,,,,,,,l,1,2.2013,"[""0.121"",""0.220"",""0.308"",""0.804""]","[1,1,0,1]",0,5,5,5,1,1,0,,,0,FALSE,,,,,,,,,,,,,,,,,,,,,,,,,,,,,,
,,001,2022-04-28_18h15.23.111,classification_task,2021.2.3,MacIntel,60.0024001,61410523235baca0b15c9afd,626b377229c10585ec392f8a,626b3c0963357fc439dd3704,,,,,,,,,,,,,,,,,,,,,,,l,0,5.4964,"[""0.514"",""0.463"",""0.858"",""0.970""]","[0,1,1,1]",0,6,6,6,1,0,1,,,0,FALSE,,,,,,,,,,,,,,,,,,,,,,,,,,,,,,
,,001,2022-04-28_18h15.23.111,classification_task,2021.2.3,MacIntel,60.0024001,61410523235baca0b15c9afd,626b377229c10585ec392f8a,626b3c0963357fc439dd3704,,,,,,,,,,,,,,,,,,,,,,,l,1,3.1328,"[""0.036"",""0.297"",""0.603"",""0.732""]","[1,0,1,1]",0,7,7,7,1,1,1,,,0,FALSE,,,,,,,,,,,,,,,,,,,,,,,,,,,,,,
,,001,2022-04-28_18h15.23.111,classification_task,2021.2.3,MacIntel,60.0024001,61410523235baca0b15c9afd,626b377229c10585ec392f8a,626b3c0963357fc439dd3704,,,,,,,,,,,,,,,,,,,,,,,a,1,2.5031,"[""0.159"",""0.463"",""0.299"",""0.970""]","[1,1,0,1]",0,8,8,8,1,0,1,,,0,FALSE,,,,,,,,,,,,,,,,,,,,,,,,,,,,,,
,,001,2022-04-28_18h15.23.111,classification_task,2021.2.3,MacIntel,60.0024001,61410523235baca0b15c9afd,626b377229c10585ec392f8a,626b3c0963357fc439dd3704,,,,,,,,,,,,,,,,,,,,,,,l,1,3.0027,"[""0.036"",""0.073"",""0.698"",""0.732""]","[1,1,0,1]",0,9,9,9,1,1,1,,,0,FALSE,,,,,,,,,,,,,,,,,,,,,,,,,,,,,,
,,001,2022-04-28_18h15.23.111,classification_task,2021.2.3,MacIntel,60.0024001,61410523235baca0b15c9afd,626b377229c10585ec392f8a,626b3c0963357fc439dd3704,,,,,,,,,,,,,,,,,,,,,,,a,1,2.5626,"[""0.262"",""0.514"",""0.656"",""0.927""]","[1,0,1,1]",0,10,10,10,1,0,0,,,0,FALSE,,,,,,,,,,,,,,,,,,,,,,,,,,,,,,
,,001,2022-04-28_18h15.23.111,classification_task,2021.2.3,MacIntel,60.0024001,61410523235baca0b15c9afd,626b377229c10585ec392f8a,626b3c0963357fc439dd3704,,,,,,,,,,,,,,,,,,,,,,,a,1,1.8509,"[""0.262"",""0.422"",""0.375"",""0.927""]","[1,1,0,1]",0,11,11,11,1,0,0,,,0,FALSE,,,,,,,,,,,,,,,,,,,,,,,,,,,,,,
,,001,2022-04-28_18h15.23.111,classification_task,2021.2.3,MacIntel,60.0024001,61410523235baca0b15c9afd,626b377229c10585ec392f8a,626b3c0963357fc439dd3704,,,,,,,,,,,,,,,,,,,,,,,a,1,2.1153,"[""0.262"",""0.422"",""0.656"",""0.299""]","[1,1,1,0]",0,12,12,12,1,0,0,,,0,FALSE,,,,,,,,,,,,,,,,,,,,,,,,,,,,,,
,,001,2022-04-28_18h15.23.111,classification_task,2021.2.3,MacIntel,60.0024001,61410523235baca0b15c9afd,626b377229c10585ec392f8a,626b3c0963357fc439dd3704,,,,,,,,,,,,,,,,,,,,,,,l,1,1.7518,"[""0.698"",""0.073"",""0.603"",""0.732""]","[0,1,1,1]",0,13,13,13,1,1,1,,,0,FALSE,,,,,,,,,,,,,,,,,,,,,,,,,,,,,,
,,001,2022-04-28_18h15.23.111,classification_task,2021.2.3,MacIntel,60.0024001,61410523235baca0b15c9afd,626b377229c10585ec392f8a,626b3c0963357fc439dd3704,,,,,,,,,,,,,,,,,,,,,,,l,1,1.5082,"[""0.121"",""0.220"",""0.560"",""0.312""]","[1,1,1,0]",0,14,14,14,1,1,0,,,0,FALSE,,,,,,,,,,,,,,,,,,,,,,,,,,,,,,
,,001,2022-04-28_18h15.23.111,classification_task,2021.2.3,MacIntel,60.0024001,61410523235baca0b15c9afd,626b377229c10585ec392f8a,626b3c0963357fc439dd3704,,,,,,,,,,,,,,,,,,,,,,,a,1,1.8972,"[""0.159"",""0.463"",""0.858"",""0.297""]","[1,1,1,0]",0,15,15,15,1,0,1,,,0,FALSE,,,,,,,,,,,,,,,,,,,,,,,,,,,,,,
,,001,2022-04-28_18h15.23.111,classification_task,2021.2.3,MacIntel,60.0024001,61410523235baca0b15c9afd,626b377229c10585ec392f8a,626b3c0963357fc439dd3704,,,,,,,,,,,,,,,,,,,,,,,l,1,2.0752,"[""0.121"",""0.507"",""0.560"",""0.804""]","[1,0,1,1]",0,16,16,16,1,1,0,,,0,FALSE,,,,,,,,,,,,,,,,,,,,,,,,,,,,,,
,,001,2022-04-28_18h15.23.111,classification_task,2021.2.3,MacIntel,60.0024001,61410523235baca0b15c9afd,626b377229c10585ec392f8a,626b3c0963357fc439dd3704,,,,,,,,,,,,,,,,,,,,,,,a,1,1.6222,"[""0.297"",""0.422"",""0.656"",""0.927""]","[0,1,1,1]",0,17,17,17,1,0,0,,,0,FALSE,,,,,,,,,,,,,,,,,,,,,,,,,,,,,,
,,001,2022-04-28_18h15.23.111,classification_task,2021.2.3,MacIntel,60.0024001,61410523235baca0b15c9afd,626b377229c10585ec392f8a,626b3c0963357fc439dd3704,,,,,,,,,,,,,,,,,,,,,,,l,1,1.6269,"[""0.350"",""0.073"",""0.603"",""0.732""]","[0,1,1,1]",0,18,18,18,1,1,1,,,0,FALSE,,,,,,,,,,,,,,,,,,,,,,,,,,,,,,
,,001,2022-04-28_18h15.23.111,classification_task,2021.2.3,MacIntel,60.0024001,61410523235baca0b15c9afd,626b377229c10585ec392f8a,626b3c0963357fc439dd3704,,,,,,,,,,,,,,,,,,,,,,,l,1,1.6919,"[""0.121"",""0.220"",""0.343"",""0.804""]","[1,1,0,1]",0,19,19,19,1,1,0,,,0,FALSE,,,,,,,,,,,,,,,,,,,,,,,,,,,,,,
,,001,2022-04-28_18h15.23.111,classification_task,2021.2.3,MacIntel,60.0024001,61410523235baca0b15c9afd,626b377229c10585ec392f8a,626b3c0963357fc439dd3704,,,,,,,,,,,,,,,,,,,,,,,l,1,1.6458,"[""0.036"",""0.073"",""0.603"",""0.343""]","[1,1,1,0]",0,20,20,20,1,1,1,,,0,FALSE,,,,,,,,,,,,,,,,,,,,,,,,,,,,,,
,,001,2022-04-28_18h15.23.111,classification_task,2021.2.3,MacIntel,60.0024001,61410523235baca0b15c9afd,626b377229c10585ec392f8a,626b3c0963357fc439dd3704,,,,,,,,,,,,,,,,,,,,,,,l,1,1.5842,"[""0.036"",""0.698"",""0.603"",""0.732""]","[1,0,1,1]",0,21,21,21,1,1,1,,,0,FALSE,,,,,,,,,,,,,,,,,,,,,,,,,,,,,,
,,001,2022-04-28_18h15.23.111,classification_task,2021.2.3,MacIntel,60.0024001,61410523235baca0b15c9afd,626b377229c10585ec392f8a,626b3c0963357fc439dd3704,,,,,,,,,,,,,,,,,,,,,,,l,1,1.7766,"[""0.121"",""0.220"",""0.560"",""0.312""]","[1,1,1,0]",0,22,22,22,1,1,0,,,0,FALSE,,,,,,,,,,,,,,,,,,,,,,,,,,,,,,
,,001,2022-04-28_18h15.23.111,classification_task,2021.2.3,MacIntel,60.0024001,61410523235baca0b15c9afd,626b377229c10585ec392f8a,626b3c0963357fc439dd3704,,,,,,,,,,,,,,,,,,,,,,,a,1,2.3351,"[""0.383"",""0.463"",""0.858"",""0.970""]","[0,1,1,1]",0,23,23,23,1,0,1,,,0,FALSE,,,,,,,,,,,,,,,,,,,,,,,,,,,,,,
,,001,2022-04-28_18h15.23.111,classification_task,2021.2.3,MacIntel,60.0024001,61410523235baca0b15c9afd,626b377229c10585ec392f8a,626b3c0963357fc439dd3704,,,,,,,,,,,,,,,,,,,,,,,l,1,1.6157,"[""0.036"",""0.073"",""0.353"",""0.732""]","[1,1,0,1]",0,24,24,24,1,1,1,,,0,FALSE,,,,,,,,,,,,,,,,,,,,,,,,,,,,,,
,,001,2022-04-28_18h15.23.111,classification_task,2021.2.3,MacIntel,60.0024001,61410523235baca0b15c9afd,626b377229c10585ec392f8a,626b3c0963357fc439dd3704,,,,,,,,,,,,,,,,,,,,,,,l,1,1.6329,"[""0.312"",""0.220"",""0.560"",""0.804""]","[0,1,1,1]",0,25,25,25,1,1,0,,,0,FALSE,,,,,,,,,,,,,,,,,,,,,,,,,,,,,,
,,001,2022-04-28_18h15.23.111,classification_task,2021.2.3,MacIntel,60.0024001,61410523235baca0b15c9afd,626b377229c10585ec392f8a,626b3c0963357fc439dd3704,,,,,,,,,,,,,,,,,,,,,,,a,1,1.6608,"[""0.159"",""0.463"",""0.343"",""0.970""]","[1,1,0,1]",0,26,26,26,1,0,1,,,0,FALSE,,,,,,,,,,,,,,,,,,,,,,,,,,,,,,
,,001,2022-04-28_18h15.23.111,classification_task,2021.2.3,MacIntel,60.0024001,61410523235baca0b15c9afd,626b377229c10585ec392f8a,626b3c0963357fc439dd3704,,,,,,,,,,,,,,,,,,,,,,,a,1,1.7074,"[""0.262"",""0.422"",""0.656"",""0.387""]","[1,1,1,0]",0,27,27,27,1,0,0,,,0,FALSE,,,,,,,,,,,,,,,,,,,,,,,,,,,,,,
,,001,2022-04-28_18h15.23.111,classification_task,2021.2.3,MacIntel,60.0024001,61410523235baca0b15c9afd,626b377229c10585ec392f8a,626b3c0963357fc439dd3704,,,,,,,,,,,,,,,,,,,,,,,a,1,1.7189,"[""0.262"",""0.422"",""0.297"",""0.927""]","[1,1,0,1]",0,28,28,28,1,0,0,,,0,FALSE,,,,,,,,,,,,,,,,,,,,,,,,,,,,,,
,,001,2022-04-28_18h15.23.111,classification_task,2021.2.3,MacIntel,60.0024001,61410523235baca0b15c9afd,626b377229c10585ec392f8a,626b3c0963357fc439dd3704,,,,,,,,,,,,,,,,,,,,,,,a,1,2.039,"[""0.159"",""0.353"",""0.858"",""0.970""]","[1,0,1,1]",0,29,29,29,1,0,1,,,0,FALSE,,,,,,,,,,,,,,,,,,,,,,,,,,,,,,
,,001,2022-04-28_18h15.23.111,classification_task,2021.2.3,MacIntel,60.0024001,61410523235baca0b15c9afd,626b377229c10585ec392f8a,626b3c0963357fc439dd3704,,,,,,,,,,,,,,,,,,,,,,,a,1,1.5511,"[""0.159"",""0.463"",""0.858"",""0.343""]","[1,1,1,0]",0,30,30,30,1,0,1,,,0,FALSE,,,,,,,,,,,,,,,,,,,,,,,,,,,,,,
,,001,2022-04-28_18h15.23.111,classification_task,2021.2.3,MacIntel,60.0024001,61410523235baca0b15c9afd,626b377229c10585ec392f8a,626b3c0963357fc439dd3704,,,,,,,,,,,,,,,,,,,,,,,a,1,1.3084,"[""0.262"",""0.375"",""0.656"",""0.927""]","[1,0,1,1]",0,31,31,31,1,0,0,,,0,FALSE,,,,,,,,,,,,,,,,,,,,,,,,,,,,,,
,,001,2022-04-28_18h15.23.111,classification_task,2021.2.3,MacIntel,60.0024001,61410523235baca0b15c9afd,626b377229c10585ec392f8a,626b3c0963357fc439dd3704,,,,,,,,,,,,,,,,,,,,,,,a,1,5.3133,"[""0.350"",""0.463"",""0.858"",""0.970""]","[0,1,1,1]",0,32,32,32,1,0,1,,,0,FALSE,,,,,,,,,,,,,,,,,,,,,,,,,,,,,,
,,001,2022-04-28_18h15.23.111,classification_task,2021.2.3,MacIntel,60.0024001,61410523235baca0b15c9afd,626b377229c10585ec392f8a,626b3c0963357fc439dd3704,,,,,,,,,,,,,,,,,,,,,,,a,0,2.6355,"[""0.036"",""0.073"",""0.308"",""0.732""]","[1,1,0,1]",0,33,33,33,1,1,1,,,0,FALSE,,,,,,,,,,,,,,,,,,,,,,,,,,,,,,
,,001,2022-04-28_18h15.23.111,classification_task,2021.2.3,MacIntel,60.0024001,61410523235baca0b15c9afd,626b377229c10585ec392f8a,626b3c0963357fc439dd3704,,,,,,,,,,,,,,,,,,,,,,,a,1,1.7343,"[""0.159"",""0.463"",""0.308"",""0.970""]","[1,1,0,1]",0,34,34,34,1,0,1,,,0,FALSE,,,,,,,,,,,,,,,,,,,,,,,,,,,,,,
,,001,2022-04-28_18h15.23.111,classification_task,2021.2.3,MacIntel,60.0024001,61410523235baca0b15c9afd,626b377229c10585ec392f8a,626b3c0963357fc439dd3704,,,,,,,,,,,,,,,,,,,,,,,l,0,1.214,"[""0.262"",""0.422"",""0.507"",""0.927""]","[1,1,0,1]",0,35,35,35,1,0,0,,,0,FALSE,,,,,,,,,,,,,,,,,,,,,,,,,,,,,,
,,001,2022-04-28_18h15.23.111,classification_task,2021.2.3,MacIntel,60.0024001,61410523235baca0b15c9afd,626b377229c10585ec392f8a,626b3c0963357fc439dd3704,,,,,,,,,,,,,,,,,,,,,,,a,0,1.8871,"[""0.121"",""0.299"",""0.560"",""0.804""]","[1,0,1,1]",0,36,36,36,1,1,0,,,0,FALSE,,,,,,,,,,,,,,,,,,,,,,,,,,,,,,
,,001,2022-04-28_18h15.23.111,classification_task,2021.2.3,MacIntel,60.0024001,61410523235baca0b15c9afd,626b377229c10585ec392f8a,626b3c0963357fc439dd3704,,,,,,,,,,,,,,,,,,,,,,,l,0,1.2147,"[""0.262"",""0.422"",""0.656"",""0.354""]","[1,1,1,0]",0,37,37,37,1,0,0,,,0,FALSE,,,,,,,,,,,,,,,,,,,,,,,,,,,,,,
,,001,2022-04-28_18h15.23.111,classification_task,2021.2.3,MacIntel,60.0024001,61410523235baca0b15c9afd,626b377229c10585ec392f8a,626b3c0963357fc439dd3704,,,,,,,,,,,,,,,,,,,,,,,l,1,2.0648,"[""0.036"",""0.689"",""0.603"",""0.732""]","[1,0,1,1]",0,38,38,38,1,1,1,,,0,FALSE,,,,,,,,,,,,,,,,,,,,,,,,,,,,,,
,,001,2022-04-28_18h15.23.111,classification_task,2021.2.3,MacIntel,60.0024001,61410523235baca0b15c9afd,626b377229c10585ec392f8a,626b3c0963357fc439dd3704,,,,,,,,,,,,,,,,,,,,,,,a,0,2.6513,"[""0.698"",""0.220"",""0.560"",""0.804""]","[0,1,1,1]",0,39,39,39,1,1,0,,,0,FALSE,,,,,,,,,,,,,,,,,,,,,,,,,,,,,,
,,001,2022-04-28_18h15.23.111,classification_task,2021.2.3,MacIntel,60.0024001,61410523235baca0b15c9afd,626b377229c10585ec392f8a,626b3c0963357fc439dd3704,,,,,,,,,,,,,,,,,,,,,,,a,0,1.7195,"[""0.514"",""0.073"",""0.603"",""0.732""]","[0,1,1,1]",0,40,40,40,1,1,1,,,0,FALSE,,,,,,,,,,,,,,,,,,,,,,,,,,,,,,
,,001,2022-04-28_18h15.23.111,classification_task,2021.2.3,MacIntel,60.0024001,61410523235baca0b15c9afd,626b377229c10585ec392f8a,626b3c0963357fc439dd3704,,,,,,,,,,,,,,,,,,,,,,,a,0,0.9458,"[""0.121"",""0.220"",""0.560"",""0.308""]","[1,1,1,0]",0,41,41,41,1,1,0,,,0,FALSE,,,,,,,,,,,,,,,,,,,,,,,,,,,,,,
,,001,2022-04-28_18h15.23.111,classification_task,2021.2.3,MacIntel,60.0024001,61410523235baca0b15c9afd,626b377229c10585ec392f8a,626b3c0963357fc439dd3704,,,,,,,,,,,,,,,,,,,,,,,l,0,0.9317,"[""0.297"",""0.422"",""0.656"",""0.927""]","[0,1,1,1]",0,42,42,42,1,0,0,,,0,FALSE,,,,,,,,,,,,,,,,,,,,,,,,,,,,,,
,,001,2022-04-28_18h15.23.111,classification_task,2021.2.3,MacIntel,60.0024001,61410523235baca0b15c9afd,626b377229c10585ec392f8a,626b3c0963357fc439dd3704,,,,,,,,,,,,,,,,,,,,,,,l,0,0.815,"[""0.159"",""0.463"",""0.858"",""0.383""]","[1,1,1,0]",0,43,43,43,1,0,1,,,0,FALSE,,,,,,,,,,,,,,,,,,,,,,,,,,,,,,
,,001,2022-04-28_18h15.23.111,classification_task,2021.2.3,MacIntel,60.0024001,61410523235baca0b15c9afd,626b377229c10585ec392f8a,626b3c0963357fc439dd3704,,,,,,,,,,,,,,,,,,,,,,,a,0,0.58,"[""0.036"",""0.073"",""0.603"",""0.297""]","[1,1,1,0]",0,44,44,44,1,1,1,,,0,FALSE,,,,,,,,,,,,,,,,,,,,,,,,,,,,,,
,,001,2022-04-28_18h15.23.111,classification_task,2021.2.3,MacIntel,60.0024001,61410523235baca0b15c9afd,626b377229c10585ec392f8a,626b3c0963357fc439dd3704,,,,,,,,,,,,,,,,,,,,,,,a,1,1.2829,"[""0.262"",""0.312"",""0.656"",""0.927""]","[1,0,1,1]",0,45,45,45,1,0,0,,,0,FALSE,,,,,,,,,,,,,,,,,,,,,,,,,,,,,,
,,001,2022-04-28_18h15.23.111,classification_task,2021.2.3,MacIntel,60.0024001,61410523235baca0b15c9afd,626b377229c10585ec392f8a,626b3c0963357fc439dd3704,,,,,,,,,,,,,,,,,,,,,,,l,0,1.065,"[""0.159"",""0.514"",""0.858"",""0.970""]","[1,0,1,1]",0,46,46,46,1,0,1,,,0,FALSE,,,,,,,,,,,,,,,,,,,,,,,,,,,,,,
,,001,2022-04-28_18h15.23.111,classification_task,2021.2.3,MacIntel,60.0024001,61410523235baca0b15c9afd,626b377229c10585ec392f8a,626b3c0963357fc439dd3704,,,,,,,,,,,,,,,,,,,,,,,l,1,1.0153,"[""0.121"",""0.220"",""0.312"",""0.804""]","[1,1,0,1]",0,47,47,47,1,1,0,,,0,FALSE,,,,,,,,,,,,,,,,,,,,,,,,,,,,,,
,,001,2022-04-28_18h15.23.111,classification_task,2021.2.3,MacIntel,60.0024001,61410523235baca0b15c9afd,626b377229c10585ec392f8a,626b3c0963357fc439dd3704,,,,,,,,,,,,,,,,,,,,,,,l,0,1.3629,"[""0.262"",""0.387"",""0.656"",""0.927""]","[1,0,1,1]",0,48,48,48,1,0,0,,,0,FALSE,,,,,,,,,,,,,,,,,,,,,,,,,,,,,,
,,001,2022-04-28_18h15.23.111,classification_task,2021.2.3,MacIntel,60.0024001,61410523235baca0b15c9afd,626b377229c10585ec392f8a,626b3c0963357fc439dd3704,,,,,,,,,,,,,,,,,,,,,,,a,0,1.247,"[""0.121"",""0.220"",""0.560"",""0.689""]","[1,1,1,0]",0,49,49,49,1,1,0,,,0,FALSE,,,,,,,,,,,,,,,,,,,,,,,,,,,,,,
,,001,2022-04-28_18h15.23.111,classification_task,2021.2.3,MacIntel,60.0024001,61410523235baca0b15c9afd,626b377229c10585ec392f8a,626b3c0963357fc439dd3704,,,,,,,,,,,,,,,,,,,,,,,a,1,0.9323,"[""0.698"",""0.422"",""0.656"",""0.927""]","[0,1,1,1]",0,50,50,50,1,0,0,,,0,FALSE,,,,,,,,,,,,,,,,,,,,,,,,,,,,,,
,,001,2022-04-28_18h15.23.111,classification_task,2021.2.3,MacIntel,60.0024001,61410523235baca0b15c9afd,626b377229c10585ec392f8a,626b3c0963357fc439dd3704,,,,,,,,,,,,,,,,,,,,,,,l,0,1.0834,"[""0.262"",""0.422"",""0.343"",""0.927""]","[1,1,0,1]",0,51,51,51,1,0,0,,,0,FALSE,,,,,,,,,,,,,,,,,,,,,,,,,,,,,,
,,001,2022-04-28_18h15.23.111,classification_task,2021.2.3,MacIntel,60.0024001,61410523235baca0b15c9afd,626b377229c10585ec392f8a,626b3c0963357fc439dd3704,,,,,,,,,,,,,,,,,,,,,,,l,1,1.2324,"[""0.036"",""0.073"",""0.603"",""0.353""]","[1,1,1,0]",0,52,52,52,1,1,1,,,0,FALSE,,,,,,,,,,,,,,,,,,,,,,,,,,,,,,
,,001,2022-04-28_18h15.23.111,classification_task,2021.2.3,MacIntel,60.0024001,61410523235baca0b15c9afd,626b377229c10585ec392f8a,626b3c0963357fc439dd3704,,,,,,,,,,,,,,,,,,,,,,,a,0,0.7798,"[""0.121"",""0.220"",""0.698"",""0.804""]","[1,1,0,1]",0,53,53,53,1,1,0,,,0,FALSE,,,,,,,,,,,,,,,,,,,,,,,,,,,,,,
,,001,2022-04-28_18h15.23.111,classification_task,2021.2.3,MacIntel,60.0024001,61410523235baca0b15c9afd,626b377229c10585ec392f8a,626b3c0963357fc439dd3704,,,,,,,,,,,,,,,,,,,,,,,a,1,0.7163,"[""0.350"",""0.463"",""0.858"",""0.970""]","[0,1,1,1]",0,54,54,54,1,0,1,,,0,FALSE,,,,,,,,,,,,,,,,,,,,,,,,,,,,,,
,,001,2022-04-28_18h15.23.111,classification_task,2021.2.3,MacIntel,60.0024001,61410523235baca0b15c9afd,626b377229c10585ec392f8a,626b3c0963357fc439dd3704,,,,,,,,,,,,,,,,,,,,,,,l,1,0.7305,"[""0.698"",""0.073"",""0.603"",""0.732""]","[0,1,1,1]",0,55,55,55,1,1,1,,,0,FALSE,,,,,,,,,,,,,,,,,,,,,,,,,,,,,,
,,001,2022-04-28_18h15.23.111,classification_task,2021.2.3,MacIntel,60.0024001,61410523235baca0b15c9afd,626b377229c10585ec392f8a,626b3c0963357fc439dd3704,,,,,,,,,,,,,,,,,,,,,,,a,0,1.1329,"[""0.036"",""0.073"",""0.507"",""0.732""]","[1,1,0,1]",0,56,56,56,1,1,1,,,0,FALSE,,,,,,,,,,,,,,,,,,,,,,,,,,,,,,
,,001,2022-04-28_18h15.23.111,classification_task,2021.2.3,MacIntel,60.0024001,61410523235baca0b15c9afd,626b377229c10585ec392f8a,626b3c0963357fc439dd3704,,,,,,,,,,,,,,,,,,,,,,,a,1,0.8303,"[""0.159"",""0.463"",""0.383"",""0.970""]","[1,1,0,1]",0,57,57,57,1,0,1,,,0,FALSE,,,,,,,,,,,,,,,,,,,,,,,,,,,,,,
,,001,2022-04-28_18h15.23.111,classification_task,2021.2.3,MacIntel,60.0024001,61410523235baca0b15c9afd,626b377229c10585ec392f8a,626b3c0963357fc439dd3704,,,,,,,,,,,,,,,,,,,,,,,l,0,0.8313,"[""0.159"",""0.383"",""0.858"",""0.970""]","[1,0,1,1]",0,58,58,58,1,0,1,,,0,FALSE,,,,,,,,,,,,,,,,,,,,,,,,,,,,,,
,,001,2022-04-28_18h15.23.111,classification_task,2021.2.3,MacIntel,60.0024001,61410523235baca0b15c9afd,626b377229c10585ec392f8a,626b3c0963357fc439dd3704,,,,,,,,,,,,,,,,,,,,,,,l,1,0.6634,"[""0.299"",""0.220"",""0.560"",""0.804""]","[0,1,1,1]",0,59,59,59,1,1,0,,,0,FALSE,,,,,,,,,,,,,,,,,,,,,,,,,,,,,,
,,001,2022-04-28_18h15.23.111,classification_task,2021.2.3,MacIntel,60.0024001,61410523235baca0b15c9afd,626b377229c10585ec392f8a,626b3c0963357fc439dd3704,,,,,,,,,,,,,,,,,,,,,,,a,1,1.3822,"[""0.159"",""0.463"",""0.858"",""0.299""]","[1,1,1,0]",0,60,60,60,1,0,1,,,0,FALSE,,,,,,,,,,,,,,,,,,,,,,,,,,,,,,
,,001,2022-04-28_18h15.23.111,classification_task,2021.2.3,MacIntel,60.0024001,61410523235baca0b15c9afd,626b377229c10585ec392f8a,626b3c0963357fc439dd3704,,,,,,,,,,,,,,,,,,,,,,,a,0,0.8999,"[""0.121"",""0.308"",""0.560"",""0.804""]","[1,0,1,1]",0,61,61,61,1,1,0,,,0,FALSE,,,,,,,,,,,,,,,,,,,,,,,,,,,,,,
,,001,2022-04-28_18h15.23.111,classification_task,2021.2.3,MacIntel,60.0024001,61410523235baca0b15c9afd,626b377229c10585ec392f8a,626b3c0963357fc439dd3704,,,,,,,,,,,,,,,,,,,,,,,a,0,0.9807,"[""0.036"",""0.343"",""0.603"",""0.732""]","[1,0,1,1]",0,62,62,62,1,1,1,,,0,FALSE,,,,,,,,,,,,,,,,,,,,,,,,,,,,,,
,,001,2022-04-28_18h15.23.111,classification_task,2021.2.3,MacIntel,60.0024001,61410523235baca0b15c9afd,626b377229c10585ec392f8a,626b3c0963357fc439dd3704,,,,,,,,,,,,,,,,,,,,,,,a,1,0.8314,"[""0.262"",""0.422"",""0.656"",""0.507""]","[1,1,1,0]",0,63,63,63,1,0,0,,,0,FALSE,,,,,,,,,,,,,,,,,,,,,,,,,,,,,,
,,001,2022-04-28_18h15.23.111,classification_task,2021.2.3,MacIntel,60.0024001,61410523235baca0b15c9afd,626b377229c10585ec392f8a,626b3c0963357fc439dd3704,,,,,,,,,,,,,,,,,,,,,,,,,,,,,,,,,,,,,,,0, ,,0,9.333043981,406.6541,0,0,0,0,1,2,1,,,,,,,,,,,,,,,,,
,,001,2022-04-28_18h15.23.111,classification_task,2021.2.3,MacIntel,60.0024001,61410523235baca0b15c9afd,626b377229c10585ec392f8a,626b3c0963357fc439dd3704,,,,,,,,,,,,,,,,,,,,,,,,,,,,,,,,,,,,,,,1,  ,,0,5.298652447,409.3572,0,0,0,0,1,2,1,,,,,,,,,,,,,,,,,
,,001,2022-04-28_18h15.23.111,classification_task,2021.2.3,MacIntel,60.0024001,61410523235baca0b15c9afd,626b377229c10585ec392f8a,626b3c0963357fc439dd3704,,,,,,,,,,,,,,,,,,,,,,,,,,,,,,,,,,,,,,,2,  ,,0,5.480530754,413.5233,0,0,0,0,1,2,1,,,,,,,,,,,,,,,,,
,,001,2022-04-28_18h15.23.111,classification_task,2021.2.3,MacIntel,60.0024001,61410523235baca0b15c9afd,626b377229c10585ec392f8a,626b3c0963357fc439dd3704,,,,,,,,,,,,,,,,,,,,,,,,,,,,,,,,,,,,,,,,,,,,,0,0,0,0,1,,1,,,,,,,,,,,,,,,,,
,,001,2022-04-28_18h15.23.111,classification_task,2021.2.3,MacIntel,60.0024001,61410523235baca0b15c9afd,626b377229c10585ec392f8a,626b3c0963357fc439dd3704,,,,,,,,,,,,,,,,,,,,,space,9.816,l,1,4.5484,"[""0.036"",""0.073"",""0.299"",""0.732""]","[1,1,0,1]",0,0,0,0,1,1,1,,,0,FALSE,,,,,,,,,,,,,,,,,,,,,,,,,,,,,,
,,001,2022-04-28_18h15.23.111,classification_task,2021.2.3,MacIntel,60.0024001,61410523235baca0b15c9afd,626b377229c10585ec392f8a,626b3c0963357fc439dd3704,,,,,,,,,,,,,,,,,,,,,,,a,0,2.0872,"[""0.387"",""0.073"",""0.603"",""0.732""]","[0,1,1,1]",0,1,1,1,1,1,1,,,0,FALSE,,,,,,,,,,,,,,,,,,,,,,,,,,,,,,
,,001,2022-04-28_18h15.23.111,classification_task,2021.2.3,MacIntel,60.0024001,61410523235baca0b15c9afd,626b377229c10585ec392f8a,626b3c0963357fc439dd3704,,,,,,,,,,,,,,,,,,,,,,,l,1,3.6015,"[""0.121"",""0.220"",""0.689"",""0.804""]","[1,1,0,1]",0,2,2,2,1,1,0,,,0,FALSE,,,,,,,,,,,,,,,,,,,,,,,,,,,,,,
,,001,2022-04-28_18h15.23.111,classification_task,2021.2.3,MacIntel,60.0024001,61410523235baca0b15c9afd,626b377229c10585ec392f8a,626b3c0963357fc439dd3704,,,,,,,,,,,,,,,,,,,,,,,a,0,2.9087,"[""0.312"",""0.220"",""0.560"",""0.804""]","[0,1,1,1]",0,3,3,3,1,1,0,,,0,FALSE,,,,,,,,,,,,,,,,,,,,,,,,,,,,,,
,,001,2022-04-28_18h15.23.111,classification_task,2021.2.3,MacIntel,60.0024001,61410523235baca0b15c9afd,626b377229c10585ec392f8a,626b3c0963357fc439dd3704,,,,,,,,,,,,,,,,,,,,,,,a,0,1.1683,"[""0.036"",""0.073"",""0.603"",""0.514""]","[1,1,1,0]",0,4,4,4,1,1,1,,,0,FALSE,,,,,,,,,,,,,,,,,,,,,,,,,,,,,,
,,001,2022-04-28_18h15.23.111,classification_task,2021.2.3,MacIntel,60.0024001,61410523235baca0b15c9afd,626b377229c10585ec392f8a,626b3c0963357fc439dd3704,,,,,,,,,,,,,,,,,,,,,,,a,1,1.3307,"[""0.262"",""0.422"",""0.383"",""0.927""]","[1,1,0,1]",0,5,5,5,1,0,0,,,0,FALSE,,,,,,,,,,,,,,,,,,,,,,,,,,,,,,
,,001,2022-04-28_18h15.23.111,classification_task,2021.2.3,MacIntel,60.0024001,61410523235baca0b15c9afd,626b377229c10585ec392f8a,626b3c0963357fc439dd3704,,,,,,,,,,,,,,,,,,,,,,,a,1,1.2321,"[""0.262"",""0.422"",""0.656"",""0.343""]","[1,1,1,0]",0,6,6,6,1,0,0,,,0,FALSE,,,,,,,,,,,,,,,,,,,,,,,,,,,,,,
,,001,2022-04-28_18h15.23.111,classification_task,2021.2.3,MacIntel,60.0024001,61410523235baca0b15c9afd,626b377229c10585ec392f8a,626b3c0963357fc439dd3704,,,,,,,,,,,,,,,,,,,,,,,l,1,1.4525,"[""0.036"",""0.353"",""0.603"",""0.732""]","[1,0,1,1]",0,7,7,7,1,1,1,,,0,FALSE,,,,,,,,,,,,,,,,,,,,,,,,,,,,,,
,,001,2022-04-28_18h15.23.111,classification_task,2021.2.3,MacIntel,60.0024001,61410523235baca0b15c9afd,626b377229c10585ec392f8a,626b3c0963357fc439dd3704,,,,,,,,,,,,,,,,,,,,,,,l,0,0.7492,"[""0.159"",""0.463"",""0.858"",""0.383""]","[1,1,1,0]",0,8,8,8,1,0,1,,,0,FALSE,,,,,,,,,,,,,,,,,,,,,,,,,,,,,,
,,001,2022-04-28_18h15.23.111,classification_task,2021.2.3,MacIntel,60.0024001,61410523235baca0b15c9afd,626b377229c10585ec392f8a,626b3c0963357fc439dd3704,,,,,,,,,,,,,,,,,,,,,,,a,1,1.2482,"[""0.353"",""0.422"",""0.656"",""0.927""]","[0,1,1,1]",0,9,9,9,1,0,0,,,0,FALSE,,,,,,,,,,,,,,,,,,,,,,,,,,,,,,
,,001,2022-04-28_18h15.23.111,classification_task,2021.2.3,MacIntel,60.0024001,61410523235baca0b15c9afd,626b377229c10585ec392f8a,626b3c0963357fc439dd3704,,,,,,,,,,,,,,,,,,,,,,,l,1,1.284,"[""0.121"",""0.299"",""0.560"",""0.804""]","[1,0,1,1]",0,10,10,10,1,1,0,,,0,FALSE,,,,,,,,,,,,,,,,,,,,,,,,,,,,,,
,,001,2022-04-28_18h15.23.111,classification_task,2021.2.3,MacIntel,60.0024001,61410523235baca0b15c9afd,626b377229c10585ec392f8a,626b3c0963357fc439dd3704,,,,,,,,,,,,,,,,,,,,,,,l,0,1.1683,"[""0.159"",""0.463"",""0.354"",""0.970""]","[1,1,0,1]",0,11,11,11,1,0,1,,,0,FALSE,,,,,,,,,,,,,,,,,,,,,,,,,,,,,,
,,001,2022-04-28_18h15.23.111,classification_task,2021.2.3,MacIntel,60.0024001,61410523235baca0b15c9afd,626b377229c10585ec392f8a,626b3c0963357fc439dd3704,,,,,,,,,,,,,,,,,,,,,,,l,0,0.95,"[""0.159"",""0.353"",""0.858"",""0.970""]","[1,0,1,1]",0,12,12,12,1,0,1,,,0,FALSE,,,,,,,,,,,,,,,,,,,,,,,,,,,,,,
,,001,2022-04-28_18h15.23.111,classification_task,2021.2.3,MacIntel,60.0024001,61410523235baca0b15c9afd,626b377229c10585ec392f8a,626b3c0963357fc439dd3704,,,,,,,,,,,,,,,,,,,,,,,l,1,0.6983,"[""0.121"",""0.220"",""0.560"",""0.354""]","[1,1,1,0]",0,13,13,13,1,1,0,,,0,FALSE,,,,,,,,,,,,,,,,,,,,,,,,,,,,,,
,,001,2022-04-28_18h15.23.111,classification_task,2021.2.3,MacIntel,60.0024001,61410523235baca0b15c9afd,626b377229c10585ec392f8a,626b3c0963357fc439dd3704,,,,,,,,,,,,,,,,,,,,,,,a,1,0.7808,"[""0.262"",""0.507"",""0.656"",""0.927""]","[1,0,1,1]",0,14,14,14,1,0,0,,,0,FALSE,,,,,,,,,,,,,,,,,,,,,,,,,,,,,,
,,001,2022-04-28_18h15.23.111,classification_task,2021.2.3,MacIntel,60.0024001,61410523235baca0b15c9afd,626b377229c10585ec392f8a,626b3c0963357fc439dd3704,,,,,,,,,,,,,,,,,,,,,,,a,1,0.6809,"[""0.312"",""0.463"",""0.858"",""0.970""]","[0,1,1,1]",0,15,15,15,1,0,1,,,0,FALSE,,,,,,,,,,,,,,,,,,,,,,,,,,,,,,
,,001,2022-04-28_18h15.23.111,classification_task,2021.2.3,MacIntel,60.0024001,61410523235baca0b15c9afd,626b377229c10585ec392f8a,626b3c0963357fc439dd3704,,,,,,,,,,,,,,,,,,,,,,,a,0,0.5474,"[""0.036"",""0.073"",""0.603"",""0.354""]","[1,1,1,0]",0,16,16,16,1,1,1,,,0,FALSE,,,,,,,,,,,,,,,,,,,,,,,,,,,,,,
,,001,2022-04-28_18h15.23.111,classification_task,2021.2.3,MacIntel,60.0024001,61410523235baca0b15c9afd,626b377229c10585ec392f8a,626b3c0963357fc439dd3704,,,,,,,,,,,,,,,,,,,,,,,a,1,0.9134,"[""0.159"",""0.343"",""0.858"",""0.970""]","[1,0,1,1]",0,17,17,17,1,0,1,,,0,FALSE,,,,,,,,,,,,,,,,,,,,,,,,,,,,,,
,,001,2022-04-28_18h15.23.111,classification_task,2021.2.3,MacIntel,60.0024001,61410523235baca0b15c9afd,626b377229c10585ec392f8a,626b3c0963357fc439dd3704,,,,,,,,,,,,,,,,,,,,,,,l,0,0.8815,"[""0.262"",""0.422"",""0.299"",""0.927""]","[1,1,0,1]",0,18,18,18,1,0,0,,,0,FALSE,,,,,,,,,,,,,,,,,,,,,,,,,,,,,,
,,001,2022-04-28_18h15.23.111,classification_task,2021.2.3,MacIntel,60.0024001,61410523235baca0b15c9afd,626b377229c10585ec392f8a,626b3c0963357fc439dd3704,,,,,,,,,,,,,,,,,,,,,,,l,1,0.5969,"[""0.121"",""0.350"",""0.560"",""0.804""]","[1,0,1,1]",0,19,19,19,1,1,0,,,0,FALSE,,,,,,,,,,,,,,,,,,,,,,,,,,,,,,
,,001,2022-04-28_18h15.23.111,classification_task,2021.2.3,MacIntel,60.0024001,61410523235baca0b15c9afd,626b377229c10585ec392f8a,626b3c0963357fc439dd3704,,,,,,,,,,,,,,,,,,,,,,,l,0,0.7336,"[""0.159"",""0.463"",""0.858"",""0.387""]","[1,1,1,0]",0,20,20,20,1,0,1,,,0,FALSE,,,,,,,,,,,,,,,,,,,,,,,,,,,,,,
,,001,2022-04-28_18h15.23.111,classification_task,2021.2.3,MacIntel,60.0024001,61410523235baca0b15c9afd,626b377229c10585ec392f8a,626b3c0963357fc439dd3704,,,,,,,,,,,,,,,,,,,,,,,a,1,0.7475,"[""0.262"",""0.422"",""0.656"",""0.383""]","[1,1,1,0]",0,21,21,21,1,0,0,,,0,FALSE,,,,,,,,,,,,,,,,,,,,,,,,,,,,,,
,,001,2022-04-28_18h15.23.111,classification_task,2021.2.3,MacIntel,60.0024001,61410523235baca0b15c9afd,626b377229c10585ec392f8a,626b3c0963357fc439dd3704,,,,,,,,,,,,,,,,,,,,,,,a,1,0.681,"[""0.354"",""0.422"",""0.656"",""0.927""]","[0,1,1,1]",0,22,22,22,1,0,0,,,0,FALSE,,,,,,,,,,,,,,,,,,,,,,,,,,,,,,
,,001,2022-04-28_18h15.23.111,classification_task,2021.2.3,MacIntel,60.0024001,61410523235baca0b15c9afd,626b377229c10585ec392f8a,626b3c0963357fc439dd3704,,,,,,,,,,,,,,,,,,,,,,,a,1,0.7141,"[""0.159"",""0.463"",""0.297"",""0.970""]","[1,1,0,1]",0,23,23,23,1,0,1,,,0,FALSE,,,,,,,,,,,,,,,,,,,,,,,,,,,,,,
,,001,2022-04-28_18h15.23.111,classification_task,2021.2.3,MacIntel,60.0024001,61410523235baca0b15c9afd,626b377229c10585ec392f8a,626b3c0963357fc439dd3704,,,,,,,,,,,,,,,,,,,,,,,l,1,0.4798,"[""0.121"",""0.220"",""0.560"",""0.507""]","[1,1,1,0]",0,24,24,24,1,1,0,,,0,FALSE,,,,,,,,,,,,,,,,,,,,,,,,,,,,,,
,,001,2022-04-28_18h15.23.111,classification_task,2021.2.3,MacIntel,60.0024001,61410523235baca0b15c9afd,626b377229c10585ec392f8a,626b3c0963357fc439dd3704,,,,,,,,,,,,,,,,,,,,,,,l,0,0.7012,"[""0.350"",""0.463"",""0.858"",""0.970""]","[0,1,1,1]",0,25,25,25,1,0,1,,,0,FALSE,,,,,,,,,,,,,,,,,,,,,,,,,,,,,,
,,001,2022-04-28_18h15.23.111,classification_task,2021.2.3,MacIntel,60.0024001,61410523235baca0b15c9afd,626b377229c10585ec392f8a,626b3c0963357fc439dd3704,,,,,,,,,,,,,,,,,,,,,,,l,1,0.9487,"[""0.350"",""0.073"",""0.603"",""0.732""]","[0,1,1,1]",0,26,26,26,1,1,1,,,0,FALSE,,,,,,,,,,,,,,,,,,,,,,,,,,,,,,
,,001,2022-04-28_18h15.23.111,classification_task,2021.2.3,MacIntel,60.0024001,61410523235baca0b15c9afd,626b377229c10585ec392f8a,626b3c0963357fc439dd3704,,,,,,,,,,,,,,,,,,,,,,,l,1,0.5659,"[""0.036"",""0.312"",""0.603"",""0.732""]","[1,0,1,1]",0,27,27,27,1,1,1,,,0,FALSE,,,,,,,,,,,,,,,,,,,,,,,,,,,,,,
,,001,2022-04-28_18h15.23.111,classification_task,2021.2.3,MacIntel,60.0024001,61410523235baca0b15c9afd,626b377229c10585ec392f8a,626b3c0963357fc439dd3704,,,,,,,,,,,,,,,,,,,,,,,a,0,0.3845,"[""0.036"",""0.073"",""0.375"",""0.732""]","[1,1,0,1]",0,28,28,28,1,1,1,,,0,FALSE,,,,,,,,,,,,,,,,,,,,,,,,,,,,,,
,,001,2022-04-28_18h15.23.111,classification_task,2021.2.3,MacIntel,60.0024001,61410523235baca0b15c9afd,626b377229c10585ec392f8a,626b3c0963357fc439dd3704,,,,,,,,,,,,,,,,,,,,,,,a,0,0.3985,"[""0.343"",""0.220"",""0.560"",""0.804""]","[0,1,1,1]",0,29,29,29,1,1,0,,,0,FALSE,,,,,,,,,,,,,,,,,,,,,,,,,,,,,,
,,001,2022-04-28_18h15.23.111,classification_task,2021.2.3,MacIntel,60.0024001,61410523235baca0b15c9afd,626b377229c10585ec392f8a,626b3c0963357fc439dd3704,,,,,,,,,,,,,,,,,,,,,,,a,1,0.3994,"[""0.262"",""0.507"",""0.656"",""0.927""]","[1,0,1,1]",0,30,30,30,1,0,0,,,0,FALSE,,,,,,,,,,,,,,,,,,,,,,,,,,,,,,
,,001,2022-04-28_18h15.23.111,classification_task,2021.2.3,MacIntel,60.0024001,61410523235baca0b15c9afd,626b377229c10585ec392f8a,626b3c0963357fc439dd3704,,,,,,,,,,,,,,,,,,,,,,,a,0,0.3323,"[""0.121"",""0.220"",""0.308"",""0.804""]","[1,1,0,1]",0,31,31,31,1,1,0,,,0,FALSE,,,,,,,,,,,,,,,,,,,,,,,,,,,,,,
,,001,2022-04-28_18h15.23.111,classification_task,2021.2.3,MacIntel,60.0024001,61410523235baca0b15c9afd,626b377229c10585ec392f8a,626b3c0963357fc439dd3704,,,,,,,,,,,,,,,,,,,,,,,a,0,0.4294,"[""0.121"",""0.350"",""0.560"",""0.804""]","[1,0,1,1]",0,32,32,32,1,1,0,,,0,FALSE,,,,,,,,,,,,,,,,,,,,,,,,,,,,,,
,,001,2022-04-28_18h15.23.111,classification_task,2021.2.3,MacIntel,60.0024001,61410523235baca0b15c9afd,626b377229c10585ec392f8a,626b3c0963357fc439dd3704,,,,,,,,,,,,,,,,,,,,,,,l,0,0.4002,"[""0.159"",""0.463"",""0.858"",""0.312""]","[1,1,1,0]",0,33,33,33,1,0,1,,,0,FALSE,,,,,,,,,,,,,,,,,,,,,,,,,,,,,,
,,001,2022-04-28_18h15.23.111,classification_task,2021.2.3,MacIntel,60.0024001,61410523235baca0b15c9afd,626b377229c10585ec392f8a,626b3c0963357fc439dd3704,,,,,,,,,,,,,,,,,,,,,,,l,0,0.4819,"[""0.262"",""0.422"",""0.383"",""0.927""]","[1,1,0,1]",0,34,34,34,1,0,0,,,0,FALSE,,,,,,,,,,,,,,,,,,,,,,,,,,,,,,
,,001,2022-04-28_18h15.23.111,classification_task,2021.2.3,MacIntel,60.0024001,61410523235baca0b15c9afd,626b377229c10585ec392f8a,626b3c0963357fc439dd3704,,,,,,,,,,,,,,,,,,,,,,,l,0,0.3157,"[""0.159"",""0.312"",""0.858"",""0.970""]","[1,0,1,1]",0,35,35,35,1,0,1,,,0,FALSE,,,,,,,,,,,,,,,,,,,,,,,,,,,,,,
,,001,2022-04-28_18h15.23.111,classification_task,2021.2.3,MacIntel,60.0024001,61410523235baca0b15c9afd,626b377229c10585ec392f8a,626b3c0963357fc439dd3704,,,,,,,,,,,,,,,,,,,,,,,l,1,0.3655,"[""0.036"",""0.073"",""0.312"",""0.732""]","[1,1,0,1]",0,36,36,36,1,1,1,,,0,FALSE,,,,,,,,,,,,,,,,,,,,,,,,,,,,,,
,,001,2022-04-28_18h15.23.111,classification_task,2021.2.3,MacIntel,60.0024001,61410523235baca0b15c9afd,626b377229c10585ec392f8a,626b3c0963357fc439dd3704,,,,,,,,,,,,,,,,,,,,,,,l,1,0.431,"[""0.121"",""0.220"",""0.353"",""0.804""]","[1,1,0,1]",0,37,37,37,1,1,0,,,0,FALSE,,,,,,,,,,,,,,,,,,,,,,,,,,,,,,
,,001,2022-04-28_18h15.23.111,classification_task,2021.2.3,MacIntel,60.0024001,61410523235baca0b15c9afd,626b377229c10585ec392f8a,626b3c0963357fc439dd3704,,,,,,,,,,,,,,,,,,,,,,,l,1,0.7979,"[""0.383"",""0.073"",""0.603"",""0.732""]","[0,1,1,1]",0,38,38,38,1,1,1,,,0,FALSE,,,,,,,,,,,,,,,,,,,,,,,,,,,,,,
,,001,2022-04-28_18h15.23.111,classification_task,2021.2.3,MacIntel,60.0024001,61410523235baca0b15c9afd,626b377229c10585ec392f8a,626b3c0963357fc439dd3704,,,,,,,,,,,,,,,,,,,,,,,l,0,0.466,"[""0.297"",""0.422"",""0.656"",""0.927""]","[0,1,1,1]",0,39,39,39,1,0,0,,,0,FALSE,,,,,,,,,,,,,,,,,,,,,,,,,,,,,,
,,001,2022-04-28_18h15.23.111,classification_task,2021.2.3,MacIntel,60.0024001,61410523235baca0b15c9afd,626b377229c10585ec392f8a,626b3c0963357fc439dd3704,,,,,,,,,,,,,,,,,,,,,,,a,1,0.3111,"[""0.262"",""0.422"",""0.656"",""0.689""]","[1,1,1,0]",0,40,40,40,1,0,0,,,0,FALSE,,,,,,,,,,,,,,,,,,,,,,,,,,,,,,
,,001,2022-04-28_18h15.23.111,classification_task,2021.2.3,MacIntel,60.0024001,61410523235baca0b15c9afd,626b377229c10585ec392f8a,626b3c0963357fc439dd3704,,,,,,,,,,,,,,,,,,,,,,,a,1,0.3309,"[""0.312"",""0.463"",""0.858"",""0.970""]","[0,1,1,1]",0,41,41,41,1,0,1,,,0,FALSE,,,,,,,,,,,,,,,,,,,,,,,,,,,,,,
,,001,2022-04-28_18h15.23.111,classification_task,2021.2.3,MacIntel,60.0024001,61410523235baca0b15c9afd,626b377229c10585ec392f8a,626b3c0963357fc439dd3704,,,,,,,,,,,,,,,,,,,,,,,a,1,0.6827,"[""0.262"",""0.375"",""0.656"",""0.927""]","[1,0,1,1]",0,42,42,42,1,0,0,,,0,FALSE,,,,,,,,,,,,,,,,,,,,,,,,,,,,,,
,,001,2022-04-28_18h15.23.111,classification_task,2021.2.3,MacIntel,60.0024001,61410523235baca0b15c9afd,626b377229c10585ec392f8a,626b3c0963357fc439dd3704,,,,,,,,,,,,,,,,,,,,,,,l,0,0.3802,"[""0.159"",""0.463"",""0.387"",""0.970""]","[1,1,0,1]",0,43,43,43,1,0,1,,,0,FALSE,,,,,,,,,,,,,,,,,,,,,,,,,,,,,,
,,001,2022-04-28_18h15.23.111,classification_task,2021.2.3,MacIntel,60.0024001,61410523235baca0b15c9afd,626b377229c10585ec392f8a,626b3c0963357fc439dd3704,,,,,,,,,,,,,,,,,,,,,,,l,1,0.3326,"[""0.036"",""0.383"",""0.603"",""0.732""]","[1,0,1,1]",0,44,44,44,1,1,1,,,0,FALSE,,,,,,,,,,,,,,,,,,,,,,,,,,,,,,
,,001,2022-04-28_18h15.23.111,classification_task,2021.2.3,MacIntel,60.0024001,61410523235baca0b15c9afd,626b377229c10585ec392f8a,626b3c0963357fc439dd3704,,,,,,,,,,,,,,,,,,,,,,,l,1,0.5152,"[""0.350"",""0.220"",""0.560"",""0.804""]","[0,1,1,1]",0,45,45,45,1,1,0,,,0,FALSE,,,,,,,,,,,,,,,,,,,,,,,,,,,,,,
,,001,2022-04-28_18h15.23.111,classification_task,2021.2.3,MacIntel,60.0024001,61410523235baca0b15c9afd,626b377229c10585ec392f8a,626b3c0963357fc439dd3704,,,,,,,,,,,,,,,,,,,,,,,a,0,0.4004,"[""0.036"",""0.073"",""0.603"",""0.507""]","[1,1,1,0]",0,46,46,46,1,1,1,,,0,FALSE,,,,,,,,,,,,,,,,,,,,,,,,,,,,,,
,,001,2022-04-28_18h15.23.111,classification_task,2021.2.3,MacIntel,60.0024001,61410523235baca0b15c9afd,626b377229c10585ec392f8a,626b3c0963357fc439dd3704,,,,,,,,,,,,,,,,,,,,,,,a,0,0.3634,"[""0.121"",""0.220"",""0.560"",""0.383""]","[1,1,1,0]",0,47,47,47,1,1,0,,,0,FALSE,,,,,,,,,,,,,,,,,,,,,,,,,,,,,,
,,001,2022-04-28_18h15.23.111,classification_task,2021.2.3,MacIntel,60.0024001,61410523235baca0b15c9afd,626b377229c10585ec392f8a,626b3c0963357fc439dd3704,,,,,,,,,,,,,,,,,,,,,,,a,1,0.3144,"[""0.159"",""0.463"",""0.698"",""0.970""]","[1,1,0,1]",0,48,48,48,1,0,1,,,0,FALSE,,,,,,,,,,,,,,,,,,,,,,,,,,,,,,
,,001,2022-04-28_18h15.23.111,classification_task,2021.2.3,MacIntel,60.0024001,61410523235baca0b15c9afd,626b377229c10585ec392f8a,626b3c0963357fc439dd3704,,,,,,,,,,,,,,,,,,,,,,,a,1,0.465,"[""0.159"",""0.463"",""0.858"",""0.698""]","[1,1,1,0]",0,49,49,49,1,0,1,,,0,FALSE,,,,,,,,,,,,,,,,,,,,,,,,,,,,,,
,,001,2022-04-28_18h15.23.111,classification_task,2021.2.3,MacIntel,60.0024001,61410523235baca0b15c9afd,626b377229c10585ec392f8a,626b3c0963357fc439dd3704,,,,,,,,,,,,,,,,,,,,,,,a,0,0.298,"[""0.036"",""0.073"",""0.350"",""0.732""]","[1,1,0,1]",0,50,50,50,1,1,1,,,0,FALSE,,,,,,,,,,,,,,,,,,,,,,,,,,,,,,
,,001,2022-04-28_18h15.23.111,classification_task,2021.2.3,MacIntel,60.0024001,61410523235baca0b15c9afd,626b377229c10585ec392f8a,626b3c0963357fc439dd3704,,,,,,,,,,,,,,,,,,,,,,,l,0,0.3135,"[""0.698"",""0.422"",""0.656"",""0.927""]","[0,1,1,1]",0,51,51,51,1,0,0,,,0,FALSE,,,,,,,,,,,,,,,,,,,,,,,,,,,,,,
,,001,2022-04-28_18h15.23.111,classification_task,2021.2.3,MacIntel,60.0024001,61410523235baca0b15c9afd,626b377229c10585ec392f8a,626b3c0963357fc439dd3704,,,,,,,,,,,,,,,,,,,,,,,l,1,0.3495,"[""0.121"",""0.220"",""0.698"",""0.804""]","[1,1,0,1]",0,52,52,52,1,1,0,,,0,FALSE,,,,,,,,,,,,,,,,,,,,,,,,,,,,,,
,,001,2022-04-28_18h15.23.111,classification_task,2021.2.3,MacIntel,60.0024001,61410523235baca0b15c9afd,626b377229c10585ec392f8a,626b3c0963357fc439dd3704,,,,,,,,,,,,,,,,,,,,,,,l,0,0.4312,"[""0.353"",""0.463"",""0.858"",""0.970""]","[0,1,1,1]",0,53,53,53,1,0,1,,,0,FALSE,,,,,,,,,,,,,,,,,,,,,,,,,,,,,,
,,001,2022-04-28_18h15.23.111,classification_task,2021.2.3,MacIntel,60.0024001,61410523235baca0b15c9afd,626b377229c10585ec392f8a,626b3c0963357fc439dd3704,,,,,,,,,,,,,,,,,,,,,,,a,1,0.4318,"[""0.159"",""0.343"",""0.858"",""0.970""]","[1,0,1,1]",0,54,54,54,1,0,1,,,0,FALSE,,,,,,,,,,,,,,,,,,,,,,,,,,,,,,
,,001,2022-04-28_18h15.23.111,classification_task,2021.2.3,MacIntel,60.0024001,61410523235baca0b15c9afd,626b377229c10585ec392f8a,626b3c0963357fc439dd3704,,,,,,,,,,,,,,,,,,,,,,,a,0,0.2987,"[""0.689"",""0.220"",""0.560"",""0.804""]","[0,1,1,1]",0,55,55,55,1,1,0,,,0,FALSE,,,,,,,,,,,,,,,,,,,,,,,,,,,,,,
,,001,2022-04-28_18h15.23.111,classification_task,2021.2.3,MacIntel,60.0024001,61410523235baca0b15c9afd,626b377229c10585ec392f8a,626b3c0963357fc439dd3704,,,,,,,,,,,,,,,,,,,,,,,a,1,0.3978,"[""0.262"",""0.422"",""0.656"",""0.383""]","[1,1,1,0]",0,56,56,56,1,0,0,,,0,FALSE,,,,,,,,,,,,,,,,,,,,,,,,,,,,,,
,,001,2022-04-28_18h15.23.111,classification_task,2021.2.3,MacIntel,60.0024001,61410523235baca0b15c9afd,626b377229c10585ec392f8a,626b3c0963357fc439dd3704,,,,,,,,,,,,,,,,,,,,,,,a,1,0.4305,"[""0.262"",""0.422"",""0.689"",""0.927""]","[1,1,0,1]",0,57,57,57,1,0,0,,,0,FALSE,,,,,,,,,,,,,,,,,,,,,,,,,,,,,,
,,001,2022-04-28_18h15.23.111,classification_task,2021.2.3,MacIntel,60.0024001,61410523235baca0b15c9afd,626b377229c10585ec392f8a,626b3c0963357fc439dd3704,,,,,,,,,,,,,,,,,,,,,,,a,0,0.3136,"[""0.036"",""0.343"",""0.603"",""0.732""]","[1,0,1,1]",0,58,58,58,1,1,1,,,0,FALSE,,,,,,,,,,,,,,,,,,,,,,,,,,,,,,
,,001,2022-04-28_18h15.23.111,classification_task,2021.2.3,MacIntel,60.0024001,61410523235baca0b15c9afd,626b377229c10585ec392f8a,626b3c0963357fc439dd3704,,,,,,,,,,,,,,,,,,,,,,,l,1,0.2814,"[""0.121"",""0.220"",""0.560"",""0.383""]","[1,1,1,0]",0,59,59,59,1,1,0,,,0,FALSE,,,,,,,,,,,,,,,,,,,,,,,,,,,,,,
,,001,2022-04-28_18h15.23.111,classification_task,2021.2.3,MacIntel,60.0024001,61410523235baca0b15c9afd,626b377229c10585ec392f8a,626b3c0963357fc439dd3704,,,,,,,,,,,,,,,,,,,,,,,l,1,0.7143,"[""0.121"",""0.387"",""0.560"",""0.804""]","[1,0,1,1]",0,60,60,60,1,1,0,,,0,FALSE,,,,,,,,,,,,,,,,,,,,,,,,,,,,,,
,,001,2022-04-28_18h15.23.111,classification_task,2021.2.3,MacIntel,60.0024001,61410523235baca0b15c9afd,626b377229c10585ec392f8a,626b3c0963357fc439dd3704,,,,,,,,,,,,,,,,,,,,,,,l,1,0.4023,"[""0.297"",""0.073"",""0.603"",""0.732""]","[0,1,1,1]",0,61,61,61,1,1,1,,,0,FALSE,,,,,,,,,,,,,,,,,,,,,,,,,,,,,,
,,001,2022-04-28_18h15.23.111,classification_task,2021.2.3,MacIntel,60.0024001,61410523235baca0b15c9afd,626b377229c10585ec392f8a,626b3c0963357fc439dd3704,,,,,,,,,,,,,,,,,,,,,,,l,0,0.3155,"[""0.262"",""0.312"",""0.656"",""0.927""]","[1,0,1,1]",0,62,62,62,1,0,0,,,0,FALSE,,,,,,,,,,,,,,,,,,,,,,,,,,,,,,
,,001,2022-04-28_18h15.23.111,classification_task,2021.2.3,MacIntel,60.0024001,61410523235baca0b15c9afd,626b377229c10585ec392f8a,626b3c0963357fc439dd3704,,,,,,,,,,,,,,,,,,,,,,,l,1,0.3646,"[""0.036"",""0.073"",""0.603"",""0.354""]","[1,1,1,0]",0,63,63,63,1,1,1,,,0,FALSE,,,,,,,,,,,,,,,,,,,,,,,,,,,,,,
,,001,2022-04-28_18h15.23.111,classification_task,2021.2.3,MacIntel,60.0024001,61410523235baca0b15c9afd,626b377229c10585ec392f8a,626b3c0963357fc439dd3704,,,,,,,,,,,,,,,,,,,,,,,,,,,,,,,,,,,,,,,0, ,,0,8.919224904,128.2917,0,1,1,1,1,2,2,,,,,,,,,,,,,,,,,
,,001,2022-04-28_18h15.23.111,classification_task,2021.2.3,MacIntel,60.0024001,61410523235baca0b15c9afd,626b377229c10585ec392f8a,626b3c0963357fc439dd3704,,,,,,,,,,,,,,,,,,,,,,,,,,,,,,,,,,,,,,,1,  ,,0,10,130.1438,0,1,1,1,1,2,2,,,,,,,,,,,,,,,,,
,,001,2022-04-28_18h15.23.111,classification_task,2021.2.3,MacIntel,60.0024001,61410523235baca0b15c9afd,626b377229c10585ec392f8a,626b3c0963357fc439dd3704,,,,,,,,,,,,,,,,,,,,,,,,,,,,,,,,,,,,,,,2,  ,,0,8.20778678,132.8237,0,1,1,1,1,2,2,,,,,,,,,,,,,,,,,
,,001,2022-04-28_18h15.23.111,classification_task,2021.2.3,MacIntel,60.0024001,61410523235baca0b15c9afd,626b377229c10585ec392f8a,626b3c0963357fc439dd3704,,,,,,,,,,,,,,,,,,,,,,,,,,,,,,,,,,,,,,,,,,,,,0,1,1,1,1,,2,,,,,,,,,,,,,,,,,
,,001,2022-04-28_18h15.23.111,classification_task,2021.2.3,MacIntel,60.0024001,61410523235baca0b15c9afd,626b377229c10585ec392f8a,626b3c0963357fc439dd3704,,,,,,,,,,,,,,,,,,,,,space,9.7848,a,0,1.0361,"[""0.036"",""0.073"",""0.603"",""0.698""]","[1,1,1,0]",0,0,0,0,1,1,1,,,0,FALSE,,,,,,,,,,,,,,,,,,,,,,,,,,,,,,
,,001,2022-04-28_18h15.23.111,classification_task,2021.2.3,MacIntel,60.0024001,61410523235baca0b15c9afd,626b377229c10585ec392f8a,626b3c0963357fc439dd3704,,,,,,,,,,,,,,,,,,,,,,,a,1,1.6514,"[""0.299"",""0.422"",""0.656"",""0.927""]","[0,1,1,1]",0,1,1,1,1,0,0,,,0,FALSE,,,,,,,,,,,,,,,,,,,,,,,,,,,,,,
,,001,2022-04-28_18h15.23.111,classification_task,2021.2.3,MacIntel,60.0024001,61410523235baca0b15c9afd,626b377229c10585ec392f8a,626b3c0963357fc439dd3704,,,,,,,,,,,,,,,,,,,,,,,l,1,1.2996,"[""0.297"",""0.073"",""0.603"",""0.732""]","[0,1,1,1]",0,2,2,2,1,1,1,,,0,FALSE,,,,,,,,,,,,,,,,,,,,,,,,,,,,,,
,,001,2022-04-28_18h15.23.111,classification_task,2021.2.3,MacIntel,60.0024001,61410523235baca0b15c9afd,626b377229c10585ec392f8a,626b3c0963357fc439dd3704,,,,,,,,,,,,,,,,,,,,,,,l,0,0.4677,"[""0.159"",""0.463"",""0.858"",""0.375""]","[1,1,1,0]",0,3,3,3,1,0,1,,,0,FALSE,,,,,,,,,,,,,,,,,,,,,,,,,,,,,,
,,001,2022-04-28_18h15.23.111,classification_task,2021.2.3,MacIntel,60.0024001,61410523235baca0b15c9afd,626b377229c10585ec392f8a,626b3c0963357fc439dd3704,,,,,,,,,,,,,,,,,,,,,,,a,0,0.3158,"[""0.121"",""0.220"",""0.354"",""0.804""]","[1,1,0,1]",0,4,4,4,1,1,0,,,0,FALSE,,,,,,,,,,,,,,,,,,,,,,,,,,,,,,
,,001,2022-04-28_18h15.23.111,classification_task,2021.2.3,MacIntel,60.0024001,61410523235baca0b15c9afd,626b377229c10585ec392f8a,626b3c0963357fc439dd3704,,,,,,,,,,,,,,,,,,,,,,,a,0,0.6305,"[""0.036"",""0.387"",""0.603"",""0.732""]","[1,0,1,1]",0,5,5,5,1,1,1,,,0,FALSE,,,,,,,,,,,,,,,,,,,,,,,,,,,,,,
,,001,2022-04-28_18h15.23.111,classification_task,2021.2.3,MacIntel,60.0024001,61410523235baca0b15c9afd,626b377229c10585ec392f8a,626b3c0963357fc439dd3704,,,,,,,,,,,,,,,,,,,,,,,l,0,0.2681,"[""0.159"",""0.463"",""0.383"",""0.970""]","[1,1,0,1]",0,6,6,6,1,0,1,,,0,FALSE,,,,,,,,,,,,,,,,,,,,,,,,,,,,,,
,,001,2022-04-28_18h15.23.111,classification_task,2021.2.3,MacIntel,60.0024001,61410523235baca0b15c9afd,626b377229c10585ec392f8a,626b3c0963357fc439dd3704,,,,,,,,,,,,,,,,,,,,,,,a,1,0.2966,"[""0.262"",""0.422"",""0.656"",""0.308""]","[1,1,1,0]",0,7,7,7,1,0,0,,,0,FALSE,,,,,,,,,,,,,,,,,,,,,,,,,,,,,,
,,001,2022-04-28_18h15.23.111,classification_task,2021.2.3,MacIntel,60.0024001,61410523235baca0b15c9afd,626b377229c10585ec392f8a,626b3c0963357fc439dd3704,,,,,,,,,,,,,,,,,,,,,,,l,0,0.2314,"[""0.262"",""0.422"",""0.354"",""0.927""]","[1,1,0,1]",0,8,8,8,1,0,0,,,0,FALSE,,,,,,,,,,,,,,,,,,,,,,,,,,,,,,
,,001,2022-04-28_18h15.23.111,classification_task,2021.2.3,MacIntel,60.0024001,61410523235baca0b15c9afd,626b377229c10585ec392f8a,626b3c0963357fc439dd3704,,,,,,,,,,,,,,,,,,,,,,,l,1,0.3655,"[""0.036"",""0.073"",""0.354"",""0.732""]","[1,1,0,1]",0,9,9,9,1,1,1,,,0,FALSE,,,,,,,,,,,,,,,,,,,,,,,,,,,,,,
,,001,2022-04-28_18h15.23.111,classification_task,2021.2.3,MacIntel,60.0024001,61410523235baca0b15c9afd,626b377229c10585ec392f8a,626b3c0963357fc439dd3704,,,,,,,,,,,,,,,,,,,,,,,a,1,0.498,"[""0.262"",""0.514"",""0.656"",""0.927""]","[1,0,1,1]",0,10,10,10,1,0,0,,,0,FALSE,,,,,,,,,,,,,,,,,,,,,,,,,,,,,,
,,001,2022-04-28_18h15.23.111,classification_task,2021.2.3,MacIntel,60.0024001,61410523235baca0b15c9afd,626b377229c10585ec392f8a,626b3c0963357fc439dd3704,,,,,,,,,,,,,,,,,,,,,,,l,1,0.3302,"[""0.121"",""0.220"",""0.560"",""0.387""]","[1,1,1,0]",0,11,11,11,1,1,0,,,0,FALSE,,,,,,,,,,,,,,,,,,,,,,,,,,,,,,
,,001,2022-04-28_18h15.23.111,classification_task,2021.2.3,MacIntel,60.0024001,61410523235baca0b15c9afd,626b377229c10585ec392f8a,626b3c0963357fc439dd3704,,,,,,,,,,,,,,,,,,,,,,,a,1,0.6683,"[""0.312"",""0.463"",""0.858"",""0.970""]","[0,1,1,1]",0,12,12,12,1,0,1,,,0,FALSE,,,,,,,,,,,,,,,,,,,,,,,,,,,,,,
,,001,2022-04-28_18h15.23.111,classification_task,2021.2.3,MacIntel,60.0024001,61410523235baca0b15c9afd,626b377229c10585ec392f8a,626b3c0963357fc439dd3704,,,,,,,,,,,,,,,,,,,,,,,a,0,0.4818,"[""0.121"",""0.354"",""0.560"",""0.804""]","[1,0,1,1]",0,13,13,13,1,1,0,,,0,FALSE,,,,,,,,,,,,,,,,,,,,,,,,,,,,,,
,,001,2022-04-28_18h15.23.111,classification_task,2021.2.3,MacIntel,60.0024001,61410523235baca0b15c9afd,626b377229c10585ec392f8a,626b3c0963357fc439dd3704,,,,,,,,,,,,,,,,,,,,,,,l,0,0.5483,"[""0.159"",""0.387"",""0.858"",""0.970""]","[1,0,1,1]",0,14,14,14,1,0,1,,,0,FALSE,,,,,,,,,,,,,,,,,,,,,,,,,,,,,,
,,001,2022-04-28_18h15.23.111,classification_task,2021.2.3,MacIntel,60.0024001,61410523235baca0b15c9afd,626b377229c10585ec392f8a,626b3c0963357fc439dd3704,,,,,,,,,,,,,,,,,,,,,,,l,1,0.4147,"[""0.297"",""0.220"",""0.560"",""0.804""]","[0,1,1,1]",0,15,15,15,1,1,0,,,0,FALSE,,,,,,,,,,,,,,,,,,,,,,,,,,,,,,
,,001,2022-04-28_18h15.23.111,classification_task,2021.2.3,MacIntel,60.0024001,61410523235baca0b15c9afd,626b377229c10585ec392f8a,626b3c0963357fc439dd3704,,,,,,,,,,,,,,,,,,,,,,,a,1,0.8658,"[""0.262"",""0.422"",""0.656"",""0.689""]","[1,1,1,0]",0,16,16,16,1,0,0,,,0,FALSE,,,,,,,,,,,,,,,,,,,,,,,,,,,,,,
,,001,2022-04-28_18h15.23.111,classification_task,2021.2.3,MacIntel,60.0024001,61410523235baca0b15c9afd,626b377229c10585ec392f8a,626b3c0963357fc439dd3704,,,,,,,,,,,,,,,,,,,,,,,l,0,0.3991,"[""0.262"",""0.689"",""0.656"",""0.927""]","[1,0,1,1]",0,17,17,17,1,0,0,,,0,FALSE,,,,,,,,,,,,,,,,,,,,,,,,,,,,,,
,,001,2022-04-28_18h15.23.111,classification_task,2021.2.3,MacIntel,60.0024001,61410523235baca0b15c9afd,626b377229c10585ec392f8a,626b3c0963357fc439dd3704,,,,,,,,,,,,,,,,,,,,,,,l,1,0.5472,"[""0.354"",""0.220"",""0.560"",""0.804""]","[0,1,1,1]",0,18,18,18,1,1,0,,,0,FALSE,,,,,,,,,,,,,,,,,,,,,,,,,,,,,,
,,001,2022-04-28_18h15.23.111,classification_task,2021.2.3,MacIntel,60.0024001,61410523235baca0b15c9afd,626b377229c10585ec392f8a,626b3c0963357fc439dd3704,,,,,,,,,,,,,,,,,,,,,,,a,1,0.4323,"[""0.350"",""0.422"",""0.656"",""0.927""]","[0,1,1,1]",0,19,19,19,1,0,0,,,0,FALSE,,,,,,,,,,,,,,,,,,,,,,,,,,,,,,
,,001,2022-04-28_18h15.23.111,classification_task,2021.2.3,MacIntel,60.0024001,61410523235baca0b15c9afd,626b377229c10585ec392f8a,626b3c0963357fc439dd3704,,,,,,,,,,,,,,,,,,,,,,,a,0,0.5637,"[""0.036"",""0.689"",""0.603"",""0.732""]","[1,0,1,1]",0,20,20,20,1,1,1,,,0,FALSE,,,,,,,,,,,,,,,,,,,,,,,,,,,,,,
,,001,2022-04-28_18h15.23.111,classification_task,2021.2.3,MacIntel,60.0024001,61410523235baca0b15c9afd,626b377229c10585ec392f8a,626b3c0963357fc439dd3704,,,,,,,,,,,,,,,,,,,,,,,a,0,0.5304,"[""0.036"",""0.073"",""0.603"",""0.514""]","[1,1,1,0]",0,21,21,21,1,1,1,,,0,FALSE,,,,,,,,,,,,,,,,,,,,,,,,,,,,,,
,,001,2022-04-28_18h15.23.111,classification_task,2021.2.3,MacIntel,60.0024001,61410523235baca0b15c9afd,626b377229c10585ec392f8a,626b3c0963357fc439dd3704,,,,,,,,,,,,,,,,,,,,,,,l,0,0.4484,"[""0.159"",""0.463"",""0.312"",""0.970""]","[1,1,0,1]",0,22,22,22,1,0,1,,,0,FALSE,,,,,,,,,,,,,,,,,,,,,,,,,,,,,,
,,001,2022-04-28_18h15.23.111,classification_task,2021.2.3,MacIntel,60.0024001,61410523235baca0b15c9afd,626b377229c10585ec392f8a,626b3c0963357fc439dd3704,,,,,,,,,,,,,,,,,,,,,,,a,0,0.7657,"[""0.036"",""0.073"",""0.308"",""0.732""]","[1,1,0,1]",0,23,23,23,1,1,1,,,0,FALSE,,,,,,,,,,,,,,,,,,,,,,,,,,,,,,
,,001,2022-04-28_18h15.23.111,classification_task,2021.2.3,MacIntel,60.0024001,61410523235baca0b15c9afd,626b377229c10585ec392f8a,626b3c0963357fc439dd3704,,,,,,,,,,,,,,,,,,,,,,,l,0,0.3538,"[""0.297"",""0.463"",""0.858"",""0.970""]","[0,1,1,1]",0,24,24,24,1,0,1,,,0,FALSE,,,,,,,,,,,,,,,,,,,,,,,,,,,,,,
,,001,2022-04-28_18h15.23.111,classification_task,2021.2.3,MacIntel,60.0024001,61410523235baca0b15c9afd,626b377229c10585ec392f8a,626b3c0963357fc439dd3704,,,,,,,,,,,,,,,,,,,,,,,l,0,0.4296,"[""0.159"",""0.308"",""0.858"",""0.970""]","[1,0,1,1]",0,25,25,25,1,0,1,,,0,FALSE,,,,,,,,,,,,,,,,,,,,,,,,,,,,,,
,,001,2022-04-28_18h15.23.111,classification_task,2021.2.3,MacIntel,60.0024001,61410523235baca0b15c9afd,626b377229c10585ec392f8a,626b3c0963357fc439dd3704,,,,,,,,,,,,,,,,,,,,,,,a,0,0.5639,"[""0.121"",""0.220"",""0.560"",""0.375""]","[1,1,1,0]",0,26,26,26,1,1,0,,,0,FALSE,,,,,,,,,,,,,,,,,,,,,,,,,,,,,,
,,001,2022-04-28_18h15.23.111,classification_task,2021.2.3,MacIntel,60.0024001,61410523235baca0b15c9afd,626b377229c10585ec392f8a,626b3c0963357fc439dd3704,,,,,,,,,,,,,,,,,,,,,,,a,0,0.4478,"[""0.121"",""0.507"",""0.560"",""0.804""]","[1,0,1,1]",0,27,27,27,1,1,0,,,0,FALSE,,,,,,,,,,,,,,,,,,,,,,,,,,,,,,
,,001,2022-04-28_18h15.23.111,classification_task,2021.2.3,MacIntel,60.0024001,61410523235baca0b15c9afd,626b377229c10585ec392f8a,626b3c0963357fc439dd3704,,,,,,,,,,,,,,,,,,,,,,,a,1,0.2646,"[""0.262"",""0.422"",""0.299"",""0.927""]","[1,1,0,1]",0,28,28,28,1,0,0,,,0,FALSE,,,,,,,,,,,,,,,,,,,,,,,,,,,,,,
,,001,2022-04-28_18h15.23.111,classification_task,2021.2.3,MacIntel,60.0024001,61410523235baca0b15c9afd,626b377229c10585ec392f8a,626b3c0963357fc439dd3704,,,,,,,,,,,,,,,,,,,,,,,l,1,0.3997,"[""0.121"",""0.220"",""0.353"",""0.804""]","[1,1,0,1]",0,29,29,29,1,1,0,,,0,FALSE,,,,,,,,,,,,,,,,,,,,,,,,,,,,,,
,,001,2022-04-28_18h15.23.111,classification_task,2021.2.3,MacIntel,60.0024001,61410523235baca0b15c9afd,626b377229c10585ec392f8a,626b3c0963357fc439dd3704,,,,,,,,,,,,,,,,,,,,,,,l,1,0.5994,"[""0.299"",""0.073"",""0.603"",""0.732""]","[0,1,1,1]",0,30,30,30,1,1,1,,,0,FALSE,,,,,,,,,,,,,,,,,,,,,,,,,,,,,,
,,001,2022-04-28_18h15.23.111,classification_task,2021.2.3,MacIntel,60.0024001,61410523235baca0b15c9afd,626b377229c10585ec392f8a,626b3c0963357fc439dd3704,,,,,,,,,,,,,,,,,,,,,,,a,1,0.2654,"[""0.159"",""0.463"",""0.858"",""0.299""]","[1,1,1,0]",0,31,31,31,1,0,1,,,0,FALSE,,,,,,,,,,,,,,,,,,,,,,,,,,,,,,
,,001,2022-04-28_18h15.23.111,classification_task,2021.2.3,MacIntel,60.0024001,61410523235baca0b15c9afd,626b377229c10585ec392f8a,626b3c0963357fc439dd3704,,,,,,,,,,,,,,,,,,,,,,,a,1,0.2815,"[""0.262"",""0.308"",""0.656"",""0.927""]","[1,0,1,1]",0,32,32,32,1,0,0,,,0,FALSE,,,,,,,,,,,,,,,,,,,,,,,,,,,,,,
,,001,2022-04-28_18h15.23.111,classification_task,2021.2.3,MacIntel,60.0024001,61410523235baca0b15c9afd,626b377229c10585ec392f8a,626b3c0963357fc439dd3704,,,,,,,,,,,,,,,,,,,,,,,a,1,0.3165,"[""0.514"",""0.422"",""0.656"",""0.927""]","[0,1,1,1]",0,33,33,33,1,0,0,,,0,FALSE,,,,,,,,,,,,,,,,,,,,,,,,,,,,,,
,,001,2022-04-28_18h15.23.111,classification_task,2021.2.3,MacIntel,60.0024001,61410523235baca0b15c9afd,626b377229c10585ec392f8a,626b3c0963357fc439dd3704,,,,,,,,,,,,,,,,,,,,,,,a,0,0.4655,"[""0.689"",""0.073"",""0.603"",""0.732""]","[0,1,1,1]",0,34,34,34,1,1,1,,,0,FALSE,,,,,,,,,,,,,,,,,,,,,,,,,,,,,,
,,001,2022-04-28_18h15.23.111,classification_task,2021.2.3,MacIntel,60.0024001,61410523235baca0b15c9afd,626b377229c10585ec392f8a,626b3c0963357fc439dd3704,,,,,,,,,,,,,,,,,,,,,,,l,1,0.3475,"[""0.036"",""0.073"",""0.603"",""0.507""]","[1,1,1,0]",0,35,35,35,1,1,1,,,0,FALSE,,,,,,,,,,,,,,,,,,,,,,,,,,,,,,
,,001,2022-04-28_18h15.23.111,classification_task,2021.2.3,MacIntel,60.0024001,61410523235baca0b15c9afd,626b377229c10585ec392f8a,626b3c0963357fc439dd3704,,,,,,,,,,,,,,,,,,,,,,,l,0,0.2481,"[""0.159"",""0.463"",""0.350"",""0.970""]","[1,1,0,1]",0,36,36,36,1,0,1,,,0,FALSE,,,,,,,,,,,,,,,,,,,,,,,,,,,,,,
,,001,2022-04-28_18h15.23.111,classification_task,2021.2.3,MacIntel,60.0024001,61410523235baca0b15c9afd,626b377229c10585ec392f8a,626b3c0963357fc439dd3704,,,,,,,,,,,,,,,,,,,,,,,l,1,0.267,"[""0.121"",""0.220"",""0.299"",""0.804""]","[1,1,0,1]",0,37,37,37,1,1,0,,,0,FALSE,,,,,,,,,,,,,,,,,,,,,,,,,,,,,,
,,001,2022-04-28_18h15.23.111,classification_task,2021.2.3,MacIntel,60.0024001,61410523235baca0b15c9afd,626b377229c10585ec392f8a,626b3c0963357fc439dd3704,,,,,,,,,,,,,,,,,,,,,,,l,0,0.2826,"[""0.262"",""0.422"",""0.514"",""0.927""]","[1,1,0,1]",0,38,38,38,1,0,0,,,0,FALSE,,,,,,,,,,,,,,,,,,,,,,,,,,,,,,
,,001,2022-04-28_18h15.23.111,classification_task,2021.2.3,MacIntel,60.0024001,61410523235baca0b15c9afd,626b377229c10585ec392f8a,626b3c0963357fc439dd3704,,,,,,,,,,,,,,,,,,,,,,,a,1,0.4517,"[""0.343"",""0.463"",""0.858"",""0.970""]","[0,1,1,1]",0,39,39,39,1,0,1,,,0,FALSE,,,,,,,,,,,,,,,,,,,,,,,,,,,,,,
,,001,2022-04-28_18h15.23.111,classification_task,2021.2.3,MacIntel,60.0024001,61410523235baca0b15c9afd,626b377229c10585ec392f8a,626b3c0963357fc439dd3704,,,,,,,,,,,,,,,,,,,,,,,l,1,0.2819,"[""0.121"",""0.383"",""0.560"",""0.804""]","[1,0,1,1]",0,40,40,40,1,1,0,,,0,FALSE,,,,,,,,,,,,,,,,,,,,,,,,,,,,,,
,,001,2022-04-28_18h15.23.111,classification_task,2021.2.3,MacIntel,60.0024001,61410523235baca0b15c9afd,626b377229c10585ec392f8a,626b3c0963357fc439dd3704,,,,,,,,,,,,,,,,,,,,,,,l,0,0.5308,"[""0.262"",""0.422"",""0.656"",""0.375""]","[1,1,1,0]",0,41,41,41,1,0,0,,,0,FALSE,,,,,,,,,,,,,,,,,,,,,,,,,,,,,,
,,001,2022-04-28_18h15.23.111,classification_task,2021.2.3,MacIntel,60.0024001,61410523235baca0b15c9afd,626b377229c10585ec392f8a,626b3c0963357fc439dd3704,,,,,,,,,,,,,,,,,,,,,,,l,1,0.4499,"[""0.036"",""0.073"",""0.354"",""0.732""]","[1,1,0,1]",0,42,42,42,1,1,1,,,0,FALSE,,,,,,,,,,,,,,,,,,,,,,,,,,,,,,
,,001,2022-04-28_18h15.23.111,classification_task,2021.2.3,MacIntel,60.0024001,61410523235baca0b15c9afd,626b377229c10585ec392f8a,626b3c0963357fc439dd3704,,,,,,,,,,,,,,,,,,,,,,,a,0,0.4473,"[""0.121"",""0.220"",""0.560"",""0.514""]","[1,1,1,0]",0,43,43,43,1,1,0,,,0,FALSE,,,,,,,,,,,,,,,,,,,,,,,,,,,,,,
,,001,2022-04-28_18h15.23.111,classification_task,2021.2.3,MacIntel,60.0024001,61410523235baca0b15c9afd,626b377229c10585ec392f8a,626b3c0963357fc439dd3704,,,,,,,,,,,,,,,,,,,,,,,a,0,0.2656,"[""0.036"",""0.383"",""0.603"",""0.732""]","[1,0,1,1]",0,44,44,44,1,1,1,,,0,FALSE,,,,,,,,,,,,,,,,,,,,,,,,,,,,,,
,,001,2022-04-28_18h15.23.111,classification_task,2021.2.3,MacIntel,60.0024001,61410523235baca0b15c9afd,626b377229c10585ec392f8a,626b3c0963357fc439dd3704,,,,,,,,,,,,,,,,,,,,,,,l,0,0.3146,"[""0.159"",""0.308"",""0.858"",""0.970""]","[1,0,1,1]",0,45,45,45,1,0,1,,,0,FALSE,,,,,,,,,,,,,,,,,,,,,,,,,,,,,,
,,001,2022-04-28_18h15.23.111,classification_task,2021.2.3,MacIntel,60.0024001,61410523235baca0b15c9afd,626b377229c10585ec392f8a,626b3c0963357fc439dd3704,,,,,,,,,,,,,,,,,,,,,,,l,0,0.3315,"[""0.159"",""0.463"",""0.858"",""0.375""]","[1,1,1,0]",0,46,46,46,1,0,1,,,0,FALSE,,,,,,,,,,,,,,,,,,,,,,,,,,,,,,
,,001,2022-04-28_18h15.23.111,classification_task,2021.2.3,MacIntel,60.0024001,61410523235baca0b15c9afd,626b377229c10585ec392f8a,626b3c0963357fc439dd3704,,,,,,,,,,,,,,,,,,,,,,,l,1,0.4647,"[""0.312"",""0.220"",""0.560"",""0.804""]","[0,1,1,1]",0,47,47,47,1,1,0,,,0,FALSE,,,,,,,,,,,,,,,,,,,,,,,,,,,,,,
,,001,2022-04-28_18h15.23.111,classification_task,2021.2.3,MacIntel,60.0024001,61410523235baca0b15c9afd,626b377229c10585ec392f8a,626b3c0963357fc439dd3704,,,,,,,,,,,,,,,,,,,,,,,l,1,0.3454,"[""0.121"",""0.387"",""0.560"",""0.804""]","[1,0,1,1]",0,48,48,48,1,1,0,,,0,FALSE,,,,,,,,,,,,,,,,,,,,,,,,,,,,,,
,,001,2022-04-28_18h15.23.111,classification_task,2021.2.3,MacIntel,60.0024001,61410523235baca0b15c9afd,626b377229c10585ec392f8a,626b3c0963357fc439dd3704,,,,,,,,,,,,,,,,,,,,,,,l,0,0.4823,"[""0.159"",""0.354"",""0.858"",""0.970""]","[1,0,1,1]",0,49,49,49,1,0,1,,,0,FALSE,,,,,,,,,,,,,,,,,,,,,,,,,,,,,,
,,001,2022-04-28_18h15.23.111,classification_task,2021.2.3,MacIntel,60.0024001,61410523235baca0b15c9afd,626b377229c10585ec392f8a,626b3c0963357fc439dd3704,,,,,,,,,,,,,,,,,,,,,,,a,0,0.5152,"[""0.036"",""0.073"",""0.343"",""0.732""]","[1,1,0,1]",0,50,50,50,1,1,1,,,0,FALSE,,,,,,,,,,,,,,,,,,,,,,,,,,,,,,
,,001,2022-04-28_18h15.23.111,classification_task,2021.2.3,MacIntel,60.0024001,61410523235baca0b15c9afd,626b377229c10585ec392f8a,626b3c0963357fc439dd3704,,,,,,,,,,,,,,,,,,,,,,,l,1,0.6545,"[""0.354"",""0.073"",""0.603"",""0.732""]","[0,1,1,1]",0,51,51,51,1,1,1,,,0,FALSE,,,,,,,,,,,,,,,,,,,,,,,,,,,,,,
,,001,2022-04-28_18h15.23.111,classification_task,2021.2.3,MacIntel,60.0024001,61410523235baca0b15c9afd,626b377229c10585ec392f8a,626b3c0963357fc439dd3704,,,,,,,,,,,,,,,,,,,,,,,a,1,0.8324,"[""0.262"",""0.422"",""0.354"",""0.927""]","[1,1,0,1]",0,52,52,52,1,0,0,,,0,FALSE,,,,,,,,,,,,,,,,,,,,,,,,,,,,,,
,,001,2022-04-28_18h15.23.111,classification_task,2021.2.3,MacIntel,60.0024001,61410523235baca0b15c9afd,626b377229c10585ec392f8a,626b3c0963357fc439dd3704,,,,,,,,,,,,,,,,,,,,,,,l,0,0.581,"[""0.689"",""0.463"",""0.858"",""0.970""]","[0,1,1,1]",0,53,53,53,1,0,1,,,0,FALSE,,,,,,,,,,,,,,,,,,,,,,,,,,,,,,
,,001,2022-04-28_18h15.23.111,classification_task,2021.2.3,MacIntel,60.0024001,61410523235baca0b15c9afd,626b377229c10585ec392f8a,626b3c0963357fc439dd3704,,,,,,,,,,,,,,,,,,,,,,,l,0,0.3848,"[""0.159"",""0.463"",""0.354"",""0.970""]","[1,1,0,1]",0,54,54,54,1,0,1,,,0,FALSE,,,,,,,,,,,,,,,,,,,,,,,,,,,,,,
,,001,2022-04-28_18h15.23.111,classification_task,2021.2.3,MacIntel,60.0024001,61410523235baca0b15c9afd,626b377229c10585ec392f8a,626b3c0963357fc439dd3704,,,,,,,,,,,,,,,,,,,,,,,l,0,0.4826,"[""0.299"",""0.422"",""0.656"",""0.927""]","[0,1,1,1]",0,55,55,55,1,0,0,,,0,FALSE,,,,,,,,,,,,,,,,,,,,,,,,,,,,,,
,,001,2022-04-28_18h15.23.111,classification_task,2021.2.3,MacIntel,60.0024001,61410523235baca0b15c9afd,626b377229c10585ec392f8a,626b3c0963357fc439dd3704,,,,,,,,,,,,,,,,,,,,,,,l,1,0.6664,"[""0.036"",""0.073"",""0.603"",""0.312""]","[1,1,1,0]",0,56,56,56,1,1,1,,,0,FALSE,,,,,,,,,,,,,,,,,,,,,,,,,,,,,,
,,001,2022-04-28_18h15.23.111,classification_task,2021.2.3,MacIntel,60.0024001,61410523235baca0b15c9afd,626b377229c10585ec392f8a,626b3c0963357fc439dd3704,,,,,,,,,,,,,,,,,,,,,,,l,1,0.5145,"[""0.036"",""0.698"",""0.603"",""0.732""]","[1,0,1,1]",0,57,57,57,1,1,1,,,0,FALSE,,,,,,,,,,,,,,,,,,,,,,,,,,,,,,
,,001,2022-04-28_18h15.23.111,classification_task,2021.2.3,MacIntel,60.0024001,61410523235baca0b15c9afd,626b377229c10585ec392f8a,626b3c0963357fc439dd3704,,,,,,,,,,,,,,,,,,,,,,,a,1,0.7316,"[""0.262"",""0.422"",""0.656"",""0.383""]","[1,1,1,0]",0,58,58,58,1,0,0,,,0,FALSE,,,,,,,,,,,,,,,,,,,,,,,,,,,,,,
,,001,2022-04-28_18h15.23.111,classification_task,2021.2.3,MacIntel,60.0024001,61410523235baca0b15c9afd,626b377229c10585ec392f8a,626b3c0963357fc439dd3704,,,,,,,,,,,,,,,,,,,,,,,l,0,0.7804,"[""0.159"",""0.463"",""0.858"",""0.312""]","[1,1,1,0]",0,59,59,59,1,0,1,,,0,FALSE,,,,,,,,,,,,,,,,,,,,,,,,,,,,,,
,,001,2022-04-28_18h15.23.111,classification_task,2021.2.3,MacIntel,60.0024001,61410523235baca0b15c9afd,626b377229c10585ec392f8a,626b3c0963357fc439dd3704,,,,,,,,,,,,,,,,,,,,,,,a,0,0.8322,"[""0.121"",""0.220"",""0.507"",""0.804""]","[1,1,0,1]",0,60,60,60,1,1,0,,,0,FALSE,,,,,,,,,,,,,,,,,,,,,,,,,,,,,,
,,001,2022-04-28_18h15.23.111,classification_task,2021.2.3,MacIntel,60.0024001,61410523235baca0b15c9afd,626b377229c10585ec392f8a,626b3c0963357fc439dd3704,,,,,,,,,,,,,,,,,,,,,,,a,0,0.4152,"[""0.121"",""0.220"",""0.560"",""0.308""]","[1,1,1,0]",0,61,61,61,1,1,0,,,0,FALSE,,,,,,,,,,,,,,,,,,,,,,,,,,,,,,
,,001,2022-04-28_18h15.23.111,classification_task,2021.2.3,MacIntel,60.0024001,61410523235baca0b15c9afd,626b377229c10585ec392f8a,626b3c0963357fc439dd3704,,,,,,,,,,,,,,,,,,,,,,,a,1,0.4155,"[""0.262"",""0.353"",""0.656"",""0.927""]","[1,0,1,1]",0,62,62,62,1,0,0,,,0,FALSE,,,,,,,,,,,,,,,,,,,,,,,,,,,,,,
,,001,2022-04-28_18h15.23.111,classification_task,2021.2.3,MacIntel,60.0024001,61410523235baca0b15c9afd,626b377229c10585ec392f8a,626b3c0963357fc439dd3704,,,,,,,,,,,,,,,,,,,,,,,l,1,0.6813,"[""0.698"",""0.220"",""0.560"",""0.804""]","[0,1,1,1]",0,63,63,63,1,1,0,,,0,FALSE,,,,,,,,,,,,,,,,,,,,,,,,,,,,,,
,,001,2022-04-28_18h15.23.111,classification_task,2021.2.3,MacIntel,60.0024001,61410523235baca0b15c9afd,626b377229c10585ec392f8a,626b3c0963357fc439dd3704,,,,,,,,,,,,,,,,,,,,,,,,,,,,,,,,,,,,,,,0, ,,0,4.793664572,114.2936,0,2,2,2,1,2,3,,,,,,,,,,,,,,,,,
,,001,2022-04-28_18h15.23.111,classification_task,2021.2.3,MacIntel,60.0024001,61410523235baca0b15c9afd,626b377229c10585ec392f8a,626b3c0963357fc439dd3704,,,,,,,,,,,,,,,,,,,,,,,,,,,,,,,,,,,,,,,1,  ,,0,10,116.0265,0,2,2,2,1,2,3,,,,,,,,,,,,,,,,,
,,001,2022-04-28_18h15.23.111,classification_task,2021.2.3,MacIntel,60.0024001,61410523235baca0b15c9afd,626b377229c10585ec392f8a,626b3c0963357fc439dd3704,,,,,,,,,,,,,,,,,,,,,,,,,,,,,,,,,,,,,,,2,  ,,0,10,117.1264,0,2,2,2,1,2,3,,,,,,,,,,,,,,,,,
,,001,2022-04-28_18h15.23.111,classification_task,2021.2.3,MacIntel,60.0024001,61410523235baca0b15c9afd,626b377229c10585ec392f8a,626b3c0963357fc439dd3704,,,,,,,,,,,,,,,,,,,,,,,,,,,,,,,,,,,,,,,,,,,,,0,2,2,2,1,,3,,,,,,,,,,,,,,,,,
,,001,2022-04-28_18h15.23.111,classification_task,2021.2.3,MacIntel,60.0024001,61410523235baca0b15c9afd,626b377229c10585ec392f8a,626b3c0963357fc439dd3704,,,,,,,,,,,,,,,,,,,,,,,,,,,,,,,,,,,,,,,,,,,,,,,,,,,,,I believe the aid is a competent performer,,0.7,0,5,684.7989,0,0,0,0,1,0,,,,
,,001,2022-04-28_18h15.23.111,classification_task,2021.2.3,MacIntel,60.0024001,61410523235baca0b15c9afd,626b377229c10585ec392f8a,626b3c0963357fc439dd3704,,,,,,,,,,,,,,,,,,,,,,,,,,,,,,,,,,,,,,,,,,,,,,,,,,,,,I trust the aid,,0.7,0,5,687.955,0,0,0,0,1,0,,,,
,,001,2022-04-28_18h15.23.111,classification_task,2021.2.3,MacIntel,60.0024001,61410523235baca0b15c9afd,626b377229c10585ec392f8a,626b3c0963357fc439dd3704,,,,,,,,,,,,,,,,,,,,,,,,,,,,,,,,,,,,,,,,,,,,,,,,,,,,,I have confidence in the advice given by the aid,,0.7,0,5,689.4701,0,0,0,0,1,0,,,,
,,001,2022-04-28_18h15.23.111,classification_task,2021.2.3,MacIntel,60.0024001,61410523235baca0b15c9afd,626b377229c10585ec392f8a,626b3c0963357fc439dd3704,,,,,,,,,,,,,,,,,,,,,,,,,,,,,,,,,,,,,,,,,,,,,,,,,,,,,I can depend on the aid,,0.7,0,5,692.1037,0,0,0,0,1,0,,,,
,,001,2022-04-28_18h15.23.111,classification_task,2021.2.3,MacIntel,60.0024001,61410523235baca0b15c9afd,626b377229c10585ec392f8a,626b3c0963357fc439dd3704,,,,,,,,,,,,,,,,,,,,,,,,,,,,,,,,,,,,,,,,,,,,,,,,,,,,,I can rely on the aid to behave in consistent ways,,0.7,0,5,693.1198,0,0,0,0,1,0,,,,
,,001,2022-04-28_18h15.23.111,classification_task,2021.2.3,MacIntel,60.0024001,61410523235baca0b15c9afd,626b377229c10585ec392f8a,626b3c0963357fc439dd3704,,,,,,,,,,,,,,,,,,,,,,,,,,,,,,,,,,,,,,,,,,,,,,,,,,,,,I can rely on the aid to do its best every time I take its advice,,0.7,0,5,694.9188,0,0,0,0,1,0,,,,
,,001,2022-04-28_18h15.23.111,classification_task,2021.2.3,MacIntel,60.0024001,61410523235baca0b15c9afd,626b377229c10585ec392f8a,626b3c0963357fc439dd3704,,,,,,,,,,,,,,,,,,,,,,,,,,,,,,,,,,,,,,,,,,,,,,,,,,,,,"On trials you completed with assistance from the aid, how frequently did you think the aid was correct?",,0.7,0,100,,0,0,0,0,1,0,,,,
,,001,2022-04-28_18h15.23.111,classification_task,2021.2.3,MacIntel,60.0024001,61410523235baca0b15c9afd,626b377229c10585ec392f8a,626b3c0963357fc439dd3704,,,,,,,,,,,,,,,,,,,,,,,,,,,,,,,,,,,,,,,,,,,,,,,,,,,,,"On trials you completed without the aid, how frequently did you think you were correct?",,0.7,0,20,,0,0,0,0,1,0,,,,
,,001,2022-04-28_18h15.23.111,classification_task,2021.2.3,MacIntel,60.0024001,61410523235baca0b15c9afd,626b377229c10585ec392f8a,626b3c0963357fc439dd3704,,,,,,,,,,,,,,,,,,,,,,,,,,,,,,,,,,,,,,,,,,,,,,,,,,,,,,,,,,,0,0,0,0,1,,,,,
,,001,2022-04-28_18h15.23.111,classification_task,2021.2.3,MacIntel,60.0024001,61410523235baca0b15c9afd,626b377229c10585ec392f8a,626b3c0963357fc439dd3704,,,,,,,,,,,,,,,,,,,,,,,,,,,,,,,,,,,,,,,,,,,,,,,,,,,,,,,,,,,,,,,,,space,12.4433,726.5867,
,,001,2022-04-28_18h15.23.111,classification_task,2021.2.3,MacIntel,60.0024001,61410523235baca0b15c9afd,626b377229c10585ec392f8a,626b3c0963357fc439dd3704,,,,,,,,,,,,,,,,,,,,,,,,,,,,,,,,,,,,,,,,,,,,,,,,,,,,,,,,,,,,,,,,,,,,"Mozilla/5.0 (Macintosh; Intel Mac OS X 10_15_7) AppleWebKit/537.36 (KHTML, like Gecko) Chrome/100.0.4896.127 Safari/537.36"
