usingWebGL,participant,session,date,expName,psychopyVersion,OS,frameRate,PROLIFIC_PID,STUDY_ID,SESSION_ID,signatures_friend,signatures_foe,band_ranges_top,band_ranges_bottom,formitemText,formtype,formundefined,formitemWidth,formindex,formresponse,formrt,key_resp_2.keys,key_resp_2.rt,tute_resp.keys,tute_resp.rt,tutorial.thisRepN,tutorial.thisTrialN,tutorial.thisN,tutorial.thisIndex,tutorial.ran,key_resp_4.keys,key_resp_4.rt,key_resp.keys,key_resp.corr,key_resp.rt,lines_presented,is_signal_presented,trials.thisRepN,trials.thisTrialN,trials.thisN,trials.thisIndex,trials.ran,vessel,active_band,lines,is_signal,supported_pos,catch_trial,debrief_formindex,debrief_formitemText,debrief_formtype,debrief_formitemWidth,debrief_formresponse,debrief_formrt,phases.thisRepN,phases.thisTrialN,phases.thisN,phases.thisIndex,phases.ran,phases.order,phase,key_resp_3.keys,trustitemText,trusttype,trustitemWidth,trustindex,trustresponse,trustrt,support_status.thisRepN,support_status.thisTrialN,support_status.thisN,support_status.thisIndex,support_status.ran,support_status.order,key_resp_5.keys,key_resp_5.rt,globalClockTime,userAgent
TRUE,,001,2022-04-29_03h11.22.677,classification_task,2021.2.3,Win32,60.09615385,5ef109c89196fa6d5cf6c005,626b377229c10585ec392f89,626b3a0d446f6727012e3d20,,,,,,,,,,,,,,,,,,,,,,,,,,,,,,,,,,,,,,,,,,,,,,,,,,,,,,,,,,,,,,,,,,,,
,,001,2022-04-29_03h11.22.677,classification_task,2021.2.3,Win32,60.09615385,5ef109c89196fa6d5cf6c005,626b377229c10585ec392f89,626b3a0d446f6727012e3d20,"[[""0.262"",""0.522"",""0.858"",""0.904""],[""0.197"",""0.375"",""0.941"",""0.975""]]","[[""0.034"",""0.427"",""0.562"",""0.762""],[""0.135"",""0.328"",""0.613"",""0.701""]]","[1,10]","[100,1000]",Video game experience,,,0.7,0,,,,,,,,,,,,,,,,,,,,,,,,,,,,,,,,,,,,,,,,,,,,,,,,,,,,,,,,,,,
,,001,2022-04-29_03h11.22.677,classification_task,2021.2.3,Win32,60.09615385,5ef109c89196fa6d5cf6c005,626b377229c10585ec392f89,626b3a0d446f6727012e3d20,,,,,Approximately how many hours did you spend playing video games in the last week?,,,0.7,0,6,,,,,,,,,,,,,,,,,,,,,,,,,,,,,,,,,,,,,,,,,,,,,,,,,,,,,,,,,,
,,001,2022-04-29_03h11.22.677,classification_task,2021.2.3,Win32,60.09615385,5ef109c89196fa6d5cf6c005,626b377229c10585ec392f89,626b3a0d446f6727012e3d20,,,,,"Which game did you play the most this year? (Enter ""None"" if you didn't play any)",,,0.7,0,Outer Wilds,,,,,,,,,,,,,,,,,,,,,,,,,,,,,,,,,,,,,,,,,,,,,,,,,,,,,,,,,,
,,001,2022-04-29_03h11.22.677,classification_task,2021.2.3,Win32,60.09615385,5ef109c89196fa6d5cf6c005,626b377229c10585ec392f89,626b3a0d446f6727012e3d20,,,,,Visual perception,,,0.7,0,,,,,,,,,,,,,,,,,,,,,,,,,,,,,,,,,,,,,,,,,,,,,,,,,,,,,,,,,,,
,,001,2022-04-29_03h11.22.677,classification_task,2021.2.3,Win32,60.09615385,5ef109c89196fa6d5cf6c005,626b377229c10585ec392f89,626b3a0d446f6727012e3d20,,,,,Do you have any form of color blindness?,,,0.7,0,No,60.281,,,,,,,,,,,,,,,,,,,,,,,,,,,,,,,,,,,,,,,,,,,,,,,,,,,,,,,,,
,,001,2022-04-29_03h11.22.677,classification_task,2021.2.3,Win32,60.09615385,5ef109c89196fa6d5cf6c005,626b377229c10585ec392f89,626b3a0d446f6727012e3d20,,,,,Do you use software to change the colour temperature of your screen (e.g. f.lux)?,,,0.7,0,No,61.109,,,,,,,,,,,,,,,,,,,,,,,,,,,,,,,,,,,,,,,,,,,,,,,,,,,,,,,,,
,,001,2022-04-29_03h11.22.677,classification_task,2021.2.3,Win32,60.09615385,5ef109c89196fa6d5cf6c005,626b377229c10585ec392f89,626b3a0d446f6727012e3d20,,,,,,,,,,,,space,28.137,space,8.075,0,0,0,0,1,,,,,,,,,,,,,,,,,,,,,,,,,,,,,,,,,,,,,,,,,,,,,,,,
,,001,2022-04-29_03h11.22.677,classification_task,2021.2.3,Win32,60.09615385,5ef109c89196fa6d5cf6c005,626b377229c10585ec392f89,626b3a0d446f6727012e3d20,,,,,,,,,,,,,,space,8.488,1,0,1,0,1,,,,,,,,,,,,,,,,,,,,,,,,,,,,,,,,,,,,,,,,,,,,,,,,
,,001,2022-04-29_03h11.22.677,classification_task,2021.2.3,Win32,60.09615385,5ef109c89196fa6d5cf6c005,626b377229c10585ec392f89,626b3a0d446f6727012e3d20,,,,,,,,,,,,,,space,27.048,2,0,2,0,1,,,,,,,,,,,,,,,,,,,,,,,,,,,,,,,,,,,,,,,,,,,,,,,,
,,001,2022-04-29_03h11.22.677,classification_task,2021.2.3,Win32,60.09615385,5ef109c89196fa6d5cf6c005,626b377229c10585ec392f89,626b3a0d446f6727012e3d20,,,,,,,,,,,,,,space,13.478,3,0,3,0,1,,,,,,,,,,,,,,,,,,,,,,,,,,,,,,,,,,,,,,,,,,,,,,,,
,,001,2022-04-29_03h11.22.677,classification_task,2021.2.3,Win32,60.09615385,5ef109c89196fa6d5cf6c005,626b377229c10585ec392f89,626b3a0d446f6727012e3d20,,,,,,,,,,,,,,space,10.795,4,0,4,0,1,,,,,,,,,,,,,,,,,,,,,,,,,,,,,,,,,,,,,,,,,,,,,,,,
,,001,2022-04-29_03h11.22.677,classification_task,2021.2.3,Win32,60.09615385,5ef109c89196fa6d5cf6c005,626b377229c10585ec392f89,626b3a0d446f6727012e3d20,,,,,,,,,,,,,,,,,,,,,space,12.904,a,1,4.131,"[""0.197"",""0.375"",""0.941"",""0.659""]","[1,1,1,0]",0,0,0,0,1,0,1,,,0,FALSE,,,,,,,,,,,,,,,,,,,,,,,,,,,,,,
,,001,2022-04-29_03h11.22.677,classification_task,2021.2.3,Win32,60.09615385,5ef109c89196fa6d5cf6c005,626b377229c10585ec392f89,626b3a0d446f6727012e3d20,,,,,,,,,,,,,,,,,,,,,,,l,0,5.099,"[""0.262"",""0.522"",""0.072"",""0.904""]","[1,1,0,1]",0,1,1,1,1,0,0,,,0,FALSE,,,,,,,,,,,,,,,,,,,,,,,,,,,,,,
,,001,2022-04-29_03h11.22.677,classification_task,2021.2.3,Win32,60.09615385,5ef109c89196fa6d5cf6c005,626b377229c10585ec392f89,626b3a0d446f6727012e3d20,,,,,,,,,,,,,,,,,,,,,,,a,1,5.963,"[""0.262"",""0.483"",""0.858"",""0.904""]","[1,0,1,1]",0,2,2,2,1,0,0,,,0,FALSE,,,,,,,,,,,,,,,,,,,,,,,,,,,,,,
,,001,2022-04-29_03h11.22.677,classification_task,2021.2.3,Win32,60.09615385,5ef109c89196fa6d5cf6c005,626b377229c10585ec392f89,626b3a0d446f6727012e3d20,,,,,,,,,,,,,,,,,,,,,,,l,1,5.571,"[""0.135"",""0.085"",""0.613"",""0.701""]","[1,0,1,1]",0,3,3,3,1,1,1,,,0,FALSE,,,,,,,,,,,,,,,,,,,,,,,,,,,,,,
,,001,2022-04-29_03h11.22.677,classification_task,2021.2.3,Win32,60.09615385,5ef109c89196fa6d5cf6c005,626b377229c10585ec392f89,626b3a0d446f6727012e3d20,,,,,,,,,,,,,,,,,,,,,,,l,1,3.267,"[""0.034"",""0.427"",""0.468"",""0.762""]","[1,1,0,1]",0,4,4,4,1,1,0,,,0,FALSE,,,,,,,,,,,,,,,,,,,,,,,,,,,,,,
,,001,2022-04-29_03h11.22.677,classification_task,2021.2.3,Win32,60.09615385,5ef109c89196fa6d5cf6c005,626b377229c10585ec392f89,626b3a0d446f6727012e3d20,,,,,,,,,,,,,,,,,,,,,,,l,1,2.098,"[""0.034"",""0.427"",""0.562"",""0.802""]","[1,1,1,0]",0,5,5,5,1,1,0,,,0,FALSE,,,,,,,,,,,,,,,,,,,,,,,,,,,,,,
,,001,2022-04-29_03h11.22.677,classification_task,2021.2.3,Win32,60.09615385,5ef109c89196fa6d5cf6c005,626b377229c10585ec392f89,626b3a0d446f6727012e3d20,,,,,,,,,,,,,,,,,,,,,,,l,1,6.2,"[""0.135"",""0.328"",""0.613"",""0.072""]","[1,1,1,0]",0,6,6,6,1,1,1,,,0,FALSE,,,,,,,,,,,,,,,,,,,,,,,,,,,,,,
,,001,2022-04-29_03h11.22.677,classification_task,2021.2.3,Win32,60.09615385,5ef109c89196fa6d5cf6c005,626b377229c10585ec392f89,626b3a0d446f6727012e3d20,,,,,,,,,,,,,,,,,,,,,,,a,1,7.187,"[""0.262"",""0.522"",""0.858"",""0.072""]","[1,1,1,0]",0,7,7,7,1,0,0,,,0,FALSE,,,,,,,,,,,,,,,,,,,,,,,,,,,,,,
,,001,2022-04-29_03h11.22.677,classification_task,2021.2.3,Win32,60.09615385,5ef109c89196fa6d5cf6c005,626b377229c10585ec392f89,626b3a0d446f6727012e3d20,,,,,,,,,,,,,,,,,,,,,,,l,1,7.443,"[""0.483"",""0.427"",""0.562"",""0.762""]","[0,1,1,1]",0,8,8,8,1,1,0,,,0,FALSE,,,,,,,,,,,,,,,,,,,,,,,,,,,,,,
,,001,2022-04-29_03h11.22.677,classification_task,2021.2.3,Win32,60.09615385,5ef109c89196fa6d5cf6c005,626b377229c10585ec392f89,626b3a0d446f6727012e3d20,,,,,,,,,,,,,,,,,,,,,,,l,1,4.005,"[""0.135"",""0.328"",""0.467"",""0.701""]","[1,1,0,1]",0,9,9,9,1,1,1,,,0,FALSE,,,,,,,,,,,,,,,,,,,,,,,,,,,,,,
,,001,2022-04-29_03h11.22.677,classification_task,2021.2.3,Win32,60.09615385,5ef109c89196fa6d5cf6c005,626b377229c10585ec392f89,626b3a0d446f6727012e3d20,,,,,,,,,,,,,,,,,,,,,,,l,1,5.047,"[""0.483"",""0.328"",""0.613"",""0.701""]","[0,1,1,1]",0,10,10,10,1,1,1,,,0,FALSE,,,,,,,,,,,,,,,,,,,,,,,,,,,,,,
,,001,2022-04-29_03h11.22.677,classification_task,2021.2.3,Win32,60.09615385,5ef109c89196fa6d5cf6c005,626b377229c10585ec392f89,626b3a0d446f6727012e3d20,,,,,,,,,,,,,,,,,,,,,,,a,1,3.6,"[""0.072"",""0.522"",""0.858"",""0.904""]","[0,1,1,1]",0,11,11,11,1,0,0,,,0,FALSE,,,,,,,,,,,,,,,,,,,,,,,,,,,,,,
,,001,2022-04-29_03h11.22.677,classification_task,2021.2.3,Win32,60.09615385,5ef109c89196fa6d5cf6c005,626b377229c10585ec392f89,626b3a0d446f6727012e3d20,,,,,,,,,,,,,,,,,,,,,,,a,1,3.54,"[""0.647"",""0.375"",""0.941"",""0.975""]","[0,1,1,1]",0,12,12,12,1,0,1,,,0,FALSE,,,,,,,,,,,,,,,,,,,,,,,,,,,,,,
,,001,2022-04-29_03h11.22.677,classification_task,2021.2.3,Win32,60.09615385,5ef109c89196fa6d5cf6c005,626b377229c10585ec392f89,626b3a0d446f6727012e3d20,,,,,,,,,,,,,,,,,,,,,,,l,1,4.951,"[""0.034"",""0.072"",""0.562"",""0.762""]","[1,0,1,1]",0,13,13,13,1,1,0,,,0,FALSE,,,,,,,,,,,,,,,,,,,,,,,,,,,,,,
,,001,2022-04-29_03h11.22.677,classification_task,2021.2.3,Win32,60.09615385,5ef109c89196fa6d5cf6c005,626b377229c10585ec392f89,626b3a0d446f6727012e3d20,,,,,,,,,,,,,,,,,,,,,,,a,1,3.553,"[""0.197"",""0.375"",""0.472"",""0.975""]","[1,1,0,1]",0,14,14,14,1,0,1,,,0,FALSE,,,,,,,,,,,,,,,,,,,,,,,,,,,,,,
,,001,2022-04-29_03h11.22.677,classification_task,2021.2.3,Win32,60.09615385,5ef109c89196fa6d5cf6c005,626b377229c10585ec392f89,626b3a0d446f6727012e3d20,,,,,,,,,,,,,,,,,,,,,,,a,1,3.049,"[""0.197"",""0.472"",""0.941"",""0.975""]","[1,0,1,1]",0,15,15,15,1,0,1,,,0,FALSE,,,,,,,,,,,,,,,,,,,,,,,,,,,,,,
,,001,2022-04-29_03h11.22.677,classification_task,2021.2.3,Win32,60.09615385,5ef109c89196fa6d5cf6c005,626b377229c10585ec392f89,626b3a0d446f6727012e3d20,,,,,,,,,,,,,,,,,,,,,,,a,1,2.573,"[""0.802"",""0.375"",""0.941"",""0.975""]","[0,1,1,1]",0,16,16,16,1,0,1,,,0,FALSE,,,,,,,,,,,,,,,,,,,,,,,,,,,,,,
,,001,2022-04-29_03h11.22.677,classification_task,2021.2.3,Win32,60.09615385,5ef109c89196fa6d5cf6c005,626b377229c10585ec392f89,626b3a0d446f6727012e3d20,,,,,,,,,,,,,,,,,,,,,,,l,1,5.395,"[""0.072"",""0.328"",""0.613"",""0.701""]","[0,1,1,1]",0,17,17,17,1,1,1,,,0,FALSE,,,,,,,,,,,,,,,,,,,,,,,,,,,,,,
,,001,2022-04-29_03h11.22.677,classification_task,2021.2.3,Win32,60.09615385,5ef109c89196fa6d5cf6c005,626b377229c10585ec392f89,626b3a0d446f6727012e3d20,,,,,,,,,,,,,,,,,,,,,,,l,1,7.016,"[""0.034"",""0.427"",""0.662"",""0.762""]","[1,1,0,1]",0,18,18,18,1,1,0,,,0,FALSE,,,,,,,,,,,,,,,,,,,,,,,,,,,,,,
,,001,2022-04-29_03h11.22.677,classification_task,2021.2.3,Win32,60.09615385,5ef109c89196fa6d5cf6c005,626b377229c10585ec392f89,626b3a0d446f6727012e3d20,,,,,,,,,,,,,,,,,,,,,,,a,1,6.267,"[""0.197"",""0.071"",""0.941"",""0.975""]","[1,0,1,1]",0,19,19,19,1,0,1,,,0,FALSE,,,,,,,,,,,,,,,,,,,,,,,,,,,,,,
,,001,2022-04-29_03h11.22.677,classification_task,2021.2.3,Win32,60.09615385,5ef109c89196fa6d5cf6c005,626b377229c10585ec392f89,626b3a0d446f6727012e3d20,,,,,,,,,,,,,,,,,,,,,,,l,0,2.673,"[""0.091"",""0.522"",""0.858"",""0.904""]","[0,1,1,1]",0,20,20,20,1,0,0,,,0,FALSE,,,,,,,,,,,,,,,,,,,,,,,,,,,,,,
,,001,2022-04-29_03h11.22.677,classification_task,2021.2.3,Win32,60.09615385,5ef109c89196fa6d5cf6c005,626b377229c10585ec392f89,626b3a0d446f6727012e3d20,,,,,,,,,,,,,,,,,,,,,,,l,1,4.447,"[""0.034"",""0.427"",""0.562"",""0.483""]","[1,1,1,0]",0,21,21,21,1,1,0,,,0,FALSE,,,,,,,,,,,,,,,,,,,,,,,,,,,,,,
,,001,2022-04-29_03h11.22.677,classification_task,2021.2.3,Win32,60.09615385,5ef109c89196fa6d5cf6c005,626b377229c10585ec392f89,626b3a0d446f6727012e3d20,,,,,,,,,,,,,,,,,,,,,,,l,1,6.049,"[""0.135"",""0.072"",""0.613"",""0.701""]","[1,0,1,1]",0,22,22,22,1,1,1,,,0,FALSE,,,,,,,,,,,,,,,,,,,,,,,,,,,,,,
,,001,2022-04-29_03h11.22.677,classification_task,2021.2.3,Win32,60.09615385,5ef109c89196fa6d5cf6c005,626b377229c10585ec392f89,626b3a0d446f6727012e3d20,,,,,,,,,,,,,,,,,,,,,,,a,1,6.649,"[""0.262"",""0.522"",""0.858"",""0.487""]","[1,1,1,0]",0,23,23,23,1,0,0,,,0,FALSE,,,,,,,,,,,,,,,,,,,,,,,,,,,,,,
,,001,2022-04-29_03h11.22.677,classification_task,2021.2.3,Win32,60.09615385,5ef109c89196fa6d5cf6c005,626b377229c10585ec392f89,626b3a0d446f6727012e3d20,,,,,,,,,,,,,,,,,,,,,,,a,1,3.885,"[""0.197"",""0.375"",""0.662"",""0.975""]","[1,1,0,1]",0,24,24,24,1,0,1,,,0,FALSE,,,,,,,,,,,,,,,,,,,,,,,,,,,,,,
,,001,2022-04-29_03h11.22.677,classification_task,2021.2.3,Win32,60.09615385,5ef109c89196fa6d5cf6c005,626b377229c10585ec392f89,626b3a0d446f6727012e3d20,,,,,,,,,,,,,,,,,,,,,,,l,1,3.585,"[""0.071"",""0.427"",""0.562"",""0.762""]","[0,1,1,1]",0,25,25,25,1,1,0,,,0,FALSE,,,,,,,,,,,,,,,,,,,,,,,,,,,,,,
,,001,2022-04-29_03h11.22.677,classification_task,2021.2.3,Win32,60.09615385,5ef109c89196fa6d5cf6c005,626b377229c10585ec392f89,626b3a0d446f6727012e3d20,,,,,,,,,,,,,,,,,,,,,,,l,1,6.019,"[""0.135"",""0.328"",""0.613"",""0.662""]","[1,1,1,0]",0,26,26,26,1,1,1,,,0,FALSE,,,,,,,,,,,,,,,,,,,,,,,,,,,,,,
,,001,2022-04-29_03h11.22.677,classification_task,2021.2.3,Win32,60.09615385,5ef109c89196fa6d5cf6c005,626b377229c10585ec392f89,626b3a0d446f6727012e3d20,,,,,,,,,,,,,,,,,,,,,,,l,1,7.007,"[""0.135"",""0.328"",""0.647"",""0.701""]","[1,1,0,1]",0,27,27,27,1,1,1,,,0,FALSE,,,,,,,,,,,,,,,,,,,,,,,,,,,,,,
,,001,2022-04-29_03h11.22.677,classification_task,2021.2.3,Win32,60.09615385,5ef109c89196fa6d5cf6c005,626b377229c10585ec392f89,626b3a0d446f6727012e3d20,,,,,,,,,,,,,,,,,,,,,,,a,1,8.359,"[""0.197"",""0.375"",""0.941"",""0.483""]","[1,1,1,0]",0,28,28,28,1,0,1,,,0,FALSE,,,,,,,,,,,,,,,,,,,,,,,,,,,,,,
,,001,2022-04-29_03h11.22.677,classification_task,2021.2.3,Win32,60.09615385,5ef109c89196fa6d5cf6c005,626b377229c10585ec392f89,626b3a0d446f6727012e3d20,,,,,,,,,,,,,,,,,,,,,,,a,1,3.379,"[""0.262"",""0.522"",""0.467"",""0.904""]","[1,1,0,1]",0,29,29,29,1,0,0,,,0,FALSE,,,,,,,,,,,,,,,,,,,,,,,,,,,,,,
,,001,2022-04-29_03h11.22.677,classification_task,2021.2.3,Win32,60.09615385,5ef109c89196fa6d5cf6c005,626b377229c10585ec392f89,626b3a0d446f6727012e3d20,,,,,,,,,,,,,,,,,,,,,,,a,1,2.547,"[""0.262"",""0.472"",""0.858"",""0.904""]","[1,0,1,1]",0,30,30,30,1,0,0,,,0,FALSE,,,,,,,,,,,,,,,,,,,,,,,,,,,,,,
,,001,2022-04-29_03h11.22.677,classification_task,2021.2.3,Win32,60.09615385,5ef109c89196fa6d5cf6c005,626b377229c10585ec392f89,626b3a0d446f6727012e3d20,,,,,,,,,,,,,,,,,,,,,,,l,1,4.947,"[""0.034"",""0.483"",""0.562"",""0.762""]","[1,0,1,1]",0,31,31,31,1,1,0,,,0,FALSE,,,,,,,,,,,,,,,,,,,,,,,,,,,,,,
,,001,2022-04-29_03h11.22.677,classification_task,2021.2.3,Win32,60.09615385,5ef109c89196fa6d5cf6c005,626b377229c10585ec392f89,626b3a0d446f6727012e3d20,,,,,,,,,,,,,,,,,,,,,,,l,1,5.5,"[""0.135"",""0.647"",""0.613"",""0.701""]","[1,0,1,1]",0,32,32,32,1,1,1,,,0,FALSE,,,,,,,,,,,,,,,,,,,,,,,,,,,,,,
,,001,2022-04-29_03h11.22.677,classification_task,2021.2.3,Win32,60.09615385,5ef109c89196fa6d5cf6c005,626b377229c10585ec392f89,626b3a0d446f6727012e3d20,,,,,,,,,,,,,,,,,,,,,,,l,0,4.01,"[""0.262"",""0.487"",""0.858"",""0.904""]","[1,0,1,1]",0,33,33,33,1,0,0,,,0,FALSE,,,,,,,,,,,,,,,,,,,,,,,,,,,,,,
,,001,2022-04-29_03h11.22.677,classification_task,2021.2.3,Win32,60.09615385,5ef109c89196fa6d5cf6c005,626b377229c10585ec392f89,626b3a0d446f6727012e3d20,,,,,,,,,,,,,,,,,,,,,,,a,1,3.132,"[""0.197"",""0.375"",""0.085"",""0.975""]","[1,1,0,1]",0,34,34,34,1,0,1,,,0,FALSE,,,,,,,,,,,,,,,,,,,,,,,,,,,,,,
,,001,2022-04-29_03h11.22.677,classification_task,2021.2.3,Win32,60.09615385,5ef109c89196fa6d5cf6c005,626b377229c10585ec392f89,626b3a0d446f6727012e3d20,,,,,,,,,,,,,,,,,,,,,,,a,0,5.745,"[""0.034"",""0.427"",""0.647"",""0.762""]","[1,1,0,1]",0,35,35,35,1,1,0,,,0,FALSE,,,,,,,,,,,,,,,,,,,,,,,,,,,,,,
,,001,2022-04-29_03h11.22.677,classification_task,2021.2.3,Win32,60.09615385,5ef109c89196fa6d5cf6c005,626b377229c10585ec392f89,626b3a0d446f6727012e3d20,,,,,,,,,,,,,,,,,,,,,,,a,0,2.797,"[""0.472"",""0.427"",""0.562"",""0.762""]","[0,1,1,1]",0,36,36,36,1,1,0,,,0,FALSE,,,,,,,,,,,,,,,,,,,,,,,,,,,,,,
,,001,2022-04-29_03h11.22.677,classification_task,2021.2.3,Win32,60.09615385,5ef109c89196fa6d5cf6c005,626b377229c10585ec392f89,626b3a0d446f6727012e3d20,,,,,,,,,,,,,,,,,,,,,,,l,1,2.082,"[""0.135"",""0.328"",""0.613"",""0.071""]","[1,1,1,0]",0,37,37,37,1,1,1,,,0,FALSE,,,,,,,,,,,,,,,,,,,,,,,,,,,,,,
,,001,2022-04-29_03h11.22.677,classification_task,2021.2.3,Win32,60.09615385,5ef109c89196fa6d5cf6c005,626b377229c10585ec392f89,626b3a0d446f6727012e3d20,,,,,,,,,,,,,,,,,,,,,,,l,1,4.096,"[""0.034"",""0.468"",""0.562"",""0.762""]","[1,0,1,1]",0,38,38,38,1,1,0,,,0,FALSE,,,,,,,,,,,,,,,,,,,,,,,,,,,,,,
,,001,2022-04-29_03h11.22.677,classification_task,2021.2.3,Win32,60.09615385,5ef109c89196fa6d5cf6c005,626b377229c10585ec392f89,626b3a0d446f6727012e3d20,,,,,,,,,,,,,,,,,,,,,,,l,1,3.464,"[""0.467"",""0.328"",""0.613"",""0.701""]","[0,1,1,1]",0,39,39,39,1,1,1,,,0,FALSE,,,,,,,,,,,,,,,,,,,,,,,,,,,,,,
,,001,2022-04-29_03h11.22.677,classification_task,2021.2.3,Win32,60.09615385,5ef109c89196fa6d5cf6c005,626b377229c10585ec392f89,626b3a0d446f6727012e3d20,,,,,,,,,,,,,,,,,,,,,,,a,0,1.5,"[""0.135"",""0.328"",""0.802"",""0.701""]","[1,1,0,1]",0,40,40,40,1,1,1,,,0,FALSE,,,,,,,,,,,,,,,,,,,,,,,,,,,,,,
,,001,2022-04-29_03h11.22.677,classification_task,2021.2.3,Win32,60.09615385,5ef109c89196fa6d5cf6c005,626b377229c10585ec392f89,626b3a0d446f6727012e3d20,,,,,,,,,,,,,,,,,,,,,,,a,1,1.498,"[""0.262"",""0.522"",""0.858"",""0.659""]","[1,1,1,0]",0,41,41,41,1,0,0,,,0,FALSE,,,,,,,,,,,,,,,,,,,,,,,,,,,,,,
,,001,2022-04-29_03h11.22.677,classification_task,2021.2.3,Win32,60.09615385,5ef109c89196fa6d5cf6c005,626b377229c10585ec392f89,626b3a0d446f6727012e3d20,,,,,,,,,,,,,,,,,,,,,,,l,0,7.355,"[""0.262"",""0.522"",""0.483"",""0.904""]","[1,1,0,1]",0,42,42,42,1,0,0,,,0,FALSE,,,,,,,,,,,,,,,,,,,,,,,,,,,,,,
,,001,2022-04-29_03h11.22.677,classification_task,2021.2.3,Win32,60.09615385,5ef109c89196fa6d5cf6c005,626b377229c10585ec392f89,626b3a0d446f6727012e3d20,,,,,,,,,,,,,,,,,,,,,,,a,1,0.73,"[""0.197"",""0.085"",""0.941"",""0.975""]","[1,0,1,1]",0,43,43,43,1,0,1,,,0,FALSE,,,,,,,,,,,,,,,,,,,,,,,,,,,,,,
,,001,2022-04-29_03h11.22.677,classification_task,2021.2.3,Win32,60.09615385,5ef109c89196fa6d5cf6c005,626b377229c10585ec392f89,626b3a0d446f6727012e3d20,,,,,,,,,,,,,,,,,,,,,,,a,1,0.454,"[""0.197"",""0.375"",""0.941"",""0.468""]","[1,1,1,0]",0,44,44,44,1,0,1,,,0,FALSE,,,,,,,,,,,,,,,,,,,,,,,,,,,,,,
,,001,2022-04-29_03h11.22.677,classification_task,2021.2.3,Win32,60.09615385,5ef109c89196fa6d5cf6c005,626b377229c10585ec392f89,626b3a0d446f6727012e3d20,,,,,,,,,,,,,,,,,,,,,,,l,0,2.597,"[""0.085"",""0.522"",""0.858"",""0.904""]","[0,1,1,1]",0,45,45,45,1,0,0,,,0,FALSE,,,,,,,,,,,,,,,,,,,,,,,,,,,,,,
,,001,2022-04-29_03h11.22.677,classification_task,2021.2.3,Win32,60.09615385,5ef109c89196fa6d5cf6c005,626b377229c10585ec392f89,626b3a0d446f6727012e3d20,,,,,,,,,,,,,,,,,,,,,,,a,0,0.635,"[""0.034"",""0.427"",""0.562"",""0.483""]","[1,1,1,0]",0,46,46,46,1,1,0,,,0,FALSE,,,,,,,,,,,,,,,,,,,,,,,,,,,,,,
,,001,2022-04-29_03h11.22.677,classification_task,2021.2.3,Win32,60.09615385,5ef109c89196fa6d5cf6c005,626b377229c10585ec392f89,626b3a0d446f6727012e3d20,,,,,,,,,,,,,,,,,,,,,,,a,1,0.333,"[""0.072"",""0.375"",""0.941"",""0.975""]","[0,1,1,1]",0,47,47,47,1,0,1,,,0,FALSE,,,,,,,,,,,,,,,,,,,,,,,,,,,,,,
,,001,2022-04-29_03h11.22.677,classification_task,2021.2.3,Win32,60.09615385,5ef109c89196fa6d5cf6c005,626b377229c10585ec392f89,626b3a0d446f6727012e3d20,,,,,,,,,,,,,,,,,,,,,,,l,1,5.21,"[""0.135"",""0.328"",""0.613"",""0.815""]","[1,1,1,0]",0,48,48,48,1,1,1,,,0,FALSE,,,,,,,,,,,,,,,,,,,,,,,,,,,,,,
,,001,2022-04-29_03h11.22.677,classification_task,2021.2.3,Win32,60.09615385,5ef109c89196fa6d5cf6c005,626b377229c10585ec392f89,626b3a0d446f6727012e3d20,,,,,,,,,,,,,,,,,,,,,,,a,0,4.864,"[""0.483"",""0.427"",""0.562"",""0.762""]","[0,1,1,1]",0,49,49,49,1,1,0,,,0,FALSE,,,,,,,,,,,,,,,,,,,,,,,,,,,,,,
,,001,2022-04-29_03h11.22.677,classification_task,2021.2.3,Win32,60.09615385,5ef109c89196fa6d5cf6c005,626b377229c10585ec392f89,626b3a0d446f6727012e3d20,,,,,,,,,,,,,,,,,,,,,,,a,0,0.648,"[""0.034"",""0.427"",""0.562"",""0.091""]","[1,1,1,0]",0,50,50,50,1,1,0,,,0,FALSE,,,,,,,,,,,,,,,,,,,,,,,,,,,,,,
,,001,2022-04-29_03h11.22.677,classification_task,2021.2.3,Win32,60.09615385,5ef109c89196fa6d5cf6c005,626b377229c10585ec392f89,626b3a0d446f6727012e3d20,,,,,,,,,,,,,,,,,,,,,,,a,1,0.625,"[""0.197"",""0.375"",""0.802"",""0.975""]","[1,1,0,1]",0,51,51,51,1,0,1,,,0,FALSE,,,,,,,,,,,,,,,,,,,,,,,,,,,,,,
,,001,2022-04-29_03h11.22.677,classification_task,2021.2.3,Win32,60.09615385,5ef109c89196fa6d5cf6c005,626b377229c10585ec392f89,626b3a0d446f6727012e3d20,,,,,,,,,,,,,,,,,,,,,,,l,1,2.83,"[""0.135"",""0.328"",""0.091"",""0.701""]","[1,1,0,1]",0,52,52,52,1,1,1,,,0,FALSE,,,,,,,,,,,,,,,,,,,,,,,,,,,,,,
,,001,2022-04-29_03h11.22.677,classification_task,2021.2.3,Win32,60.09615385,5ef109c89196fa6d5cf6c005,626b377229c10585ec392f89,626b3a0d446f6727012e3d20,,,,,,,,,,,,,,,,,,,,,,,a,1,1.347,"[""0.262"",""0.483"",""0.858"",""0.904""]","[1,0,1,1]",0,53,53,53,1,0,0,,,0,FALSE,,,,,,,,,,,,,,,,,,,,,,,,,,,,,,
,,001,2022-04-29_03h11.22.677,classification_task,2021.2.3,Win32,60.09615385,5ef109c89196fa6d5cf6c005,626b377229c10585ec392f89,626b3a0d446f6727012e3d20,,,,,,,,,,,,,,,,,,,,,,,l,0,1.415,"[""0.197"",""0.375"",""0.941"",""0.662""]","[1,1,1,0]",0,54,54,54,1,0,1,,,0,FALSE,,,,,,,,,,,,,,,,,,,,,,,,,,,,,,
,,001,2022-04-29_03h11.22.677,classification_task,2021.2.3,Win32,60.09615385,5ef109c89196fa6d5cf6c005,626b377229c10585ec392f89,626b3a0d446f6727012e3d20,,,,,,,,,,,,,,,,,,,,,,,a,0,0.879,"[""0.034"",""0.802"",""0.562"",""0.762""]","[1,0,1,1]",0,55,55,55,1,1,0,,,0,FALSE,,,,,,,,,,,,,,,,,,,,,,,,,,,,,,
,,001,2022-04-29_03h11.22.677,classification_task,2021.2.3,Win32,60.09615385,5ef109c89196fa6d5cf6c005,626b377229c10585ec392f89,626b3a0d446f6727012e3d20,,,,,,,,,,,,,,,,,,,,,,,a,0,1.065,"[""0.483"",""0.328"",""0.613"",""0.701""]","[0,1,1,1]",0,56,56,56,1,1,1,,,0,FALSE,,,,,,,,,,,,,,,,,,,,,,,,,,,,,,
,,001,2022-04-29_03h11.22.677,classification_task,2021.2.3,Win32,60.09615385,5ef109c89196fa6d5cf6c005,626b377229c10585ec392f89,626b3a0d446f6727012e3d20,,,,,,,,,,,,,,,,,,,,,,,a,0,1.315,"[""0.034"",""0.427"",""0.483"",""0.762""]","[1,1,0,1]",0,57,57,57,1,1,0,,,0,FALSE,,,,,,,,,,,,,,,,,,,,,,,,,,,,,,
,,001,2022-04-29_03h11.22.677,classification_task,2021.2.3,Win32,60.09615385,5ef109c89196fa6d5cf6c005,626b377229c10585ec392f89,626b3a0d446f6727012e3d20,,,,,,,,,,,,,,,,,,,,,,,a,1,1.165,"[""0.262"",""0.522"",""0.858"",""0.802""]","[1,1,1,0]",0,58,58,58,1,0,0,,,0,FALSE,,,,,,,,,,,,,,,,,,,,,,,,,,,,,,
,,001,2022-04-29_03h11.22.677,classification_task,2021.2.3,Win32,60.09615385,5ef109c89196fa6d5cf6c005,626b377229c10585ec392f89,626b3a0d446f6727012e3d20,,,,,,,,,,,,,,,,,,,,,,,l,0,5.262,"[""0.262"",""0.522"",""0.072"",""0.904""]","[1,1,0,1]",0,59,59,59,1,0,0,,,0,FALSE,,,,,,,,,,,,,,,,,,,,,,,,,,,,,,
,,001,2022-04-29_03h11.22.677,classification_task,2021.2.3,Win32,60.09615385,5ef109c89196fa6d5cf6c005,626b377229c10585ec392f89,626b3a0d446f6727012e3d20,,,,,,,,,,,,,,,,,,,,,,,a,1,1.865,"[""0.091"",""0.522"",""0.858"",""0.904""]","[0,1,1,1]",0,60,60,60,1,0,0,,,0,FALSE,,,,,,,,,,,,,,,,,,,,,,,,,,,,,,
,,001,2022-04-29_03h11.22.677,classification_task,2021.2.3,Win32,60.09615385,5ef109c89196fa6d5cf6c005,626b377229c10585ec392f89,626b3a0d446f6727012e3d20,,,,,,,,,,,,,,,,,,,,,,,l,0,2.496,"[""0.197"",""0.659"",""0.941"",""0.975""]","[1,0,1,1]",0,61,61,61,1,0,1,,,0,FALSE,,,,,,,,,,,,,,,,,,,,,,,,,,,,,,
,,001,2022-04-29_03h11.22.677,classification_task,2021.2.3,Win32,60.09615385,5ef109c89196fa6d5cf6c005,626b377229c10585ec392f89,626b3a0d446f6727012e3d20,,,,,,,,,,,,,,,,,,,,,,,a,1,1.413,"[""0.487"",""0.375"",""0.941"",""0.975""]","[0,1,1,1]",0,62,62,62,1,0,1,,,0,FALSE,,,,,,,,,,,,,,,,,,,,,,,,,,,,,,
,,001,2022-04-29_03h11.22.677,classification_task,2021.2.3,Win32,60.09615385,5ef109c89196fa6d5cf6c005,626b377229c10585ec392f89,626b3a0d446f6727012e3d20,,,,,,,,,,,,,,,,,,,,,,,a,0,1.549,"[""0.135"",""0.483"",""0.613"",""0.701""]","[1,0,1,1]",0,63,63,63,1,1,1,,,0,FALSE,,,,,,,,,,,,,,,,,,,,,,,,,,,,,,
,,001,2022-04-29_03h11.22.677,classification_task,2021.2.3,Win32,60.09615385,5ef109c89196fa6d5cf6c005,626b377229c10585ec392f89,626b3a0d446f6727012e3d20,,,,,,,,,,,,,,,,,,,,,,,,,,,,,,,,,,,,,,,0, ,,0,7.082108564,523.904,0,0,0,0,1,2,1,,,,,,,,,,,,,,,,,
,,001,2022-04-29_03h11.22.677,classification_task,2021.2.3,Win32,60.09615385,5ef109c89196fa6d5cf6c005,626b377229c10585ec392f89,626b3a0d446f6727012e3d20,,,,,,,,,,,,,,,,,,,,,,,,,,,,,,,,,,,,,,,1,  ,,0,9.715363512,504.736,0,0,0,0,1,2,1,,,,,,,,,,,,,,,,,
,,001,2022-04-29_03h11.22.677,classification_task,2021.2.3,Win32,60.09615385,5ef109c89196fa6d5cf6c005,626b377229c10585ec392f89,626b3a0d446f6727012e3d20,,,,,,,,,,,,,,,,,,,,,,,,,,,,,,,,,,,,,,,2,  ,,0,8.276259063,512.995,0,0,0,0,1,2,1,,,,,,,,,,,,,,,,,
,,001,2022-04-29_03h11.22.677,classification_task,2021.2.3,Win32,60.09615385,5ef109c89196fa6d5cf6c005,626b377229c10585ec392f89,626b3a0d446f6727012e3d20,,,,,,,,,,,,,,,,,,,,,,,,,,,,,,,,,,,,,,,,,,,,,0,0,0,0,1,,1,,,,,,,,,,,,,,,,,
,,001,2022-04-29_03h11.22.677,classification_task,2021.2.3,Win32,60.09615385,5ef109c89196fa6d5cf6c005,626b377229c10585ec392f89,626b3a0d446f6727012e3d20,,,,,,,,,,,,,,,,,,,,,space,8.129,a,0,6.819,"[""0.034"",""0.427"",""0.562"",""0.072""]","[1,1,1,0]",0,0,0,0,1,1,0,,,0,FALSE,,,,,,,,,,,,,,,,,,,,,,,,,,,,,,
,,001,2022-04-29_03h11.22.677,classification_task,2021.2.3,Win32,60.09615385,5ef109c89196fa6d5cf6c005,626b377229c10585ec392f89,626b3a0d446f6727012e3d20,,,,,,,,,,,,,,,,,,,,,,,l,0,3.781,"[""0.262"",""0.522"",""0.858"",""0.662""]","[1,1,1,0]",0,1,1,1,1,0,0,,,0,FALSE,,,,,,,,,,,,,,,,,,,,,,,,,,,,,,
,,001,2022-04-29_03h11.22.677,classification_task,2021.2.3,Win32,60.09615385,5ef109c89196fa6d5cf6c005,626b377229c10585ec392f89,626b3a0d446f6727012e3d20,,,,,,,,,,,,,,,,,,,,,,,a,0,2.181,"[""0.135"",""0.328"",""0.613"",""0.659""]","[1,1,1,0]",0,2,2,2,1,1,1,,,0,FALSE,,,,,,,,,,,,,,,,,,,,,,,,,,,,,,
,,001,2022-04-29_03h11.22.677,classification_task,2021.2.3,Win32,60.09615385,5ef109c89196fa6d5cf6c005,626b377229c10585ec392f89,626b3a0d446f6727012e3d20,,,,,,,,,,,,,,,,,,,,,,,a,1,0.249,"[""0.802"",""0.375"",""0.941"",""0.975""]","[0,1,1,1]",0,3,3,3,1,0,1,,,0,FALSE,,,,,,,,,,,,,,,,,,,,,,,,,,,,,,
,,001,2022-04-29_03h11.22.677,classification_task,2021.2.3,Win32,60.09615385,5ef109c89196fa6d5cf6c005,626b377229c10585ec392f89,626b3a0d446f6727012e3d20,,,,,,,,,,,,,,,,,,,,,,,l,0,7.725,"[""0.197"",""0.375"",""0.662"",""0.975""]","[1,1,0,1]",0,4,4,4,1,0,1,,,0,FALSE,,,,,,,,,,,,,,,,,,,,,,,,,,,,,,
,,001,2022-04-29_03h11.22.677,classification_task,2021.2.3,Win32,60.09615385,5ef109c89196fa6d5cf6c005,626b377229c10585ec392f89,626b3a0d446f6727012e3d20,,,,,,,,,,,,,,,,,,,,,,,l,0,0.349,"[""0.262"",""0.802"",""0.858"",""0.904""]","[1,0,1,1]",0,5,5,5,1,0,0,,,0,FALSE,,,,,,,,,,,,,,,,,,,,,,,,,,,,,,
,,001,2022-04-29_03h11.22.677,classification_task,2021.2.3,Win32,60.09615385,5ef109c89196fa6d5cf6c005,626b377229c10585ec392f89,626b3a0d446f6727012e3d20,,,,,,,,,,,,,,,,,,,,,,,l,1,0.265,"[""0.034"",""0.427"",""0.662"",""0.762""]","[1,1,0,1]",0,6,6,6,1,1,0,,,0,FALSE,,,,,,,,,,,,,,,,,,,,,,,,,,,,,,
,,001,2022-04-29_03h11.22.677,classification_task,2021.2.3,Win32,60.09615385,5ef109c89196fa6d5cf6c005,626b377229c10585ec392f89,626b3a0d446f6727012e3d20,,,,,,,,,,,,,,,,,,,,,,,l,0,1.44,"[""0.262"",""0.522"",""0.483"",""0.904""]","[1,1,0,1]",0,7,7,7,1,0,0,,,0,FALSE,,,,,,,,,,,,,,,,,,,,,,,,,,,,,,
,,001,2022-04-29_03h11.22.677,classification_task,2021.2.3,Win32,60.09615385,5ef109c89196fa6d5cf6c005,626b377229c10585ec392f89,626b3a0d446f6727012e3d20,,,,,,,,,,,,,,,,,,,,,,,l,1,0.303,"[""0.091"",""0.427"",""0.562"",""0.762""]","[0,1,1,1]",0,8,8,8,1,1,0,,,0,FALSE,,,,,,,,,,,,,,,,,,,,,,,,,,,,,,
,,001,2022-04-29_03h11.22.677,classification_task,2021.2.3,Win32,60.09615385,5ef109c89196fa6d5cf6c005,626b377229c10585ec392f89,626b3a0d446f6727012e3d20,,,,,,,,,,,,,,,,,,,,,,,a,1,0.632,"[""0.197"",""0.802"",""0.941"",""0.975""]","[1,0,1,1]",0,9,9,9,1,0,1,,,0,FALSE,,,,,,,,,,,,,,,,,,,,,,,,,,,,,,
,,001,2022-04-29_03h11.22.677,classification_task,2021.2.3,Win32,60.09615385,5ef109c89196fa6d5cf6c005,626b377229c10585ec392f89,626b3a0d446f6727012e3d20,,,,,,,,,,,,,,,,,,,,,,,a,0,3.613,"[""0.034"",""0.487"",""0.562"",""0.762""]","[1,0,1,1]",0,10,10,10,1,1,0,,,0,FALSE,,,,,,,,,,,,,,,,,,,,,,,,,,,,,,
,,001,2022-04-29_03h11.22.677,classification_task,2021.2.3,Win32,60.09615385,5ef109c89196fa6d5cf6c005,626b377229c10585ec392f89,626b3a0d446f6727012e3d20,,,,,,,,,,,,,,,,,,,,,,,a,0,0.299,"[""0.467"",""0.328"",""0.613"",""0.701""]","[0,1,1,1]",0,11,11,11,1,1,1,,,0,FALSE,,,,,,,,,,,,,,,,,,,,,,,,,,,,,,
,,001,2022-04-29_03h11.22.677,classification_task,2021.2.3,Win32,60.09615385,5ef109c89196fa6d5cf6c005,626b377229c10585ec392f89,626b3a0d446f6727012e3d20,,,,,,,,,,,,,,,,,,,,,,,a,1,0.316,"[""0.197"",""0.375"",""0.941"",""0.467""]","[1,1,1,0]",0,12,12,12,1,0,1,,,0,FALSE,,,,,,,,,,,,,,,,,,,,,,,,,,,,,,
,,001,2022-04-29_03h11.22.677,classification_task,2021.2.3,Win32,60.09615385,5ef109c89196fa6d5cf6c005,626b377229c10585ec392f89,626b3a0d446f6727012e3d20,,,,,,,,,,,,,,,,,,,,,,,l,1,0.548,"[""0.135"",""0.328"",""0.802"",""0.701""]","[1,1,0,1]",0,13,13,13,1,1,1,,,0,FALSE,,,,,,,,,,,,,,,,,,,,,,,,,,,,,,
,,001,2022-04-29_03h11.22.677,classification_task,2021.2.3,Win32,60.09615385,5ef109c89196fa6d5cf6c005,626b377229c10585ec392f89,626b3a0d446f6727012e3d20,,,,,,,,,,,,,,,,,,,,,,,l,0,0.433,"[""0.091"",""0.522"",""0.858"",""0.904""]","[0,1,1,1]",0,14,14,14,1,0,0,,,0,FALSE,,,,,,,,,,,,,,,,,,,,,,,,,,,,,,
,,001,2022-04-29_03h11.22.677,classification_task,2021.2.3,Win32,60.09615385,5ef109c89196fa6d5cf6c005,626b377229c10585ec392f89,626b3a0d446f6727012e3d20,,,,,,,,,,,,,,,,,,,,,,,l,1,0.299,"[""0.135"",""0.487"",""0.613"",""0.701""]","[1,0,1,1]",0,15,15,15,1,1,1,,,0,FALSE,,,,,,,,,,,,,,,,,,,,,,,,,,,,,,
,,001,2022-04-29_03h11.22.677,classification_task,2021.2.3,Win32,60.09615385,5ef109c89196fa6d5cf6c005,626b377229c10585ec392f89,626b3a0d446f6727012e3d20,,,,,,,,,,,,,,,,,,,,,,,a,1,0.332,"[""0.262"",""0.522"",""0.802"",""0.904""]","[1,1,0,1]",0,16,16,16,1,0,0,,,0,FALSE,,,,,,,,,,,,,,,,,,,,,,,,,,,,,,
,,001,2022-04-29_03h11.22.677,classification_task,2021.2.3,Win32,60.09615385,5ef109c89196fa6d5cf6c005,626b377229c10585ec392f89,626b3a0d446f6727012e3d20,,,,,,,,,,,,,,,,,,,,,,,a,0,0.265,"[""0.135"",""0.328"",""0.613"",""0.802""]","[1,1,1,0]",0,17,17,17,1,1,1,,,0,FALSE,,,,,,,,,,,,,,,,,,,,,,,,,,,,,,
,,001,2022-04-29_03h11.22.677,classification_task,2021.2.3,Win32,60.09615385,5ef109c89196fa6d5cf6c005,626b377229c10585ec392f89,626b3a0d446f6727012e3d20,,,,,,,,,,,,,,,,,,,,,,,l,0,0.401,"[""0.262"",""0.662"",""0.858"",""0.904""]","[1,0,1,1]",0,18,18,18,1,0,0,,,0,FALSE,,,,,,,,,,,,,,,,,,,,,,,,,,,,,,
,,001,2022-04-29_03h11.22.677,classification_task,2021.2.3,Win32,60.09615385,5ef109c89196fa6d5cf6c005,626b377229c10585ec392f89,626b3a0d446f6727012e3d20,,,,,,,,,,,,,,,,,,,,,,,a,0,1.716,"[""0.034"",""0.427"",""0.085"",""0.762""]","[1,1,0,1]",0,19,19,19,1,1,0,,,0,FALSE,,,,,,,,,,,,,,,,,,,,,,,,,,,,,,
,,001,2022-04-29_03h11.22.677,classification_task,2021.2.3,Win32,60.09615385,5ef109c89196fa6d5cf6c005,626b377229c10585ec392f89,626b3a0d446f6727012e3d20,,,,,,,,,,,,,,,,,,,,,,,l,0,6.527,"[""0.262"",""0.522"",""0.858"",""0.472""]","[1,1,1,0]",0,20,20,20,1,0,0,,,0,FALSE,,,,,,,,,,,,,,,,,,,,,,,,,,,,,,
,,001,2022-04-29_03h11.22.677,classification_task,2021.2.3,Win32,60.09615385,5ef109c89196fa6d5cf6c005,626b377229c10585ec392f89,626b3a0d446f6727012e3d20,,,,,,,,,,,,,,,,,,,,,,,l,0,0.282,"[""0.085"",""0.375"",""0.941"",""0.975""]","[0,1,1,1]",0,21,21,21,1,0,1,,,0,FALSE,,,,,,,,,,,,,,,,,,,,,,,,,,,,,,
,,001,2022-04-29_03h11.22.677,classification_task,2021.2.3,Win32,60.09615385,5ef109c89196fa6d5cf6c005,626b377229c10585ec392f89,626b3a0d446f6727012e3d20,,,,,,,,,,,,,,,,,,,,,,,a,0,1.18,"[""0.034"",""0.427"",""0.562"",""0.659""]","[1,1,1,0]",0,22,22,22,1,1,0,,,0,FALSE,,,,,,,,,,,,,,,,,,,,,,,,,,,,,,
,,001,2022-04-29_03h11.22.677,classification_task,2021.2.3,Win32,60.09615385,5ef109c89196fa6d5cf6c005,626b377229c10585ec392f89,626b3a0d446f6727012e3d20,,,,,,,,,,,,,,,,,,,,,,,a,0,0.267,"[""0.135"",""0.328"",""0.085"",""0.701""]","[1,1,0,1]",0,23,23,23,1,1,1,,,0,FALSE,,,,,,,,,,,,,,,,,,,,,,,,,,,,,,
,,001,2022-04-29_03h11.22.677,classification_task,2021.2.3,Win32,60.09615385,5ef109c89196fa6d5cf6c005,626b377229c10585ec392f89,626b3a0d446f6727012e3d20,,,,,,,,,,,,,,,,,,,,,,,a,0,0.15,"[""0.487"",""0.427"",""0.562"",""0.762""]","[0,1,1,1]",0,24,24,24,1,1,0,,,0,FALSE,,,,,,,,,,,,,,,,,,,,,,,,,,,,,,
,,001,2022-04-29_03h11.22.677,classification_task,2021.2.3,Win32,60.09615385,5ef109c89196fa6d5cf6c005,626b377229c10585ec392f89,626b3a0d446f6727012e3d20,,,,,,,,,,,,,,,,,,,,,,,a,1,0.168,"[""0.472"",""0.522"",""0.858"",""0.904""]","[0,1,1,1]",0,25,25,25,1,0,0,,,0,FALSE,,,,,,,,,,,,,,,,,,,,,,,,,,,,,,
,,001,2022-04-29_03h11.22.677,classification_task,2021.2.3,Win32,60.09615385,5ef109c89196fa6d5cf6c005,626b377229c10585ec392f89,626b3a0d446f6727012e3d20,,,,,,,,,,,,,,,,,,,,,,,a,0,3.464,"[""0.802"",""0.328"",""0.613"",""0.701""]","[0,1,1,1]",0,26,26,26,1,1,1,,,0,FALSE,,,,,,,,,,,,,,,,,,,,,,,,,,,,,,
,,001,2022-04-29_03h11.22.677,classification_task,2021.2.3,Win32,60.09615385,5ef109c89196fa6d5cf6c005,626b377229c10585ec392f89,626b3a0d446f6727012e3d20,,,,,,,,,,,,,,,,,,,,,,,l,0,0.314,"[""0.197"",""0.085"",""0.941"",""0.975""]","[1,0,1,1]",0,27,27,27,1,0,1,,,0,FALSE,,,,,,,,,,,,,,,,,,,,,,,,,,,,,,
,,001,2022-04-29_03h11.22.677,classification_task,2021.2.3,Win32,60.09615385,5ef109c89196fa6d5cf6c005,626b377229c10585ec392f89,626b3a0d446f6727012e3d20,,,,,,,,,,,,,,,,,,,,,,,a,0,0.38,"[""0.034"",""0.483"",""0.562"",""0.762""]","[1,0,1,1]",0,28,28,28,1,1,0,,,0,FALSE,,,,,,,,,,,,,,,,,,,,,,,,,,,,,,
,,001,2022-04-29_03h11.22.677,classification_task,2021.2.3,Win32,60.09615385,5ef109c89196fa6d5cf6c005,626b377229c10585ec392f89,626b3a0d446f6727012e3d20,,,,,,,,,,,,,,,,,,,,,,,a,1,0.265,"[""0.197"",""0.375"",""0.941"",""0.091""]","[1,1,1,0]",0,29,29,29,1,0,1,,,0,FALSE,,,,,,,,,,,,,,,,,,,,,,,,,,,,,,
,,001,2022-04-29_03h11.22.677,classification_task,2021.2.3,Win32,60.09615385,5ef109c89196fa6d5cf6c005,626b377229c10585ec392f89,626b3a0d446f6727012e3d20,,,,,,,,,,,,,,,,,,,,,,,a,1,0.3,"[""0.197"",""0.375"",""0.487"",""0.975""]","[1,1,0,1]",0,30,30,30,1,0,1,,,0,FALSE,,,,,,,,,,,,,,,,,,,,,,,,,,,,,,
,,001,2022-04-29_03h11.22.677,classification_task,2021.2.3,Win32,60.09615385,5ef109c89196fa6d5cf6c005,626b377229c10585ec392f89,626b3a0d446f6727012e3d20,,,,,,,,,,,,,,,,,,,,,,,l,1,0.034,"[""0.135"",""0.815"",""0.613"",""0.701""]","[1,0,1,1]",0,31,31,31,1,1,1,,,0,FALSE,,,,,,,,,,,,,,,,,,,,,,,,,,,,,,
,,001,2022-04-29_03h11.22.677,classification_task,2021.2.3,Win32,60.09615385,5ef109c89196fa6d5cf6c005,626b377229c10585ec392f89,626b3a0d446f6727012e3d20,,,,,,,,,,,,,,,,,,,,,,,l,0,0.134,"[""0.483"",""0.375"",""0.941"",""0.975""]","[0,1,1,1]",0,32,32,32,1,0,1,,,0,FALSE,,,,,,,,,,,,,,,,,,,,,,,,,,,,,,
,,001,2022-04-29_03h11.22.677,classification_task,2021.2.3,Win32,60.09615385,5ef109c89196fa6d5cf6c005,626b377229c10585ec392f89,626b3a0d446f6727012e3d20,,,,,,,,,,,,,,,,,,,,,,,a,0,0.366,"[""0.483"",""0.427"",""0.562"",""0.762""]","[0,1,1,1]",0,33,33,33,1,1,0,,,0,FALSE,,,,,,,,,,,,,,,,,,,,,,,,,,,,,,
,,001,2022-04-29_03h11.22.677,classification_task,2021.2.3,Win32,60.09615385,5ef109c89196fa6d5cf6c005,626b377229c10585ec392f89,626b3a0d446f6727012e3d20,,,,,,,,,,,,,,,,,,,,,,,a,1,0.217,"[""0.262"",""0.522"",""0.858"",""0.085""]","[1,1,1,0]",0,34,34,34,1,0,0,,,0,FALSE,,,,,,,,,,,,,,,,,,,,,,,,,,,,,,
,,001,2022-04-29_03h11.22.677,classification_task,2021.2.3,Win32,60.09615385,5ef109c89196fa6d5cf6c005,626b377229c10585ec392f89,626b3a0d446f6727012e3d20,,,,,,,,,,,,,,,,,,,,,,,l,0,0.316,"[""0.197"",""0.815"",""0.941"",""0.975""]","[1,0,1,1]",0,35,35,35,1,0,1,,,0,FALSE,,,,,,,,,,,,,,,,,,,,,,,,,,,,,,
,,001,2022-04-29_03h11.22.677,classification_task,2021.2.3,Win32,60.09615385,5ef109c89196fa6d5cf6c005,626b377229c10585ec392f89,626b3a0d446f6727012e3d20,,,,,,,,,,,,,,,,,,,,,,,a,0,0.535,"[""0.034"",""0.427"",""0.562"",""0.467""]","[1,1,1,0]",0,36,36,36,1,1,0,,,0,FALSE,,,,,,,,,,,,,,,,,,,,,,,,,,,,,,
,,001,2022-04-29_03h11.22.677,classification_task,2021.2.3,Win32,60.09615385,5ef109c89196fa6d5cf6c005,626b377229c10585ec392f89,626b3a0d446f6727012e3d20,,,,,,,,,,,,,,,,,,,,,,,a,1,0.032,"[""0.197"",""0.375"",""0.941"",""0.091""]","[1,1,1,0]",0,37,37,37,1,0,1,,,0,FALSE,,,,,,,,,,,,,,,,,,,,,,,,,,,,,,
,,001,2022-04-29_03h11.22.677,classification_task,2021.2.3,Win32,60.09615385,5ef109c89196fa6d5cf6c005,626b377229c10585ec392f89,626b3a0d446f6727012e3d20,,,,,,,,,,,,,,,,,,,,,,,l,1,5.831,"[""0.034"",""0.427"",""0.802"",""0.762""]","[1,1,0,1]",0,38,38,38,1,1,0,,,0,FALSE,,,,,,,,,,,,,,,,,,,,,,,,,,,,,,
,,001,2022-04-29_03h11.22.677,classification_task,2021.2.3,Win32,60.09615385,5ef109c89196fa6d5cf6c005,626b377229c10585ec392f89,626b3a0d446f6727012e3d20,,,,,,,,,,,,,,,,,,,,,,,a,0,2.882,"[""0.135"",""0.328"",""0.613"",""0.483""]","[1,1,1,0]",0,39,39,39,1,1,1,,,0,FALSE,,,,,,,,,,,,,,,,,,,,,,,,,,,,,,
,,001,2022-04-29_03h11.22.677,classification_task,2021.2.3,Win32,60.09615385,5ef109c89196fa6d5cf6c005,626b377229c10585ec392f89,626b3a0d446f6727012e3d20,,,,,,,,,,,,,,,,,,,,,,,a,1,0.483,"[""0.197"",""0.375"",""0.483"",""0.975""]","[1,1,0,1]",0,40,40,40,1,0,1,,,0,FALSE,,,,,,,,,,,,,,,,,,,,,,,,,,,,,,
,,001,2022-04-29_03h11.22.677,classification_task,2021.2.3,Win32,60.09615385,5ef109c89196fa6d5cf6c005,626b377229c10585ec392f89,626b3a0d446f6727012e3d20,,,,,,,,,,,,,,,,,,,,,,,l,1,0.483,"[""0.659"",""0.328"",""0.613"",""0.701""]","[0,1,1,1]",0,41,41,41,1,1,1,,,0,FALSE,,,,,,,,,,,,,,,,,,,,,,,,,,,,,,
,,001,2022-04-29_03h11.22.677,classification_task,2021.2.3,Win32,60.09615385,5ef109c89196fa6d5cf6c005,626b377229c10585ec392f89,626b3a0d446f6727012e3d20,,,,,,,,,,,,,,,,,,,,,,,l,1,0.423,"[""0.135"",""0.328"",""0.467"",""0.701""]","[1,1,0,1]",0,42,42,42,1,1,1,,,0,FALSE,,,,,,,,,,,,,,,,,,,,,,,,,,,,,,
,,001,2022-04-29_03h11.22.677,classification_task,2021.2.3,Win32,60.09615385,5ef109c89196fa6d5cf6c005,626b377229c10585ec392f89,626b3a0d446f6727012e3d20,,,,,,,,,,,,,,,,,,,,,,,l,1,0.406,"[""0.034"",""0.085"",""0.562"",""0.762""]","[1,0,1,1]",0,43,43,43,1,1,0,,,0,FALSE,,,,,,,,,,,,,,,,,,,,,,,,,,,,,,
,,001,2022-04-29_03h11.22.677,classification_task,2021.2.3,Win32,60.09615385,5ef109c89196fa6d5cf6c005,626b377229c10585ec392f89,626b3a0d446f6727012e3d20,,,,,,,,,,,,,,,,,,,,,,,l,0,0.517,"[""0.262"",""0.522"",""0.662"",""0.904""]","[1,1,0,1]",0,44,44,44,1,0,0,,,0,FALSE,,,,,,,,,,,,,,,,,,,,,,,,,,,,,,
,,001,2022-04-29_03h11.22.677,classification_task,2021.2.3,Win32,60.09615385,5ef109c89196fa6d5cf6c005,626b377229c10585ec392f89,626b3a0d446f6727012e3d20,,,,,,,,,,,,,,,,,,,,,,,a,1,0.317,"[""0.262"",""0.659"",""0.858"",""0.904""]","[1,0,1,1]",0,45,45,45,1,0,0,,,0,FALSE,,,,,,,,,,,,,,,,,,,,,,,,,,,,,,
,,001,2022-04-29_03h11.22.677,classification_task,2021.2.3,Win32,60.09615385,5ef109c89196fa6d5cf6c005,626b377229c10585ec392f89,626b3a0d446f6727012e3d20,,,,,,,,,,,,,,,,,,,,,,,l,0,0.617,"[""0.483"",""0.522"",""0.858"",""0.904""]","[0,1,1,1]",0,46,46,46,1,0,0,,,0,FALSE,,,,,,,,,,,,,,,,,,,,,,,,,,,,,,
,,001,2022-04-29_03h11.22.677,classification_task,2021.2.3,Win32,60.09615385,5ef109c89196fa6d5cf6c005,626b377229c10585ec392f89,626b3a0d446f6727012e3d20,,,,,,,,,,,,,,,,,,,,,,,l,1,0.3,"[""0.135"",""0.659"",""0.613"",""0.701""]","[1,0,1,1]",0,47,47,47,1,1,1,,,0,FALSE,,,,,,,,,,,,,,,,,,,,,,,,,,,,,,
,,001,2022-04-29_03h11.22.677,classification_task,2021.2.3,Win32,60.09615385,5ef109c89196fa6d5cf6c005,626b377229c10585ec392f89,626b3a0d446f6727012e3d20,,,,,,,,,,,,,,,,,,,,,,,l,0,0.283,"[""0.197"",""0.375"",""0.941"",""0.483""]","[1,1,1,0]",0,48,48,48,1,0,1,,,0,FALSE,,,,,,,,,,,,,,,,,,,,,,,,,,,,,,
,,001,2022-04-29_03h11.22.677,classification_task,2021.2.3,Win32,60.09615385,5ef109c89196fa6d5cf6c005,626b377229c10585ec392f89,626b3a0d446f6727012e3d20,,,,,,,,,,,,,,,,,,,,,,,l,1,0.315,"[""0.034"",""0.659"",""0.562"",""0.762""]","[1,0,1,1]",0,49,49,49,1,1,0,,,0,FALSE,,,,,,,,,,,,,,,,,,,,,,,,,,,,,,
,,001,2022-04-29_03h11.22.677,classification_task,2021.2.3,Win32,60.09615385,5ef109c89196fa6d5cf6c005,626b377229c10585ec392f89,626b3a0d446f6727012e3d20,,,,,,,,,,,,,,,,,,,,,,,a,1,0.783,"[""0.468"",""0.375"",""0.941"",""0.975""]","[0,1,1,1]",0,50,50,50,1,0,1,,,0,FALSE,,,,,,,,,,,,,,,,,,,,,,,,,,,,,,
,,001,2022-04-29_03h11.22.677,classification_task,2021.2.3,Win32,60.09615385,5ef109c89196fa6d5cf6c005,626b377229c10585ec392f89,626b3a0d446f6727012e3d20,,,,,,,,,,,,,,,,,,,,,,,a,0,0.503,"[""0.034"",""0.427"",""0.562"",""0.091""]","[1,1,1,0]",0,51,51,51,1,1,0,,,0,FALSE,,,,,,,,,,,,,,,,,,,,,,,,,,,,,,
,,001,2022-04-29_03h11.22.677,classification_task,2021.2.3,Win32,60.09615385,5ef109c89196fa6d5cf6c005,626b377229c10585ec392f89,626b3a0d446f6727012e3d20,,,,,,,,,,,,,,,,,,,,,,,a,1,0.464,"[""0.262"",""0.522"",""0.467"",""0.904""]","[1,1,0,1]",0,52,52,52,1,0,0,,,0,FALSE,,,,,,,,,,,,,,,,,,,,,,,,,,,,,,
,,001,2022-04-29_03h11.22.677,classification_task,2021.2.3,Win32,60.09615385,5ef109c89196fa6d5cf6c005,626b377229c10585ec392f89,626b3a0d446f6727012e3d20,,,,,,,,,,,,,,,,,,,,,,,a,0,2.198,"[""0.135"",""0.328"",""0.091"",""0.701""]","[1,1,0,1]",0,53,53,53,1,1,1,,,0,FALSE,,,,,,,,,,,,,,,,,,,,,,,,,,,,,,
,,001,2022-04-29_03h11.22.677,classification_task,2021.2.3,Win32,60.09615385,5ef109c89196fa6d5cf6c005,626b377229c10585ec392f89,626b3a0d446f6727012e3d20,,,,,,,,,,,,,,,,,,,,,,,a,0,1.78,"[""0.472"",""0.427"",""0.562"",""0.762""]","[0,1,1,1]",0,54,54,54,1,1,0,,,0,FALSE,,,,,,,,,,,,,,,,,,,,,,,,,,,,,,
,,001,2022-04-29_03h11.22.677,classification_task,2021.2.3,Win32,60.09615385,5ef109c89196fa6d5cf6c005,626b377229c10585ec392f89,626b3a0d446f6727012e3d20,,,,,,,,,,,,,,,,,,,,,,,l,0,0.449,"[""0.197"",""0.375"",""0.483"",""0.975""]","[1,1,0,1]",0,55,55,55,1,0,1,,,0,FALSE,,,,,,,,,,,,,,,,,,,,,,,,,,,,,,
,,001,2022-04-29_03h11.22.677,classification_task,2021.2.3,Win32,60.09615385,5ef109c89196fa6d5cf6c005,626b377229c10585ec392f89,626b3a0d446f6727012e3d20,,,,,,,,,,,,,,,,,,,,,,,a,0,0.452,"[""0.662"",""0.328"",""0.613"",""0.701""]","[0,1,1,1]",0,56,56,56,1,1,1,,,0,FALSE,,,,,,,,,,,,,,,,,,,,,,,,,,,,,,
,,001,2022-04-29_03h11.22.677,classification_task,2021.2.3,Win32,60.09615385,5ef109c89196fa6d5cf6c005,626b377229c10585ec392f89,626b3a0d446f6727012e3d20,,,,,,,,,,,,,,,,,,,,,,,a,0,0.849,"[""0.034"",""0.427"",""0.468"",""0.762""]","[1,1,0,1]",0,57,57,57,1,1,0,,,0,FALSE,,,,,,,,,,,,,,,,,,,,,,,,,,,,,,
,,001,2022-04-29_03h11.22.677,classification_task,2021.2.3,Win32,60.09615385,5ef109c89196fa6d5cf6c005,626b377229c10585ec392f89,626b3a0d446f6727012e3d20,,,,,,,,,,,,,,,,,,,,,,,a,1,0.415,"[""0.197"",""0.071"",""0.941"",""0.975""]","[1,0,1,1]",0,58,58,58,1,0,1,,,0,FALSE,,,,,,,,,,,,,,,,,,,,,,,,,,,,,,
,,001,2022-04-29_03h11.22.677,classification_task,2021.2.3,Win32,60.09615385,5ef109c89196fa6d5cf6c005,626b377229c10585ec392f89,626b3a0d446f6727012e3d20,,,,,,,,,,,,,,,,,,,,,,,a,1,0.384,"[""0.262"",""0.522"",""0.858"",""0.091""]","[1,1,1,0]",0,59,59,59,1,0,0,,,0,FALSE,,,,,,,,,,,,,,,,,,,,,,,,,,,,,,
,,001,2022-04-29_03h11.22.677,classification_task,2021.2.3,Win32,60.09615385,5ef109c89196fa6d5cf6c005,626b377229c10585ec392f89,626b3a0d446f6727012e3d20,,,,,,,,,,,,,,,,,,,,,,,a,0,0.631,"[""0.135"",""0.328"",""0.613"",""0.085""]","[1,1,1,0]",0,60,60,60,1,1,1,,,0,FALSE,,,,,,,,,,,,,,,,,,,,,,,,,,,,,,
,,001,2022-04-29_03h11.22.677,classification_task,2021.2.3,Win32,60.09615385,5ef109c89196fa6d5cf6c005,626b377229c10585ec392f89,626b3a0d446f6727012e3d20,,,,,,,,,,,,,,,,,,,,,,,a,1,0.515,"[""0.085"",""0.522"",""0.858"",""0.904""]","[0,1,1,1]",0,61,61,61,1,0,0,,,0,FALSE,,,,,,,,,,,,,,,,,,,,,,,,,,,,,,
,,001,2022-04-29_03h11.22.677,classification_task,2021.2.3,Win32,60.09615385,5ef109c89196fa6d5cf6c005,626b377229c10585ec392f89,626b3a0d446f6727012e3d20,,,,,,,,,,,,,,,,,,,,,,,l,1,0.516,"[""0.135"",""0.468"",""0.613"",""0.701""]","[1,0,1,1]",0,62,62,62,1,1,1,,,0,FALSE,,,,,,,,,,,,,,,,,,,,,,,,,,,,,,
,,001,2022-04-29_03h11.22.677,classification_task,2021.2.3,Win32,60.09615385,5ef109c89196fa6d5cf6c005,626b377229c10585ec392f89,626b3a0d446f6727012e3d20,,,,,,,,,,,,,,,,,,,,,,,a,1,1.132,"[""0.262"",""0.071"",""0.858"",""0.904""]","[1,0,1,1]",0,63,63,63,1,0,0,,,0,FALSE,,,,,,,,,,,,,,,,,,,,,,,,,,,,,,
,,001,2022-04-29_03h11.22.677,classification_task,2021.2.3,Win32,60.09615385,5ef109c89196fa6d5cf6c005,626b377229c10585ec392f89,626b3a0d446f6727012e3d20,,,,,,,,,,,,,,,,,,,,,,,,,,,,,,,,,,,,,,,0, ,,0,8.000685871,160.005,0,1,1,1,1,2,2,,,,,,,,,,,,,,,,,
,,001,2022-04-29_03h11.22.677,classification_task,2021.2.3,Win32,60.09615385,5ef109c89196fa6d5cf6c005,626b377229c10585ec392f89,626b3a0d446f6727012e3d20,,,,,,,,,,,,,,,,,,,,,,,,,,,,,,,,,,,,,,,1,  ,,0,10,157.592,0,1,1,1,1,2,2,,,,,,,,,,,,,,,,,
,,001,2022-04-29_03h11.22.677,classification_task,2021.2.3,Win32,60.09615385,5ef109c89196fa6d5cf6c005,626b377229c10585ec392f89,626b3a0d446f6727012e3d20,,,,,,,,,,,,,,,,,,,,,,,,,,,,,,,,,,,,,,,2,  ,,0,10,152.379,0,1,1,1,1,2,2,,,,,,,,,,,,,,,,,
,,001,2022-04-29_03h11.22.677,classification_task,2021.2.3,Win32,60.09615385,5ef109c89196fa6d5cf6c005,626b377229c10585ec392f89,626b3a0d446f6727012e3d20,,,,,,,,,,,,,,,,,,,,,,,,,,,,,,,,,,,,,,,,,,,,,0,1,1,1,1,,2,,,,,,,,,,,,,,,,,
,,001,2022-04-29_03h11.22.677,classification_task,2021.2.3,Win32,60.09615385,5ef109c89196fa6d5cf6c005,626b377229c10585ec392f89,626b3a0d446f6727012e3d20,,,,,,,,,,,,,,,,,,,,,space,7.413,,0,,"[""0.091"",""0.522"",""0.858"",""0.904""]","[0,1,1,1]",0,0,0,0,1,0,0,,,0,FALSE,,,,,,,,,,,,,,,,,,,,,,,,,,,,,,
,,001,2022-04-29_03h11.22.677,classification_task,2021.2.3,Win32,60.09615385,5ef109c89196fa6d5cf6c005,626b377229c10585ec392f89,626b3a0d446f6727012e3d20,,,,,,,,,,,,,,,,,,,,,,,a,0,1.43,"[""0.034"",""0.072"",""0.562"",""0.762""]","[1,0,1,1]",0,1,1,1,1,1,0,,,0,FALSE,,,,,,,,,,,,,,,,,,,,,,,,,,,,,,
,,001,2022-04-29_03h11.22.677,classification_task,2021.2.3,Win32,60.09615385,5ef109c89196fa6d5cf6c005,626b377229c10585ec392f89,626b3a0d446f6727012e3d20,,,,,,,,,,,,,,,,,,,,,,,a,1,4.064,"[""0.197"",""0.375"",""0.662"",""0.975""]","[1,1,0,1]",0,2,2,2,1,0,1,,,0,FALSE,,,,,,,,,,,,,,,,,,,,,,,,,,,,,,
,,001,2022-04-29_03h11.22.677,classification_task,2021.2.3,Win32,60.09615385,5ef109c89196fa6d5cf6c005,626b377229c10585ec392f89,626b3a0d446f6727012e3d20,,,,,,,,,,,,,,,,,,,,,,,l,1,3.046,"[""0.091"",""0.427"",""0.562"",""0.762""]","[0,1,1,1]",0,3,3,3,1,1,0,,,0,FALSE,,,,,,,,,,,,,,,,,,,,,,,,,,,,,,
,,001,2022-04-29_03h11.22.677,classification_task,2021.2.3,Win32,60.09615385,5ef109c89196fa6d5cf6c005,626b377229c10585ec392f89,626b3a0d446f6727012e3d20,,,,,,,,,,,,,,,,,,,,,,,a,0,0.566,"[""0.135"",""0.072"",""0.613"",""0.701""]","[1,0,1,1]",0,4,4,4,1,1,1,,,0,FALSE,,,,,,,,,,,,,,,,,,,,,,,,,,,,,,
,,001,2022-04-29_03h11.22.677,classification_task,2021.2.3,Win32,60.09615385,5ef109c89196fa6d5cf6c005,626b377229c10585ec392f89,626b3a0d446f6727012e3d20,,,,,,,,,,,,,,,,,,,,,,,a,1,0.485,"[""0.815"",""0.375"",""0.941"",""0.975""]","[0,1,1,1]",0,5,5,5,1,0,1,,,0,FALSE,,,,,,,,,,,,,,,,,,,,,,,,,,,,,,
,,001,2022-04-29_03h11.22.677,classification_task,2021.2.3,Win32,60.09615385,5ef109c89196fa6d5cf6c005,626b377229c10585ec392f89,626b3a0d446f6727012e3d20,,,,,,,,,,,,,,,,,,,,,,,a,1,0.349,"[""0.262"",""0.091"",""0.858"",""0.904""]","[1,0,1,1]",0,6,6,6,1,0,0,,,0,FALSE,,,,,,,,,,,,,,,,,,,,,,,,,,,,,,
,,001,2022-04-29_03h11.22.677,classification_task,2021.2.3,Win32,60.09615385,5ef109c89196fa6d5cf6c005,626b377229c10585ec392f89,626b3a0d446f6727012e3d20,,,,,,,,,,,,,,,,,,,,,,,a,0,0.416,"[""0.034"",""0.427"",""0.091"",""0.762""]","[1,1,0,1]",0,7,7,7,1,1,0,,,0,FALSE,,,,,,,,,,,,,,,,,,,,,,,,,,,,,,
,,001,2022-04-29_03h11.22.677,classification_task,2021.2.3,Win32,60.09615385,5ef109c89196fa6d5cf6c005,626b377229c10585ec392f89,626b3a0d446f6727012e3d20,,,,,,,,,,,,,,,,,,,,,,,a,0,1.648,"[""0.034"",""0.427"",""0.562"",""0.483""]","[1,1,1,0]",0,8,8,8,1,1,0,,,0,FALSE,,,,,,,,,,,,,,,,,,,,,,,,,,,,,,
,,001,2022-04-29_03h11.22.677,classification_task,2021.2.3,Win32,60.09615385,5ef109c89196fa6d5cf6c005,626b377229c10585ec392f89,626b3a0d446f6727012e3d20,,,,,,,,,,,,,,,,,,,,,,,a,1,0.401,"[""0.197"",""0.483"",""0.941"",""0.975""]","[1,0,1,1]",0,9,9,9,1,0,1,,,0,FALSE,,,,,,,,,,,,,,,,,,,,,,,,,,,,,,
,,001,2022-04-29_03h11.22.677,classification_task,2021.2.3,Win32,60.09615385,5ef109c89196fa6d5cf6c005,626b377229c10585ec392f89,626b3a0d446f6727012e3d20,,,,,,,,,,,,,,,,,,,,,,,a,0,1.747,"[""0.468"",""0.328"",""0.613"",""0.701""]","[0,1,1,1]",0,10,10,10,1,1,1,,,0,FALSE,,,,,,,,,,,,,,,,,,,,,,,,,,,,,,
,,001,2022-04-29_03h11.22.677,classification_task,2021.2.3,Win32,60.09615385,5ef109c89196fa6d5cf6c005,626b377229c10585ec392f89,626b3a0d446f6727012e3d20,,,,,,,,,,,,,,,,,,,,,,,l,1,0.514,"[""0.135"",""0.328"",""0.472"",""0.701""]","[1,1,0,1]",0,11,11,11,1,1,1,,,0,FALSE,,,,,,,,,,,,,,,,,,,,,,,,,,,,,,
,,001,2022-04-29_03h11.22.677,classification_task,2021.2.3,Win32,60.09615385,5ef109c89196fa6d5cf6c005,626b377229c10585ec392f89,626b3a0d446f6727012e3d20,,,,,,,,,,,,,,,,,,,,,,,a,1,0.468,"[""0.197"",""0.375"",""0.941"",""0.467""]","[1,1,1,0]",0,12,12,12,1,0,1,,,0,FALSE,,,,,,,,,,,,,,,,,,,,,,,,,,,,,,
,,001,2022-04-29_03h11.22.677,classification_task,2021.2.3,Win32,60.09615385,5ef109c89196fa6d5cf6c005,626b377229c10585ec392f89,626b3a0d446f6727012e3d20,,,,,,,,,,,,,,,,,,,,,,,a,0,0.882,"[""0.135"",""0.328"",""0.613"",""0.091""]","[1,1,1,0]",0,13,13,13,1,1,1,,,0,FALSE,,,,,,,,,,,,,,,,,,,,,,,,,,,,,,
,,001,2022-04-29_03h11.22.677,classification_task,2021.2.3,Win32,60.09615385,5ef109c89196fa6d5cf6c005,626b377229c10585ec392f89,626b3a0d446f6727012e3d20,,,,,,,,,,,,,,,,,,,,,,,l,0,0.784,"[""0.262"",""0.522"",""0.858"",""0.472""]","[1,1,1,0]",0,14,14,14,1,0,0,,,0,FALSE,,,,,,,,,,,,,,,,,,,,,,,,,,,,,,
,,001,2022-04-29_03h11.22.677,classification_task,2021.2.3,Win32,60.09615385,5ef109c89196fa6d5cf6c005,626b377229c10585ec392f89,626b3a0d446f6727012e3d20,,,,,,,,,,,,,,,,,,,,,,,l,0,2.297,"[""0.262"",""0.522"",""0.468"",""0.904""]","[1,1,0,1]",0,15,15,15,1,0,0,,,0,FALSE,,,,,,,,,,,,,,,,,,,,,,,,,,,,,,
,,001,2022-04-29_03h11.22.677,classification_task,2021.2.3,Win32,60.09615385,5ef109c89196fa6d5cf6c005,626b377229c10585ec392f89,626b3a0d446f6727012e3d20,,,,,,,,,,,,,,,,,,,,,,,l,1,3.179,"[""0.647"",""0.427"",""0.562"",""0.762""]","[0,1,1,1]",0,16,16,16,1,1,0,,,0,FALSE,,,,,,,,,,,,,,,,,,,,,,,,,,,,,,
,,001,2022-04-29_03h11.22.677,classification_task,2021.2.3,Win32,60.09615385,5ef109c89196fa6d5cf6c005,626b377229c10585ec392f89,626b3a0d446f6727012e3d20,,,,,,,,,,,,,,,,,,,,,,,l,0,2.549,"[""0.262"",""0.522"",""0.858"",""0.662""]","[1,1,1,0]",0,17,17,17,1,0,0,,,0,FALSE,,,,,,,,,,,,,,,,,,,,,,,,,,,,,,
,,001,2022-04-29_03h11.22.677,classification_task,2021.2.3,Win32,60.09615385,5ef109c89196fa6d5cf6c005,626b377229c10585ec392f89,626b3a0d446f6727012e3d20,,,,,,,,,,,,,,,,,,,,,,,a,0,1.949,"[""0.034"",""0.427"",""0.662"",""0.762""]","[1,1,0,1]",0,18,18,18,1,1,0,,,0,FALSE,,,,,,,,,,,,,,,,,,,,,,,,,,,,,,
,,001,2022-04-29_03h11.22.677,classification_task,2021.2.3,Win32,60.09615385,5ef109c89196fa6d5cf6c005,626b377229c10585ec392f89,626b3a0d446f6727012e3d20,,,,,,,,,,,,,,,,,,,,,,,l,0,0.566,"[""0.197"",""0.815"",""0.941"",""0.975""]","[1,0,1,1]",0,19,19,19,1,0,1,,,0,FALSE,,,,,,,,,,,,,,,,,,,,,,,,,,,,,,
,,001,2022-04-29_03h11.22.677,classification_task,2021.2.3,Win32,60.09615385,5ef109c89196fa6d5cf6c005,626b377229c10585ec392f89,626b3a0d446f6727012e3d20,,,,,,,,,,,,,,,,,,,,,,,a,0,0.451,"[""0.659"",""0.328"",""0.613"",""0.701""]","[0,1,1,1]",0,20,20,20,1,1,1,,,0,FALSE,,,,,,,,,,,,,,,,,,,,,,,,,,,,,,
,,001,2022-04-29_03h11.22.677,classification_task,2021.2.3,Win32,60.09615385,5ef109c89196fa6d5cf6c005,626b377229c10585ec392f89,626b3a0d446f6727012e3d20,,,,,,,,,,,,,,,,,,,,,,,a,0,0.45,"[""0.034"",""0.468"",""0.562"",""0.762""]","[1,0,1,1]",0,21,21,21,1,1,0,,,0,FALSE,,,,,,,,,,,,,,,,,,,,,,,,,,,,,,
,,001,2022-04-29_03h11.22.677,classification_task,2021.2.3,Win32,60.09615385,5ef109c89196fa6d5cf6c005,626b377229c10585ec392f89,626b3a0d446f6727012e3d20,,,,,,,,,,,,,,,,,,,,,,,a,0,0.859,"[""0.034"",""0.427"",""0.562"",""0.472""]","[1,1,1,0]",0,22,22,22,1,1,0,,,0,FALSE,,,,,,,,,,,,,,,,,,,,,,,,,,,,,,
,,001,2022-04-29_03h11.22.677,classification_task,2021.2.3,Win32,60.09615385,5ef109c89196fa6d5cf6c005,626b377229c10585ec392f89,626b3a0d446f6727012e3d20,,,,,,,,,,,,,,,,,,,,,,,a,0,0.948,"[""0.135"",""0.328"",""0.613"",""0.647""]","[1,1,1,0]",0,23,23,23,1,1,1,,,0,FALSE,,,,,,,,,,,,,,,,,,,,,,,,,,,,,,
,,001,2022-04-29_03h11.22.677,classification_task,2021.2.3,Win32,60.09615385,5ef109c89196fa6d5cf6c005,626b377229c10585ec392f89,626b3a0d446f6727012e3d20,,,,,,,,,,,,,,,,,,,,,,,a,0,0.7,"[""0.135"",""0.802"",""0.613"",""0.701""]","[1,0,1,1]",0,24,24,24,1,1,1,,,0,FALSE,,,,,,,,,,,,,,,,,,,,,,,,,,,,,,
,,001,2022-04-29_03h11.22.677,classification_task,2021.2.3,Win32,60.09615385,5ef109c89196fa6d5cf6c005,626b377229c10585ec392f89,626b3a0d446f6727012e3d20,,,,,,,,,,,,,,,,,,,,,,,l,0,0.583,"[""0.262"",""0.522"",""0.468"",""0.904""]","[1,1,0,1]",0,25,25,25,1,0,0,,,0,FALSE,,,,,,,,,,,,,,,,,,,,,,,,,,,,,,
,,001,2022-04-29_03h11.22.677,classification_task,2021.2.3,Win32,60.09615385,5ef109c89196fa6d5cf6c005,626b377229c10585ec392f89,626b3a0d446f6727012e3d20,,,,,,,,,,,,,,,,,,,,,,,l,0,0.615,"[""0.197"",""0.375"",""0.483"",""0.975""]","[1,1,0,1]",0,26,26,26,1,0,1,,,0,FALSE,,,,,,,,,,,,,,,,,,,,,,,,,,,,,,
,,001,2022-04-29_03h11.22.677,classification_task,2021.2.3,Win32,60.09615385,5ef109c89196fa6d5cf6c005,626b377229c10585ec392f89,626b3a0d446f6727012e3d20,,,,,,,,,,,,,,,,,,,,,,,a,1,0.316,"[""0.262"",""0.662"",""0.858"",""0.904""]","[1,0,1,1]",0,27,27,27,1,0,0,,,0,FALSE,,,,,,,,,,,,,,,,,,,,,,,,,,,,,,
,,001,2022-04-29_03h11.22.677,classification_task,2021.2.3,Win32,60.09615385,5ef109c89196fa6d5cf6c005,626b377229c10585ec392f89,626b3a0d446f6727012e3d20,,,,,,,,,,,,,,,,,,,,,,,l,0,0.269,"[""0.815"",""0.522"",""0.858"",""0.904""]","[0,1,1,1]",0,28,28,28,1,0,0,,,0,FALSE,,,,,,,,,,,,,,,,,,,,,,,,,,,,,,
,,001,2022-04-29_03h11.22.677,classification_task,2021.2.3,Win32,60.09615385,5ef109c89196fa6d5cf6c005,626b377229c10585ec392f89,626b3a0d446f6727012e3d20,,,,,,,,,,,,,,,,,,,,,,,a,1,0.232,"[""0.197"",""0.375"",""0.941"",""0.468""]","[1,1,1,0]",0,29,29,29,1,0,1,,,0,FALSE,,,,,,,,,,,,,,,,,,,,,,,,,,,,,,
,,001,2022-04-29_03h11.22.677,classification_task,2021.2.3,Win32,60.09615385,5ef109c89196fa6d5cf6c005,626b377229c10585ec392f89,626b3a0d446f6727012e3d20,,,,,,,,,,,,,,,,,,,,,,,a,0,0.366,"[""0.135"",""0.328"",""0.647"",""0.701""]","[1,1,0,1]",0,30,30,30,1,1,1,,,0,FALSE,,,,,,,,,,,,,,,,,,,,,,,,,,,,,,
,,001,2022-04-29_03h11.22.677,classification_task,2021.2.3,Win32,60.09615385,5ef109c89196fa6d5cf6c005,626b377229c10585ec392f89,626b3a0d446f6727012e3d20,,,,,,,,,,,,,,,,,,,,,,,a,1,0.301,"[""0.662"",""0.375"",""0.941"",""0.975""]","[0,1,1,1]",0,31,31,31,1,0,1,,,0,FALSE,,,,,,,,,,,,,,,,,,,,,,,,,,,,,,
,,001,2022-04-29_03h11.22.677,classification_task,2021.2.3,Win32,60.09615385,5ef109c89196fa6d5cf6c005,626b377229c10585ec392f89,626b3a0d446f6727012e3d20,,,,,,,,,,,,,,,,,,,,,,,a,1,0.419,"[""0.197"",""0.472"",""0.941"",""0.975""]","[1,0,1,1]",0,32,32,32,1,0,1,,,0,FALSE,,,,,,,,,,,,,,,,,,,,,,,,,,,,,,
,,001,2022-04-29_03h11.22.677,classification_task,2021.2.3,Win32,60.09615385,5ef109c89196fa6d5cf6c005,626b377229c10585ec392f89,626b3a0d446f6727012e3d20,,,,,,,,,,,,,,,,,,,,,,,a,0,0.331,"[""0.135"",""0.662"",""0.613"",""0.701""]","[1,0,1,1]",0,33,33,33,1,1,1,,,0,FALSE,,,,,,,,,,,,,,,,,,,,,,,,,,,,,,
,,001,2022-04-29_03h11.22.677,classification_task,2021.2.3,Win32,60.09615385,5ef109c89196fa6d5cf6c005,626b377229c10585ec392f89,626b3a0d446f6727012e3d20,,,,,,,,,,,,,,,,,,,,,,,a,0,0.283,"[""0.472"",""0.328"",""0.613"",""0.701""]","[0,1,1,1]",0,34,34,34,1,1,1,,,0,FALSE,,,,,,,,,,,,,,,,,,,,,,,,,,,,,,
,,001,2022-04-29_03h11.22.677,classification_task,2021.2.3,Win32,60.09615385,5ef109c89196fa6d5cf6c005,626b377229c10585ec392f89,626b3a0d446f6727012e3d20,,,,,,,,,,,,,,,,,,,,,,,a,1,0.233,"[""0.091"",""0.522"",""0.858"",""0.904""]","[0,1,1,1]",0,35,35,35,1,0,0,,,0,FALSE,,,,,,,,,,,,,,,,,,,,,,,,,,,,,,
,,001,2022-04-29_03h11.22.677,classification_task,2021.2.3,Win32,60.09615385,5ef109c89196fa6d5cf6c005,626b377229c10585ec392f89,626b3a0d446f6727012e3d20,,,,,,,,,,,,,,,,,,,,,,,a,1,0.186,"[""0.262"",""0.522"",""0.815"",""0.904""]","[1,1,0,1]",0,36,36,36,1,0,0,,,0,FALSE,,,,,,,,,,,,,,,,,,,,,,,,,,,,,,
,,001,2022-04-29_03h11.22.677,classification_task,2021.2.3,Win32,60.09615385,5ef109c89196fa6d5cf6c005,626b377229c10585ec392f89,626b3a0d446f6727012e3d20,,,,,,,,,,,,,,,,,,,,,,,a,1,0.132,"[""0.197"",""0.375"",""0.941"",""0.467""]","[1,1,1,0]",0,37,37,37,1,0,1,,,0,FALSE,,,,,,,,,,,,,,,,,,,,,,,,,,,,,,
,,001,2022-04-29_03h11.22.677,classification_task,2021.2.3,Win32,60.09615385,5ef109c89196fa6d5cf6c005,626b377229c10585ec392f89,626b3a0d446f6727012e3d20,,,,,,,,,,,,,,,,,,,,,,,a,0,4.779,"[""0.467"",""0.427"",""0.562"",""0.762""]","[0,1,1,1]",0,38,38,38,1,1,0,,,0,FALSE,,,,,,,,,,,,,,,,,,,,,,,,,,,,,,
,,001,2022-04-29_03h11.22.677,classification_task,2021.2.3,Win32,60.09615385,5ef109c89196fa6d5cf6c005,626b377229c10585ec392f89,626b3a0d446f6727012e3d20,,,,,,,,,,,,,,,,,,,,,,,l,1,0.582,"[""0.034"",""0.427"",""0.483"",""0.762""]","[1,1,0,1]",0,39,39,39,1,1,0,,,0,FALSE,,,,,,,,,,,,,,,,,,,,,,,,,,,,,,
,,001,2022-04-29_03h11.22.677,classification_task,2021.2.3,Win32,60.09615385,5ef109c89196fa6d5cf6c005,626b377229c10585ec392f89,626b3a0d446f6727012e3d20,,,,,,,,,,,,,,,,,,,,,,,a,1,2.15,"[""0.262"",""0.522"",""0.858"",""0.662""]","[1,1,1,0]",0,40,40,40,1,0,0,,,0,FALSE,,,,,,,,,,,,,,,,,,,,,,,,,,,,,,
,,001,2022-04-29_03h11.22.677,classification_task,2021.2.3,Win32,60.09615385,5ef109c89196fa6d5cf6c005,626b377229c10585ec392f89,626b3a0d446f6727012e3d20,,,,,,,,,,,,,,,,,,,,,,,a,0,0.085,"[""0.034"",""0.487"",""0.562"",""0.762""]","[1,0,1,1]",0,41,41,41,1,1,0,,,0,FALSE,,,,,,,,,,,,,,,,,,,,,,,,,,,,,,
,,001,2022-04-29_03h11.22.677,classification_task,2021.2.3,Win32,60.09615385,5ef109c89196fa6d5cf6c005,626b377229c10585ec392f89,626b3a0d446f6727012e3d20,,,,,,,,,,,,,,,,,,,,,,,l,0,0.268,"[""0.262"",""0.487"",""0.858"",""0.904""]","[1,0,1,1]",0,42,42,42,1,0,0,,,0,FALSE,,,,,,,,,,,,,,,,,,,,,,,,,,,,,,
,,001,2022-04-29_03h11.22.677,classification_task,2021.2.3,Win32,60.09615385,5ef109c89196fa6d5cf6c005,626b377229c10585ec392f89,626b3a0d446f6727012e3d20,,,,,,,,,,,,,,,,,,,,,,,a,0,0.715,"[""0.135"",""0.328"",""0.085"",""0.701""]","[1,1,0,1]",0,43,43,43,1,1,1,,,0,FALSE,,,,,,,,,,,,,,,,,,,,,,,,,,,,,,
,,001,2022-04-29_03h11.22.677,classification_task,2021.2.3,Win32,60.09615385,5ef109c89196fa6d5cf6c005,626b377229c10585ec392f89,626b3a0d446f6727012e3d20,,,,,,,,,,,,,,,,,,,,,,,l,0,0.999,"[""0.197"",""0.375"",""0.662"",""0.975""]","[1,1,0,1]",0,44,44,44,1,0,1,,,0,FALSE,,,,,,,,,,,,,,,,,,,,,,,,,,,,,,
,,001,2022-04-29_03h11.22.677,classification_task,2021.2.3,Win32,60.09615385,5ef109c89196fa6d5cf6c005,626b377229c10585ec392f89,626b3a0d446f6727012e3d20,,,,,,,,,,,,,,,,,,,,,,,l,1,0.517,"[""0.135"",""0.328"",""0.613"",""0.802""]","[1,1,1,0]",0,45,45,45,1,1,1,,,0,FALSE,,,,,,,,,,,,,,,,,,,,,,,,,,,,,,
,,001,2022-04-29_03h11.22.677,classification_task,2021.2.3,Win32,60.09615385,5ef109c89196fa6d5cf6c005,626b377229c10585ec392f89,626b3a0d446f6727012e3d20,,,,,,,,,,,,,,,,,,,,,,,l,0,0.3,"[""0.072"",""0.375"",""0.941"",""0.975""]","[0,1,1,1]",0,46,46,46,1,0,1,,,0,FALSE,,,,,,,,,,,,,,,,,,,,,,,,,,,,,,
,,001,2022-04-29_03h11.22.677,classification_task,2021.2.3,Win32,60.09615385,5ef109c89196fa6d5cf6c005,626b377229c10585ec392f89,626b3a0d446f6727012e3d20,,,,,,,,,,,,,,,,,,,,,,,l,1,0.086,"[""0.034"",""0.427"",""0.562"",""0.091""]","[1,1,1,0]",0,47,47,47,1,1,0,,,0,FALSE,,,,,,,,,,,,,,,,,,,,,,,,,,,,,,
,,001,2022-04-29_03h11.22.677,classification_task,2021.2.3,Win32,60.09615385,5ef109c89196fa6d5cf6c005,626b377229c10585ec392f89,626b3a0d446f6727012e3d20,,,,,,,,,,,,,,,,,,,,,,,l,0,0.533,"[""0.262"",""0.815"",""0.858"",""0.904""]","[1,0,1,1]",0,48,48,48,1,0,0,,,0,FALSE,,,,,,,,,,,,,,,,,,,,,,,,,,,,,,
,,001,2022-04-29_03h11.22.677,classification_task,2021.2.3,Win32,60.09615385,5ef109c89196fa6d5cf6c005,626b377229c10585ec392f89,626b3a0d446f6727012e3d20,,,,,,,,,,,,,,,,,,,,,,,a,1,0.034,"[""0.467"",""0.375"",""0.941"",""0.975""]","[0,1,1,1]",0,49,49,49,1,0,1,,,0,FALSE,,,,,,,,,,,,,,,,,,,,,,,,,,,,,,
,,001,2022-04-29_03h11.22.677,classification_task,2021.2.3,Win32,60.09615385,5ef109c89196fa6d5cf6c005,626b377229c10585ec392f89,626b3a0d446f6727012e3d20,,,,,,,,,,,,,,,,,,,,,,,a,0,0.052,"[""0.135"",""0.328"",""0.613"",""0.091""]","[1,1,1,0]",0,50,50,50,1,1,1,,,0,FALSE,,,,,,,,,,,,,,,,,,,,,,,,,,,,,,
,,001,2022-04-29_03h11.22.677,classification_task,2021.2.3,Win32,60.09615385,5ef109c89196fa6d5cf6c005,626b377229c10585ec392f89,626b3a0d446f6727012e3d20,,,,,,,,,,,,,,,,,,,,,,,a,0,0.166,"[""0.034"",""0.427"",""0.562"",""0.091""]","[1,1,1,0]",0,51,51,51,1,1,0,,,0,FALSE,,,,,,,,,,,,,,,,,,,,,,,,,,,,,,
,,001,2022-04-29_03h11.22.677,classification_task,2021.2.3,Win32,60.09615385,5ef109c89196fa6d5cf6c005,626b377229c10585ec392f89,626b3a0d446f6727012e3d20,,,,,,,,,,,,,,,,,,,,,,,a,1,0.001,"[""0.262"",""0.522"",""0.468"",""0.904""]","[1,1,0,1]",0,52,52,52,1,0,0,,,0,FALSE,,,,,,,,,,,,,,,,,,,,,,,,,,,,,,
,,001,2022-04-29_03h11.22.677,classification_task,2021.2.3,Win32,60.09615385,5ef109c89196fa6d5cf6c005,626b377229c10585ec392f89,626b3a0d446f6727012e3d20,,,,,,,,,,,,,,,,,,,,,,,l,0,0.229,"[""0.197"",""0.085"",""0.941"",""0.975""]","[1,0,1,1]",0,53,53,53,1,0,1,,,0,FALSE,,,,,,,,,,,,,,,,,,,,,,,,,,,,,,
,,001,2022-04-29_03h11.22.677,classification_task,2021.2.3,Win32,60.09615385,5ef109c89196fa6d5cf6c005,626b377229c10585ec392f89,626b3a0d446f6727012e3d20,,,,,,,,,,,,,,,,,,,,,,,l,0,0.051,"[""0.197"",""0.375"",""0.659"",""0.975""]","[1,1,0,1]",0,54,54,54,1,0,1,,,0,FALSE,,,,,,,,,,,,,,,,,,,,,,,,,,,,,,
,,001,2022-04-29_03h11.22.677,classification_task,2021.2.3,Win32,60.09615385,5ef109c89196fa6d5cf6c005,626b377229c10585ec392f89,626b3a0d446f6727012e3d20,,,,,,,,,,,,,,,,,,,,,,,a,0,0.334,"[""0.135"",""0.328"",""0.487"",""0.701""]","[1,1,0,1]",0,55,55,55,1,1,1,,,0,FALSE,,,,,,,,,,,,,,,,,,,,,,,,,,,,,,
,,001,2022-04-29_03h11.22.677,classification_task,2021.2.3,Win32,60.09615385,5ef109c89196fa6d5cf6c005,626b377229c10585ec392f89,626b3a0d446f6727012e3d20,,,,,,,,,,,,,,,,,,,,,,,a,0,0.266,"[""0.072"",""0.328"",""0.613"",""0.701""]","[0,1,1,1]",0,56,56,56,1,1,1,,,0,FALSE,,,,,,,,,,,,,,,,,,,,,,,,,,,,,,
,,001,2022-04-29_03h11.22.677,classification_task,2021.2.3,Win32,60.09615385,5ef109c89196fa6d5cf6c005,626b377229c10585ec392f89,626b3a0d446f6727012e3d20,,,,,,,,,,,,,,,,,,,,,,,a,0,3.498,"[""0.034"",""0.427"",""0.487"",""0.762""]","[1,1,0,1]",0,57,57,57,1,1,0,,,0,FALSE,,,,,,,,,,,,,,,,,,,,,,,,,,,,,,
,,001,2022-04-29_03h11.22.677,classification_task,2021.2.3,Win32,60.09615385,5ef109c89196fa6d5cf6c005,626b377229c10585ec392f89,626b3a0d446f6727012e3d20,,,,,,,,,,,,,,,,,,,,,,,a,0,1.565,"[""0.135"",""0.815"",""0.613"",""0.701""]","[1,0,1,1]",0,58,58,58,1,1,1,,,0,FALSE,,,,,,,,,,,,,,,,,,,,,,,,,,,,,,
,,001,2022-04-29_03h11.22.677,classification_task,2021.2.3,Win32,60.09615385,5ef109c89196fa6d5cf6c005,626b377229c10585ec392f89,626b3a0d446f6727012e3d20,,,,,,,,,,,,,,,,,,,,,,,a,1,0.817,"[""0.091"",""0.522"",""0.858"",""0.904""]","[0,1,1,1]",0,59,59,59,1,0,0,,,0,FALSE,,,,,,,,,,,,,,,,,,,,,,,,,,,,,,
,,001,2022-04-29_03h11.22.677,classification_task,2021.2.3,Win32,60.09615385,5ef109c89196fa6d5cf6c005,626b377229c10585ec392f89,626b3a0d446f6727012e3d20,,,,,,,,,,,,,,,,,,,,,,,l,0,1.236,"[""0.262"",""0.522"",""0.858"",""0.815""]","[1,1,1,0]",0,60,60,60,1,0,0,,,0,FALSE,,,,,,,,,,,,,,,,,,,,,,,,,,,,,,
,,001,2022-04-29_03h11.22.677,classification_task,2021.2.3,Win32,60.09615385,5ef109c89196fa6d5cf6c005,626b377229c10585ec392f89,626b3a0d446f6727012e3d20,,,,,,,,,,,,,,,,,,,,,,,a,1,0.949,"[""0.197"",""0.375"",""0.941"",""0.467""]","[1,1,1,0]",0,61,61,61,1,0,1,,,0,FALSE,,,,,,,,,,,,,,,,,,,,,,,,,,,,,,
,,001,2022-04-29_03h11.22.677,classification_task,2021.2.3,Win32,60.09615385,5ef109c89196fa6d5cf6c005,626b377229c10585ec392f89,626b3a0d446f6727012e3d20,,,,,,,,,,,,,,,,,,,,,,,a,0,0.849,"[""0.034"",""0.468"",""0.562"",""0.762""]","[1,0,1,1]",0,62,62,62,1,1,0,,,0,FALSE,,,,,,,,,,,,,,,,,,,,,,,,,,,,,,
,,001,2022-04-29_03h11.22.677,classification_task,2021.2.3,Win32,60.09615385,5ef109c89196fa6d5cf6c005,626b377229c10585ec392f89,626b3a0d446f6727012e3d20,,,,,,,,,,,,,,,,,,,,,,,a,0,1.549,"[""0.468"",""0.427"",""0.562"",""0.762""]","[0,1,1,1]",0,63,63,63,1,1,0,,,0,FALSE,,,,,,,,,,,,,,,,,,,,,,,,,,,,,,
,,001,2022-04-29_03h11.22.677,classification_task,2021.2.3,Win32,60.09615385,5ef109c89196fa6d5cf6c005,626b377229c10585ec392f89,626b3a0d446f6727012e3d20,,,,,,,,,,,,,,,,,,,,,,,,,,,,,,,,,,,,,,,0, ,,0,10,143.642,0,2,2,2,1,2,3,,,,,,,,,,,,,,,,,
,,001,2022-04-29_03h11.22.677,classification_task,2021.2.3,Win32,60.09615385,5ef109c89196fa6d5cf6c005,626b377229c10585ec392f89,626b3a0d446f6727012e3d20,,,,,,,,,,,,,,,,,,,,,,,,,,,,,,,,,,,,,,,1,  ,,0,9.745982755,144.322,0,2,2,2,1,2,3,,,,,,,,,,,,,,,,,
,,001,2022-04-29_03h11.22.677,classification_task,2021.2.3,Win32,60.09615385,5ef109c89196fa6d5cf6c005,626b377229c10585ec392f89,626b3a0d446f6727012e3d20,,,,,,,,,,,,,,,,,,,,,,,,,,,,,,,,,,,,,,,2,  ,,0,9.501028807,145.355,0,2,2,2,1,2,3,,,,,,,,,,,,,,,,,
,,001,2022-04-29_03h11.22.677,classification_task,2021.2.3,Win32,60.09615385,5ef109c89196fa6d5cf6c005,626b377229c10585ec392f89,626b3a0d446f6727012e3d20,,,,,,,,,,,,,,,,,,,,,,,,,,,,,,,,,,,,,,,,,,,,,0,2,2,2,1,,3,,,,,,,,,,,,,,,,,
,,001,2022-04-29_03h11.22.677,classification_task,2021.2.3,Win32,60.09615385,5ef109c89196fa6d5cf6c005,626b377229c10585ec392f89,626b3a0d446f6727012e3d20,,,,,,,,,,,,,,,,,,,,,,,,,,,,,,,,,,,,,,,,,,,,,,,,,,,,,I believe the aid is a competent performer,,0.7,0,1,843.773,0,0,0,0,1,0,,,,
,,001,2022-04-29_03h11.22.677,classification_task,2021.2.3,Win32,60.09615385,5ef109c89196fa6d5cf6c005,626b377229c10585ec392f89,626b3a0d446f6727012e3d20,,,,,,,,,,,,,,,,,,,,,,,,,,,,,,,,,,,,,,,,,,,,,,,,,,,,,I trust the aid,,0.7,0,2,844.853,0,0,0,0,1,0,,,,
,,001,2022-04-29_03h11.22.677,classification_task,2021.2.3,Win32,60.09615385,5ef109c89196fa6d5cf6c005,626b377229c10585ec392f89,626b3a0d446f6727012e3d20,,,,,,,,,,,,,,,,,,,,,,,,,,,,,,,,,,,,,,,,,,,,,,,,,,,,,I have confidence in the advice given by the aid,,0.7,0,1,846.734,0,0,0,0,1,0,,,,
,,001,2022-04-29_03h11.22.677,classification_task,2021.2.3,Win32,60.09615385,5ef109c89196fa6d5cf6c005,626b377229c10585ec392f89,626b3a0d446f6727012e3d20,,,,,,,,,,,,,,,,,,,,,,,,,,,,,,,,,,,,,,,,,,,,,,,,,,,,,I can depend on the aid,,0.7,0,2,847.731,0,0,0,0,1,0,,,,
,,001,2022-04-29_03h11.22.677,classification_task,2021.2.3,Win32,60.09615385,5ef109c89196fa6d5cf6c005,626b377229c10585ec392f89,626b3a0d446f6727012e3d20,,,,,,,,,,,,,,,,,,,,,,,,,,,,,,,,,,,,,,,,,,,,,,,,,,,,,I can rely on the aid to behave in consistent ways,,0.7,0,2,848.679,0,0,0,0,1,0,,,,
,,001,2022-04-29_03h11.22.677,classification_task,2021.2.3,Win32,60.09615385,5ef109c89196fa6d5cf6c005,626b377229c10585ec392f89,626b3a0d446f6727012e3d20,,,,,,,,,,,,,,,,,,,,,,,,,,,,,,,,,,,,,,,,,,,,,,,,,,,,,I can rely on the aid to do its best every time I take its advice,,0.7,0,2,849.76,0,0,0,0,1,0,,,,
,,001,2022-04-29_03h11.22.677,classification_task,2021.2.3,Win32,60.09615385,5ef109c89196fa6d5cf6c005,626b377229c10585ec392f89,626b3a0d446f6727012e3d20,,,,,,,,,,,,,,,,,,,,,,,,,,,,,,,,,,,,,,,,,,,,,,,,,,,,,"On trials you completed with assistance from the aid, how frequently did you think the aid was correct?",,0.7,0,60%,,0,0,0,0,1,0,,,,
,,001,2022-04-29_03h11.22.677,classification_task,2021.2.3,Win32,60.09615385,5ef109c89196fa6d5cf6c005,626b377229c10585ec392f89,626b3a0d446f6727012e3d20,,,,,,,,,,,,,,,,,,,,,,,,,,,,,,,,,,,,,,,,,,,,,,,,,,,,,"On trials you completed without the aid, how frequently did you think you were correct?",,0.7,0,40%,,0,0,0,0,1,0,,,,
,,001,2022-04-29_03h11.22.677,classification_task,2021.2.3,Win32,60.09615385,5ef109c89196fa6d5cf6c005,626b377229c10585ec392f89,626b3a0d446f6727012e3d20,,,,,,,,,,,,,,,,,,,,,,,,,,,,,,,,,,,,,,,,,,,,,,,,,,,,,,,,,,,0,0,0,0,1,,,,,
,,001,2022-04-29_03h11.22.677,classification_task,2021.2.3,Win32,60.09615385,5ef109c89196fa6d5cf6c005,626b377229c10585ec392f89,626b3a0d446f6727012e3d20,,,,,,,,,,,,,,,,,,,,,,,,,,,,,,,,,,,,,,,,,,,,,,,,,,,,,,,,,,,,,,,,,space,7.912,876.401,
,,001,2022-04-29_03h11.22.677,classification_task,2021.2.3,Win32,60.09615385,5ef109c89196fa6d5cf6c005,626b377229c10585ec392f89,626b3a0d446f6727012e3d20,,,,,,,,,,,,,,,,,,,,,,,,,,,,,,,,,,,,,,,,,,,,,,,,,,,,,,,,,,,,,,,,,,,,Mozilla/5.0 (Windows NT 10.0; Win64; x64; rv:99.0) Gecko/20100101 Firefox/99.0
