usingWebGL,participant,session,date,expName,psychopyVersion,OS,frameRate,PROLIFIC_PID,STUDY_ID,SESSION_ID,signatures_friend,signatures_foe,band_ranges_top,band_ranges_bottom,formitemText,formtype,formundefined,formitemWidth,formindex,formresponse,formrt,key_resp_2.keys,key_resp_2.rt,tute_resp.keys,tute_resp.rt,tutorial.thisRepN,tutorial.thisTrialN,tutorial.thisN,tutorial.thisIndex,tutorial.ran,key_resp_4.keys,key_resp_4.rt,key_resp.keys,key_resp.corr,lines_presented,is_signal_presented,trials.thisRepN,trials.thisTrialN,trials.thisN,trials.thisIndex,trials.ran,vessel,active_band,lines,is_signal,supported_pos,catch_trial,key_resp.rt,debrief_formindex,debrief_formitemText,debrief_formtype,debrief_formitemWidth,debrief_formresponse,debrief_formrt,phases.thisRepN,phases.thisTrialN,phases.thisN,phases.thisIndex,phases.ran,phases.order,phase,key_resp_3.keys,trustitemText,trusttype,trustitemWidth,trustindex,trustresponse,trustrt,support_status.thisRepN,support_status.thisTrialN,support_status.thisN,support_status.thisIndex,support_status.ran,support_status.order,key_resp_5.keys,key_resp_5.rt,globalClockTime,userAgent
TRUE,,001,2022-04-28_20h08.05.802,classification_task,2021.2.3,MacIntel,59.84082341,5ec2cdfe3d68ea0ea7ca8909,626b377229c10585ec392f89,626b3a222f0aeed8afb3ff4b,,,,,,,,,,,,,,,,,,,,,,,,,,,,,,,,,,,,,,,,,,,,,,,,,,,,,,,,,,,,,,,,,,,,
,,001,2022-04-28_20h08.05.802,classification_task,2021.2.3,MacIntel,59.84082341,5ec2cdfe3d68ea0ea7ca8909,626b377229c10585ec392f89,626b3a222f0aeed8afb3ff4b,"[[""0.281"",""0.408"",""0.649"",""0.961""],[""0.206"",""0.541"",""0.862"",""0.905""]]","[[""0.104"",""0.244"",""0.605"",""0.720""],[""0.046"",""0.152"",""0.466"",""0.821""]]","[1,10]","[100,1000]",Video game experience,,,0.7,0,,,,,,,,,,,,,,,,,,,,,,,,,,,,,,,,,,,,,,,,,,,,,,,,,,,,,,,,,,,
,,001,2022-04-28_20h08.05.802,classification_task,2021.2.3,MacIntel,59.84082341,5ec2cdfe3d68ea0ea7ca8909,626b377229c10585ec392f89,626b3a222f0aeed8afb3ff4b,,,,,Approximately how many hours did you spend playing video games in the last week?,,,0.7,0,10,,,,,,,,,,,,,,,,,,,,,,,,,,,,,,,,,,,,,,,,,,,,,,,,,,,,,,,,,,
,,001,2022-04-28_20h08.05.802,classification_task,2021.2.3,MacIntel,59.84082341,5ec2cdfe3d68ea0ea7ca8909,626b377229c10585ec392f89,626b3a222f0aeed8afb3ff4b,,,,,"Which game did you play the most this year? (Enter ""None"" if you didn't play any)",,,0.7,0,MarioKart,,,,,,,,,,,,,,,,,,,,,,,,,,,,,,,,,,,,,,,,,,,,,,,,,,,,,,,,,,
,,001,2022-04-28_20h08.05.802,classification_task,2021.2.3,MacIntel,59.84082341,5ec2cdfe3d68ea0ea7ca8909,626b377229c10585ec392f89,626b3a222f0aeed8afb3ff4b,,,,,Visual perception,,,0.7,0,,,,,,,,,,,,,,,,,,,,,,,,,,,,,,,,,,,,,,,,,,,,,,,,,,,,,,,,,,,
,,001,2022-04-28_20h08.05.802,classification_task,2021.2.3,MacIntel,59.84082341,5ec2cdfe3d68ea0ea7ca8909,626b377229c10585ec392f89,626b3a222f0aeed8afb3ff4b,,,,,Do you have any form of color blindness?,,,0.7,0,No,19.6469,,,,,,,,,,,,,,,,,,,,,,,,,,,,,,,,,,,,,,,,,,,,,,,,,,,,,,,,,
,,001,2022-04-28_20h08.05.802,classification_task,2021.2.3,MacIntel,59.84082341,5ec2cdfe3d68ea0ea7ca8909,626b377229c10585ec392f89,626b3a222f0aeed8afb3ff4b,,,,,Do you use software to change the colour temperature of your screen (e.g. f.lux)?,,,0.7,0,No,21.4759,,,,,,,,,,,,,,,,,,,,,,,,,,,,,,,,,,,,,,,,,,,,,,,,,,,,,,,,,
,,001,2022-04-28_20h08.05.802,classification_task,2021.2.3,MacIntel,59.84082341,5ec2cdfe3d68ea0ea7ca8909,626b377229c10585ec392f89,626b3a222f0aeed8afb3ff4b,,,,,,,,,,,,space,37.8092,space,4.6273,0,0,0,0,1,,,,,,,,,,,,,,,,,,,,,,,,,,,,,,,,,,,,,,,,,,,,,,,,
,,001,2022-04-28_20h08.05.802,classification_task,2021.2.3,MacIntel,59.84082341,5ec2cdfe3d68ea0ea7ca8909,626b377229c10585ec392f89,626b3a222f0aeed8afb3ff4b,,,,,,,,,,,,,,space,5.4503,1,0,1,0,1,,,,,,,,,,,,,,,,,,,,,,,,,,,,,,,,,,,,,,,,,,,,,,,,
,,001,2022-04-28_20h08.05.802,classification_task,2021.2.3,MacIntel,59.84082341,5ec2cdfe3d68ea0ea7ca8909,626b377229c10585ec392f89,626b3a222f0aeed8afb3ff4b,,,,,,,,,,,,,,space,20.1598,2,0,2,0,1,,,,,,,,,,,,,,,,,,,,,,,,,,,,,,,,,,,,,,,,,,,,,,,,
,,001,2022-04-28_20h08.05.802,classification_task,2021.2.3,MacIntel,59.84082341,5ec2cdfe3d68ea0ea7ca8909,626b377229c10585ec392f89,626b3a222f0aeed8afb3ff4b,,,,,,,,,,,,,,space,4.5617,3,0,3,0,1,,,,,,,,,,,,,,,,,,,,,,,,,,,,,,,,,,,,,,,,,,,,,,,,
,,001,2022-04-28_20h08.05.802,classification_task,2021.2.3,MacIntel,59.84082341,5ec2cdfe3d68ea0ea7ca8909,626b377229c10585ec392f89,626b3a222f0aeed8afb3ff4b,,,,,,,,,,,,,,space,7.4859,4,0,4,0,1,,,,,,,,,,,,,,,,,,,,,,,,,,,,,,,,,,,,,,,,,,,,,,,,
,,001,2022-04-28_20h08.05.802,classification_task,2021.2.3,MacIntel,59.84082341,5ec2cdfe3d68ea0ea7ca8909,626b377229c10585ec392f89,626b3a222f0aeed8afb3ff4b,,,,,,,,,,,,,,,,,,,,,space,13.9066,,0,"[""0.356"",""0.244"",""0.605"",""0.720""]","[0,1,1,1]",0,0,0,0,1,1,0,,,1,FALSE,,,,,,,,,,,,,,,,,,,,,,,,,,,,,,,
,,001,2022-04-28_20h08.05.802,classification_task,2021.2.3,MacIntel,59.84082341,5ec2cdfe3d68ea0ea7ca8909,626b377229c10585ec392f89,626b3a222f0aeed8afb3ff4b,,,,,,,,,,,,,,,,,,,,,,,a,1,"[""0.281"",""0.765"",""0.649"",""0.961""]","[1,0,1,1]",0,1,1,1,1,0,0,,,1,FALSE,2.6758,,,,,,,,,,,,,,,,,,,,,,,,,,,,,,
,,001,2022-04-28_20h08.05.802,classification_task,2021.2.3,MacIntel,59.84082341,5ec2cdfe3d68ea0ea7ca8909,626b377229c10585ec392f89,626b3a222f0aeed8afb3ff4b,,,,,,,,,,,,,,,,,,,,,,,a,1,"[""0.765"",""0.541"",""0.862"",""0.905""]","[0,1,1,1]",0,2,2,2,1,0,1,,,1,FALSE,3.8171,,,,,,,,,,,,,,,,,,,,,,,,,,,,,,
,,001,2022-04-28_20h08.05.802,classification_task,2021.2.3,MacIntel,59.84082341,5ec2cdfe3d68ea0ea7ca8909,626b377229c10585ec392f89,626b3a222f0aeed8afb3ff4b,,,,,,,,,,,,,,,,,,,,,,,l,1,"[""0.046"",""0.503"",""0.466"",""0.821""]","[1,0,1,1]",0,3,3,3,1,1,1,,,1,FALSE,2.4924,,,,,,,,,,,,,,,,,,,,,,,,,,,,,,
,,001,2022-04-28_20h08.05.802,classification_task,2021.2.3,MacIntel,59.84082341,5ec2cdfe3d68ea0ea7ca8909,626b377229c10585ec392f89,626b3a222f0aeed8afb3ff4b,,,,,,,,,,,,,,,,,,,,,,,a,1,"[""0.206"",""0.356"",""0.862"",""0.905""]","[1,0,1,1]",0,4,4,4,1,0,1,,,1,FALSE,2.8094,,,,,,,,,,,,,,,,,,,,,,,,,,,,,,
,,001,2022-04-28_20h08.05.802,classification_task,2021.2.3,MacIntel,59.84082341,5ec2cdfe3d68ea0ea7ca8909,626b377229c10585ec392f89,626b3a222f0aeed8afb3ff4b,,,,,,,,,,,,,,,,,,,,,,,l,1,"[""0.104"",""0.244"",""0.765"",""0.720""]","[1,1,0,1]",0,5,5,5,1,1,0,,,1,FALSE,2.8572,,,,,,,,,,,,,,,,,,,,,,,,,,,,,,
,,001,2022-04-28_20h08.05.802,classification_task,2021.2.3,MacIntel,59.84082341,5ec2cdfe3d68ea0ea7ca8909,626b377229c10585ec392f89,626b3a222f0aeed8afb3ff4b,,,,,,,,,,,,,,,,,,,,,,,l,1,"[""0.104"",""0.244"",""0.605"",""0.316""]","[1,1,1,0]",0,6,6,6,1,1,0,,,1,FALSE,1.9481,,,,,,,,,,,,,,,,,,,,,,,,,,,,,,
,,001,2022-04-28_20h08.05.802,classification_task,2021.2.3,MacIntel,59.84082341,5ec2cdfe3d68ea0ea7ca8909,626b377229c10585ec392f89,626b3a222f0aeed8afb3ff4b,,,,,,,,,,,,,,,,,,,,,,,l,1,"[""0.046"",""0.152"",""0.345"",""0.821""]","[1,1,0,1]",0,7,7,7,1,1,1,,,1,FALSE,3.5063,,,,,,,,,,,,,,,,,,,,,,,,,,,,,,
,,001,2022-04-28_20h08.05.802,classification_task,2021.2.3,MacIntel,59.84082341,5ec2cdfe3d68ea0ea7ca8909,626b377229c10585ec392f89,626b3a222f0aeed8afb3ff4b,,,,,,,,,,,,,,,,,,,,,,,a,1,"[""0.281"",""0.408"",""0.649"",""0.368""]","[1,1,1,0]",0,8,8,8,1,0,0,,,1,FALSE,2.1086,,,,,,,,,,,,,,,,,,,,,,,,,,,,,,
,,001,2022-04-28_20h08.05.802,classification_task,2021.2.3,MacIntel,59.84082341,5ec2cdfe3d68ea0ea7ca8909,626b377229c10585ec392f89,626b3a222f0aeed8afb3ff4b,,,,,,,,,,,,,,,,,,,,,,,l,1,"[""0.104"",""0.370"",""0.605"",""0.720""]","[1,0,1,1]",0,9,9,9,1,1,0,,,1,FALSE,2.1573,,,,,,,,,,,,,,,,,,,,,,,,,,,,,,
,,001,2022-04-28_20h08.05.802,classification_task,2021.2.3,MacIntel,59.84082341,5ec2cdfe3d68ea0ea7ca8909,626b377229c10585ec392f89,626b3a222f0aeed8afb3ff4b,,,,,,,,,,,,,,,,,,,,,,,a,1,"[""0.206"",""0.541"",""0.862"",""0.354""]","[1,1,1,0]",0,10,10,10,1,0,1,,,1,FALSE,2.2733,,,,,,,,,,,,,,,,,,,,,,,,,,,,,,
,,001,2022-04-28_20h08.05.802,classification_task,2021.2.3,MacIntel,59.84082341,5ec2cdfe3d68ea0ea7ca8909,626b377229c10585ec392f89,626b3a222f0aeed8afb3ff4b,,,,,,,,,,,,,,,,,,,,,,,a,1,"[""0.350"",""0.408"",""0.649"",""0.961""]","[0,1,1,1]",0,11,11,11,1,0,0,,,1,FALSE,6.5113,,,,,,,,,,,,,,,,,,,,,,,,,,,,,,
,,001,2022-04-28_20h08.05.802,classification_task,2021.2.3,MacIntel,59.84082341,5ec2cdfe3d68ea0ea7ca8909,626b377229c10585ec392f89,626b3a222f0aeed8afb3ff4b,,,,,,,,,,,,,,,,,,,,,,,l,0,"[""0.206"",""0.541"",""0.356"",""0.905""]","[1,1,0,1]",0,12,12,12,1,0,1,,,1,FALSE,2.3757,,,,,,,,,,,,,,,,,,,,,,,,,,,,,,
,,001,2022-04-28_20h08.05.802,classification_task,2021.2.3,MacIntel,59.84082341,5ec2cdfe3d68ea0ea7ca8909,626b377229c10585ec392f89,626b3a222f0aeed8afb3ff4b,,,,,,,,,,,,,,,,,,,,,,,l,1,"[""0.046"",""0.152"",""0.466"",""0.339""]","[1,1,1,0]",0,13,13,13,1,1,1,,,1,FALSE,3.4327,,,,,,,,,,,,,,,,,,,,,,,,,,,,,,
,,001,2022-04-28_20h08.05.802,classification_task,2021.2.3,MacIntel,59.84082341,5ec2cdfe3d68ea0ea7ca8909,626b377229c10585ec392f89,626b3a222f0aeed8afb3ff4b,,,,,,,,,,,,,,,,,,,,,,,l,1,"[""0.339"",""0.152"",""0.466"",""0.821""]","[0,1,1,1]",0,14,14,14,1,1,1,,,1,FALSE,2.6118,,,,,,,,,,,,,,,,,,,,,,,,,,,,,,
,,001,2022-04-28_20h08.05.802,classification_task,2021.2.3,MacIntel,59.84082341,5ec2cdfe3d68ea0ea7ca8909,626b377229c10585ec392f89,626b3a222f0aeed8afb3ff4b,,,,,,,,,,,,,,,,,,,,,,,a,1,"[""0.281"",""0.408"",""0.368"",""0.961""]","[1,1,0,1]",0,15,15,15,1,0,0,,,1,FALSE,1.9056,,,,,,,,,,,,,,,,,,,,,,,,,,,,,,
,,001,2022-04-28_20h08.05.802,classification_task,2021.2.3,MacIntel,59.84082341,5ec2cdfe3d68ea0ea7ca8909,626b377229c10585ec392f89,626b3a222f0aeed8afb3ff4b,,,,,,,,,,,,,,,,,,,,,,,l,1,"[""0.370"",""0.244"",""0.605"",""0.720""]","[0,1,1,1]",0,16,16,16,1,1,0,,,1,FALSE,2.1792,,,,,,,,,,,,,,,,,,,,,,,,,,,,,,
,,001,2022-04-28_20h08.05.802,classification_task,2021.2.3,MacIntel,59.84082341,5ec2cdfe3d68ea0ea7ca8909,626b377229c10585ec392f89,626b3a222f0aeed8afb3ff4b,,,,,,,,,,,,,,,,,,,,,,,l,1,"[""0.765"",""0.152"",""0.466"",""0.821""]","[0,1,1,1]",0,17,17,17,1,1,1,,,1,FALSE,2.5759,,,,,,,,,,,,,,,,,,,,,,,,,,,,,,
,,001,2022-04-28_20h08.05.802,classification_task,2021.2.3,MacIntel,59.84082341,5ec2cdfe3d68ea0ea7ca8909,626b377229c10585ec392f89,626b3a222f0aeed8afb3ff4b,,,,,,,,,,,,,,,,,,,,,,,l,1,"[""0.046"",""0.152"",""0.466"",""0.372""]","[1,1,1,0]",0,18,18,18,1,1,1,,,1,FALSE,2.4375,,,,,,,,,,,,,,,,,,,,,,,,,,,,,,
,,001,2022-04-28_20h08.05.802,classification_task,2021.2.3,MacIntel,59.84082341,5ec2cdfe3d68ea0ea7ca8909,626b377229c10585ec392f89,626b3a222f0aeed8afb3ff4b,,,,,,,,,,,,,,,,,,,,,,,a,1,"[""0.206"",""0.541"",""0.765"",""0.905""]","[1,1,0,1]",0,19,19,19,1,0,1,,,1,FALSE,2.694,,,,,,,,,,,,,,,,,,,,,,,,,,,,,,
,,001,2022-04-28_20h08.05.802,classification_task,2021.2.3,MacIntel,59.84082341,5ec2cdfe3d68ea0ea7ca8909,626b377229c10585ec392f89,626b3a222f0aeed8afb3ff4b,,,,,,,,,,,,,,,,,,,,,,,l,1,"[""0.104"",""0.372"",""0.605"",""0.720""]","[1,0,1,1]",0,20,20,20,1,1,0,,,1,FALSE,2.6424,,,,,,,,,,,,,,,,,,,,,,,,,,,,,,
,,001,2022-04-28_20h08.05.802,classification_task,2021.2.3,MacIntel,59.84082341,5ec2cdfe3d68ea0ea7ca8909,626b377229c10585ec392f89,626b3a222f0aeed8afb3ff4b,,,,,,,,,,,,,,,,,,,,,,,l,1,"[""0.104"",""0.244"",""0.362"",""0.720""]","[1,1,0,1]",0,21,21,21,1,1,0,,,1,FALSE,2.0947,,,,,,,,,,,,,,,,,,,,,,,,,,,,,,
,,001,2022-04-28_20h08.05.802,classification_task,2021.2.3,MacIntel,59.84082341,5ec2cdfe3d68ea0ea7ca8909,626b377229c10585ec392f89,626b3a222f0aeed8afb3ff4b,,,,,,,,,,,,,,,,,,,,,,,a,1,"[""0.206"",""0.541"",""0.862"",""0.316""]","[1,1,1,0]",0,22,22,22,1,0,1,,,1,FALSE,1.993,,,,,,,,,,,,,,,,,,,,,,,,,,,,,,
,,001,2022-04-28_20h08.05.802,classification_task,2021.2.3,MacIntel,59.84082341,5ec2cdfe3d68ea0ea7ca8909,626b377229c10585ec392f89,626b3a222f0aeed8afb3ff4b,,,,,,,,,,,,,,,,,,,,,,,a,1,"[""0.281"",""0.408"",""0.503"",""0.961""]","[1,1,0,1]",0,23,23,23,1,0,0,,,1,FALSE,2.1173,,,,,,,,,,,,,,,,,,,,,,,,,,,,,,
,,001,2022-04-28_20h08.05.802,classification_task,2021.2.3,MacIntel,59.84082341,5ec2cdfe3d68ea0ea7ca8909,626b377229c10585ec392f89,626b3a222f0aeed8afb3ff4b,,,,,,,,,,,,,,,,,,,,,,,a,1,"[""0.368"",""0.541"",""0.862"",""0.905""]","[0,1,1,1]",0,24,24,24,1,0,1,,,1,FALSE,4.5992,,,,,,,,,,,,,,,,,,,,,,,,,,,,,,
,,001,2022-04-28_20h08.05.802,classification_task,2021.2.3,MacIntel,59.84082341,5ec2cdfe3d68ea0ea7ca8909,626b377229c10585ec392f89,626b3a222f0aeed8afb3ff4b,,,,,,,,,,,,,,,,,,,,,,,a,1,"[""0.281"",""0.408"",""0.649"",""0.354""]","[1,1,1,0]",0,25,25,25,1,0,0,,,1,FALSE,2.0583,,,,,,,,,,,,,,,,,,,,,,,,,,,,,,
,,001,2022-04-28_20h08.05.802,classification_task,2021.2.3,MacIntel,59.84082341,5ec2cdfe3d68ea0ea7ca8909,626b377229c10585ec392f89,626b3a222f0aeed8afb3ff4b,,,,,,,,,,,,,,,,,,,,,,,a,1,"[""0.281"",""0.503"",""0.649"",""0.961""]","[1,0,1,1]",0,26,26,26,1,0,0,,,1,FALSE,1.8424,,,,,,,,,,,,,,,,,,,,,,,,,,,,,,
,,001,2022-04-28_20h08.05.802,classification_task,2021.2.3,MacIntel,59.84082341,5ec2cdfe3d68ea0ea7ca8909,626b377229c10585ec392f89,626b3a222f0aeed8afb3ff4b,,,,,,,,,,,,,,,,,,,,,,,a,1,"[""0.206"",""0.368"",""0.862"",""0.905""]","[1,0,1,1]",0,27,27,27,1,0,1,,,1,FALSE,1.8247,,,,,,,,,,,,,,,,,,,,,,,,,,,,,,
,,001,2022-04-28_20h08.05.802,classification_task,2021.2.3,MacIntel,59.84082341,5ec2cdfe3d68ea0ea7ca8909,626b377229c10585ec392f89,626b3a222f0aeed8afb3ff4b,,,,,,,,,,,,,,,,,,,,,,,l,1,"[""0.046"",""0.350"",""0.466"",""0.821""]","[1,0,1,1]",0,28,28,28,1,1,1,,,1,FALSE,1.7547,,,,,,,,,,,,,,,,,,,,,,,,,,,,,,
,,001,2022-04-28_20h08.05.802,classification_task,2021.2.3,MacIntel,59.84082341,5ec2cdfe3d68ea0ea7ca8909,626b377229c10585ec392f89,626b3a222f0aeed8afb3ff4b,,,,,,,,,,,,,,,,,,,,,,,a,1,"[""0.339"",""0.408"",""0.649"",""0.961""]","[0,1,1,1]",0,29,29,29,1,0,0,,,1,FALSE,2.2361,,,,,,,,,,,,,,,,,,,,,,,,,,,,,,
,,001,2022-04-28_20h08.05.802,classification_task,2021.2.3,MacIntel,59.84082341,5ec2cdfe3d68ea0ea7ca8909,626b377229c10585ec392f89,626b3a222f0aeed8afb3ff4b,,,,,,,,,,,,,,,,,,,,,,,l,1,"[""0.046"",""0.152"",""0.345"",""0.821""]","[1,1,0,1]",0,30,30,30,1,1,1,,,1,FALSE,1.7917,,,,,,,,,,,,,,,,,,,,,,,,,,,,,,
,,001,2022-04-28_20h08.05.802,classification_task,2021.2.3,MacIntel,59.84082341,5ec2cdfe3d68ea0ea7ca8909,626b377229c10585ec392f89,626b3a222f0aeed8afb3ff4b,,,,,,,,,,,,,,,,,,,,,,,l,1,"[""0.104"",""0.244"",""0.605"",""0.350""]","[1,1,1,0]",0,31,31,31,1,1,0,,,1,FALSE,1.7043,,,,,,,,,,,,,,,,,,,,,,,,,,,,,,
,,001,2022-04-28_20h08.05.802,classification_task,2021.2.3,MacIntel,59.84082341,5ec2cdfe3d68ea0ea7ca8909,626b377229c10585ec392f89,626b3a222f0aeed8afb3ff4b,,,,,,,,,,,,,,,,,,,,,,,a,0,"[""0.104"",""0.244"",""0.344"",""0.720""]","[1,1,0,1]",0,32,32,32,1,1,0,,,1,FALSE,4.0509,,,,,,,,,,,,,,,,,,,,,,,,,,,,,,
,,001,2022-04-28_20h08.05.802,classification_task,2021.2.3,MacIntel,59.84082341,5ec2cdfe3d68ea0ea7ca8909,626b377229c10585ec392f89,626b3a222f0aeed8afb3ff4b,,,,,,,,,,,,,,,,,,,,,,,a,0,"[""0.046"",""0.152"",""0.335"",""0.821""]","[1,1,0,1]",0,33,33,33,1,1,1,,,1,FALSE,2.3482,,,,,,,,,,,,,,,,,,,,,,,,,,,,,,
,,001,2022-04-28_20h08.05.802,classification_task,2021.2.3,MacIntel,59.84082341,5ec2cdfe3d68ea0ea7ca8909,626b377229c10585ec392f89,626b3a222f0aeed8afb3ff4b,,,,,,,,,,,,,,,,,,,,,,,l,1,"[""0.350"",""0.152"",""0.466"",""0.821""]","[0,1,1,1]",0,34,34,34,1,1,1,,,1,FALSE,1.3251,,,,,,,,,,,,,,,,,,,,,,,,,,,,,,
,,001,2022-04-28_20h08.05.802,classification_task,2021.2.3,MacIntel,59.84082341,5ec2cdfe3d68ea0ea7ca8909,626b377229c10585ec392f89,626b3a222f0aeed8afb3ff4b,,,,,,,,,,,,,,,,,,,,,,,a,1,"[""0.281"",""0.408"",""0.649"",""0.316""]","[1,1,1,0]",0,35,35,35,1,0,0,,,1,FALSE,0.97,,,,,,,,,,,,,,,,,,,,,,,,,,,,,,
,,001,2022-04-28_20h08.05.802,classification_task,2021.2.3,MacIntel,59.84082341,5ec2cdfe3d68ea0ea7ca8909,626b377229c10585ec392f89,626b3a222f0aeed8afb3ff4b,,,,,,,,,,,,,,,,,,,,,,,l,0,"[""0.206"",""0.541"",""0.370"",""0.905""]","[1,1,0,1]",0,36,36,36,1,0,1,,,1,FALSE,0.786,,,,,,,,,,,,,,,,,,,,,,,,,,,,,,
,,001,2022-04-28_20h08.05.802,classification_task,2021.2.3,MacIntel,59.84082341,5ec2cdfe3d68ea0ea7ca8909,626b377229c10585ec392f89,626b3a222f0aeed8afb3ff4b,,,,,,,,,,,,,,,,,,,,,,,a,1,"[""0.281"",""0.408"",""0.350"",""0.961""]","[1,1,0,1]",0,37,37,37,1,0,0,,,1,FALSE,2.8422,,,,,,,,,,,,,,,,,,,,,,,,,,,,,,
,,001,2022-04-28_20h08.05.802,classification_task,2021.2.3,MacIntel,59.84082341,5ec2cdfe3d68ea0ea7ca8909,626b377229c10585ec392f89,626b3a222f0aeed8afb3ff4b,,,,,,,,,,,,,,,,,,,,,,,a,1,"[""0.281"",""0.350"",""0.649"",""0.961""]","[1,0,1,1]",0,38,38,38,1,0,0,,,1,FALSE,1.7144,,,,,,,,,,,,,,,,,,,,,,,,,,,,,,
,,001,2022-04-28_20h08.05.802,classification_task,2021.2.3,MacIntel,59.84082341,5ec2cdfe3d68ea0ea7ca8909,626b377229c10585ec392f89,626b3a222f0aeed8afb3ff4b,,,,,,,,,,,,,,,,,,,,,,,l,0,"[""0.345"",""0.541"",""0.862"",""0.905""]","[0,1,1,1]",0,39,39,39,1,0,1,,,1,FALSE,2.3228,,,,,,,,,,,,,,,,,,,,,,,,,,,,,,
,,001,2022-04-28_20h08.05.802,classification_task,2021.2.3,MacIntel,59.84082341,5ec2cdfe3d68ea0ea7ca8909,626b377229c10585ec392f89,626b3a222f0aeed8afb3ff4b,,,,,,,,,,,,,,,,,,,,,,,a,1,"[""0.206"",""0.345"",""0.862"",""0.905""]","[1,0,1,1]",0,40,40,40,1,0,1,,,1,FALSE,1.6114,,,,,,,,,,,,,,,,,,,,,,,,,,,,,,
,,001,2022-04-28_20h08.05.802,classification_task,2021.2.3,MacIntel,59.84082341,5ec2cdfe3d68ea0ea7ca8909,626b377229c10585ec392f89,626b3a222f0aeed8afb3ff4b,,,,,,,,,,,,,,,,,,,,,,,l,1,"[""0.104"",""0.244"",""0.605"",""0.339""]","[1,1,1,0]",0,41,41,41,1,1,0,,,1,FALSE,2.3404,,,,,,,,,,,,,,,,,,,,,,,,,,,,,,
,,001,2022-04-28_20h08.05.802,classification_task,2021.2.3,MacIntel,59.84082341,5ec2cdfe3d68ea0ea7ca8909,626b377229c10585ec392f89,626b3a222f0aeed8afb3ff4b,,,,,,,,,,,,,,,,,,,,,,,l,1,"[""0.104"",""0.338"",""0.605"",""0.720""]","[1,0,1,1]",0,42,42,42,1,1,0,,,1,FALSE,1.0576,,,,,,,,,,,,,,,,,,,,,,,,,,,,,,
,,001,2022-04-28_20h08.05.802,classification_task,2021.2.3,MacIntel,59.84082341,5ec2cdfe3d68ea0ea7ca8909,626b377229c10585ec392f89,626b3a222f0aeed8afb3ff4b,,,,,,,,,,,,,,,,,,,,,,,a,1,"[""0.206"",""0.541"",""0.862"",""0.316""]","[1,1,1,0]",0,43,43,43,1,0,1,,,1,FALSE,1.2558,,,,,,,,,,,,,,,,,,,,,,,,,,,,,,
,,001,2022-04-28_20h08.05.802,classification_task,2021.2.3,MacIntel,59.84082341,5ec2cdfe3d68ea0ea7ca8909,626b377229c10585ec392f89,626b3a222f0aeed8afb3ff4b,,,,,,,,,,,,,,,,,,,,,,,a,1,"[""0.345"",""0.408"",""0.649"",""0.961""]","[0,1,1,1]",0,44,44,44,1,0,0,,,1,FALSE,2.0591,,,,,,,,,,,,,,,,,,,,,,,,,,,,,,
,,001,2022-04-28_20h08.05.802,classification_task,2021.2.3,MacIntel,59.84082341,5ec2cdfe3d68ea0ea7ca8909,626b377229c10585ec392f89,626b3a222f0aeed8afb3ff4b,,,,,,,,,,,,,,,,,,,,,,,l,1,"[""0.046"",""0.152"",""0.466"",""0.316""]","[1,1,1,0]",0,45,45,45,1,1,1,,,1,FALSE,1.1761,,,,,,,,,,,,,,,,,,,,,,,,,,,,,,
,,001,2022-04-28_20h08.05.802,classification_task,2021.2.3,MacIntel,59.84082341,5ec2cdfe3d68ea0ea7ca8909,626b377229c10585ec392f89,626b3a222f0aeed8afb3ff4b,,,,,,,,,,,,,,,,,,,,,,,a,0,"[""0.335"",""0.244"",""0.605"",""0.720""]","[0,1,1,1]",0,46,46,46,1,1,0,,,1,FALSE,0.9367,,,,,,,,,,,,,,,,,,,,,,,,,,,,,,
,,001,2022-04-28_20h08.05.802,classification_task,2021.2.3,MacIntel,59.84082341,5ec2cdfe3d68ea0ea7ca8909,626b377229c10585ec392f89,626b3a222f0aeed8afb3ff4b,,,,,,,,,,,,,,,,,,,,,,,a,0,"[""0.046"",""0.338"",""0.466"",""0.821""]","[1,0,1,1]",0,47,47,47,1,1,1,,,1,FALSE,1.406,,,,,,,,,,,,,,,,,,,,,,,,,,,,,,
,,001,2022-04-28_20h08.05.802,classification_task,2021.2.3,MacIntel,59.84082341,5ec2cdfe3d68ea0ea7ca8909,626b377229c10585ec392f89,626b3a222f0aeed8afb3ff4b,,,,,,,,,,,,,,,,,,,,,,,a,1,"[""0.206"",""0.541"",""0.862"",""0.344""]","[1,1,1,0]",0,48,48,48,1,0,1,,,1,FALSE,1.0727,,,,,,,,,,,,,,,,,,,,,,,,,,,,,,
,,001,2022-04-28_20h08.05.802,classification_task,2021.2.3,MacIntel,59.84082341,5ec2cdfe3d68ea0ea7ca8909,626b377229c10585ec392f89,626b3a222f0aeed8afb3ff4b,,,,,,,,,,,,,,,,,,,,,,,l,1,"[""0.046"",""0.152"",""0.368"",""0.821""]","[1,1,0,1]",0,49,49,49,1,1,1,,,1,FALSE,0.8697,,,,,,,,,,,,,,,,,,,,,,,,,,,,,,
,,001,2022-04-28_20h08.05.802,classification_task,2021.2.3,MacIntel,59.84082341,5ec2cdfe3d68ea0ea7ca8909,626b377229c10585ec392f89,626b3a222f0aeed8afb3ff4b,,,,,,,,,,,,,,,,,,,,,,,a,1,"[""0.206"",""0.370"",""0.862"",""0.905""]","[1,0,1,1]",0,50,50,50,1,0,1,,,1,FALSE,0.9869,,,,,,,,,,,,,,,,,,,,,,,,,,,,,,
,,001,2022-04-28_20h08.05.802,classification_task,2021.2.3,MacIntel,59.84082341,5ec2cdfe3d68ea0ea7ca8909,626b377229c10585ec392f89,626b3a222f0aeed8afb3ff4b,,,,,,,,,,,,,,,,,,,,,,,l,1,"[""0.104"",""0.503"",""0.605"",""0.720""]","[1,0,1,1]",0,51,51,51,1,1,0,,,1,FALSE,0.8369,,,,,,,,,,,,,,,,,,,,,,,,,,,,,,
,,001,2022-04-28_20h08.05.802,classification_task,2021.2.3,MacIntel,59.84082341,5ec2cdfe3d68ea0ea7ca8909,626b377229c10585ec392f89,626b3a222f0aeed8afb3ff4b,,,,,,,,,,,,,,,,,,,,,,,a,1,"[""0.339"",""0.408"",""0.649"",""0.961""]","[0,1,1,1]",0,52,52,52,1,0,0,,,1,FALSE,1.5399,,,,,,,,,,,,,,,,,,,,,,,,,,,,,,
,,001,2022-04-28_20h08.05.802,classification_task,2021.2.3,MacIntel,59.84082341,5ec2cdfe3d68ea0ea7ca8909,626b377229c10585ec392f89,626b3a222f0aeed8afb3ff4b,,,,,,,,,,,,,,,,,,,,,,,a,1,"[""0.281"",""0.408"",""0.356"",""0.961""]","[1,1,0,1]",0,53,53,53,1,0,0,,,1,FALSE,0.7423,,,,,,,,,,,,,,,,,,,,,,,,,,,,,,
,,001,2022-04-28_20h08.05.802,classification_task,2021.2.3,MacIntel,59.84082341,5ec2cdfe3d68ea0ea7ca8909,626b377229c10585ec392f89,626b3a222f0aeed8afb3ff4b,,,,,,,,,,,,,,,,,,,,,,,l,1,"[""0.104"",""0.244"",""0.503"",""0.720""]","[1,1,0,1]",0,54,54,54,1,1,0,,,1,FALSE,1.0031,,,,,,,,,,,,,,,,,,,,,,,,,,,,,,
,,001,2022-04-28_20h08.05.802,classification_task,2021.2.3,MacIntel,59.84082341,5ec2cdfe3d68ea0ea7ca8909,626b377229c10585ec392f89,626b3a222f0aeed8afb3ff4b,,,,,,,,,,,,,,,,,,,,,,,l,1,"[""0.046"",""0.354"",""0.466"",""0.821""]","[1,0,1,1]",0,55,55,55,1,1,1,,,1,FALSE,0.8352,,,,,,,,,,,,,,,,,,,,,,,,,,,,,,
,,001,2022-04-28_20h08.05.802,classification_task,2021.2.3,MacIntel,59.84082341,5ec2cdfe3d68ea0ea7ca8909,626b377229c10585ec392f89,626b3a222f0aeed8afb3ff4b,,,,,,,,,,,,,,,,,,,,,,,l,1,"[""0.046"",""0.152"",""0.466"",""0.370""]","[1,1,1,0]",0,56,56,56,1,1,1,,,1,FALSE,0.6867,,,,,,,,,,,,,,,,,,,,,,,,,,,,,,
,,001,2022-04-28_20h08.05.802,classification_task,2021.2.3,MacIntel,59.84082341,5ec2cdfe3d68ea0ea7ca8909,626b377229c10585ec392f89,626b3a222f0aeed8afb3ff4b,,,,,,,,,,,,,,,,,,,,,,,l,0,"[""0.206"",""0.541"",""0.345"",""0.905""]","[1,1,0,1]",0,57,57,57,1,0,1,,,1,FALSE,0.9192,,,,,,,,,,,,,,,,,,,,,,,,,,,,,,
,,001,2022-04-28_20h08.05.802,classification_task,2021.2.3,MacIntel,59.84082341,5ec2cdfe3d68ea0ea7ca8909,626b377229c10585ec392f89,626b3a222f0aeed8afb3ff4b,,,,,,,,,,,,,,,,,,,,,,,a,0,"[""0.104"",""0.244"",""0.605"",""0.370""]","[1,1,1,0]",0,58,58,58,1,1,0,,,1,FALSE,0.6853,,,,,,,,,,,,,,,,,,,,,,,,,,,,,,
,,001,2022-04-28_20h08.05.802,classification_task,2021.2.3,MacIntel,59.84082341,5ec2cdfe3d68ea0ea7ca8909,626b377229c10585ec392f89,626b3a222f0aeed8afb3ff4b,,,,,,,,,,,,,,,,,,,,,,,a,1,"[""0.281"",""0.356"",""0.649"",""0.961""]","[1,0,1,1]",0,59,59,59,1,0,0,,,1,FALSE,0.6682,,,,,,,,,,,,,,,,,,,,,,,,,,,,,,
,,001,2022-04-28_20h08.05.802,classification_task,2021.2.3,MacIntel,59.84082341,5ec2cdfe3d68ea0ea7ca8909,626b377229c10585ec392f89,626b3a222f0aeed8afb3ff4b,,,,,,,,,,,,,,,,,,,,,,,l,1,"[""0.765"",""0.152"",""0.466"",""0.821""]","[0,1,1,1]",0,60,60,60,1,1,1,,,1,FALSE,2.3892,,,,,,,,,,,,,,,,,,,,,,,,,,,,,,
,,001,2022-04-28_20h08.05.802,classification_task,2021.2.3,MacIntel,59.84082341,5ec2cdfe3d68ea0ea7ca8909,626b377229c10585ec392f89,626b3a222f0aeed8afb3ff4b,,,,,,,,,,,,,,,,,,,,,,,a,1,"[""0.362"",""0.541"",""0.862"",""0.905""]","[0,1,1,1]",0,61,61,61,1,0,1,,,1,FALSE,1.1213,,,,,,,,,,,,,,,,,,,,,,,,,,,,,,
,,001,2022-04-28_20h08.05.802,classification_task,2021.2.3,MacIntel,59.84082341,5ec2cdfe3d68ea0ea7ca8909,626b377229c10585ec392f89,626b3a222f0aeed8afb3ff4b,,,,,,,,,,,,,,,,,,,,,,,a,1,"[""0.281"",""0.408"",""0.649"",""0.370""]","[1,1,1,0]",0,62,62,62,1,0,0,,,1,FALSE,0.8337,,,,,,,,,,,,,,,,,,,,,,,,,,,,,,
,,001,2022-04-28_20h08.05.802,classification_task,2021.2.3,MacIntel,59.84082341,5ec2cdfe3d68ea0ea7ca8909,626b377229c10585ec392f89,626b3a222f0aeed8afb3ff4b,,,,,,,,,,,,,,,,,,,,,,,a,0,"[""0.368"",""0.244"",""0.605"",""0.720""]","[0,1,1,1]",0,63,63,63,1,1,0,,,1,FALSE,0.8394,,,,,,,,,,,,,,,,,,,,,,,,,,,,,,
,,001,2022-04-28_20h08.05.802,classification_task,2021.2.3,MacIntel,59.84082341,5ec2cdfe3d68ea0ea7ca8909,626b377229c10585ec392f89,626b3a222f0aeed8afb3ff4b,,,,,,,,,,,,,,,,,,,,,,,,,,,,,,,,,,,,,,,0, ,,0,4.978298611,346.714,0,0,0,0,1,2,1,,,,,,,,,,,,,,,,,
,,001,2022-04-28_20h08.05.802,classification_task,2021.2.3,MacIntel,59.84082341,5ec2cdfe3d68ea0ea7ca8909,626b377229c10585ec392f89,626b3a222f0aeed8afb3ff4b,,,,,,,,,,,,,,,,,,,,,,,,,,,,,,,,,,,,,,,1,  ,,0,6.025591564,368.7496,0,0,0,0,1,2,1,,,,,,,,,,,,,,,,,
,,001,2022-04-28_20h08.05.802,classification_task,2021.2.3,MacIntel,59.84082341,5ec2cdfe3d68ea0ea7ca8909,626b377229c10585ec392f89,626b3a222f0aeed8afb3ff4b,,,,,,,,,,,,,,,,,,,,,,,,,,,,,,,,,,,,,,,2,  ,,0,0.065632349,364.7926,0,0,0,0,1,2,1,,,,,,,,,,,,,,,,,
,,001,2022-04-28_20h08.05.802,classification_task,2021.2.3,MacIntel,59.84082341,5ec2cdfe3d68ea0ea7ca8909,626b377229c10585ec392f89,626b3a222f0aeed8afb3ff4b,,,,,,,,,,,,,,,,,,,,,,,,,,,,,,,,,,,,,,,,,,,,,0,0,0,0,1,,1,,,,,,,,,,,,,,,,,
,,001,2022-04-28_20h08.05.802,classification_task,2021.2.3,MacIntel,59.84082341,5ec2cdfe3d68ea0ea7ca8909,626b377229c10585ec392f89,626b3a222f0aeed8afb3ff4b,,,,,,,,,,,,,,,,,,,,,space,6.4745,a,0,"[""0.316"",""0.244"",""0.605"",""0.720""]","[0,1,1,1]",0,0,0,0,1,1,0,,,1,FALSE,3.9219,,,,,,,,,,,,,,,,,,,,,,,,,,,,,,
,,001,2022-04-28_20h08.05.802,classification_task,2021.2.3,MacIntel,59.84082341,5ec2cdfe3d68ea0ea7ca8909,626b377229c10585ec392f89,626b3a222f0aeed8afb3ff4b,,,,,,,,,,,,,,,,,,,,,,,a,0,"[""0.046"",""0.152"",""0.765"",""0.821""]","[1,1,0,1]",0,1,1,1,1,1,1,,,1,FALSE,2.6119,,,,,,,,,,,,,,,,,,,,,,,,,,,,,,
,,001,2022-04-28_20h08.05.802,classification_task,2021.2.3,MacIntel,59.84082341,5ec2cdfe3d68ea0ea7ca8909,626b377229c10585ec392f89,626b3a222f0aeed8afb3ff4b,,,,,,,,,,,,,,,,,,,,,,,l,1,"[""0.104"",""0.244"",""0.368"",""0.720""]","[1,1,0,1]",0,2,2,2,1,1,0,,,1,FALSE,1.8106,,,,,,,,,,,,,,,,,,,,,,,,,,,,,,
,,001,2022-04-28_20h08.05.802,classification_task,2021.2.3,MacIntel,59.84082341,5ec2cdfe3d68ea0ea7ca8909,626b377229c10585ec392f89,626b3a222f0aeed8afb3ff4b,,,,,,,,,,,,,,,,,,,,,,,l,1,"[""0.046"",""0.152"",""0.466"",""0.370""]","[1,1,1,0]",0,3,3,3,1,1,1,,,1,FALSE,3.1817,,,,,,,,,,,,,,,,,,,,,,,,,,,,,,
,,001,2022-04-28_20h08.05.802,classification_task,2021.2.3,MacIntel,59.84082341,5ec2cdfe3d68ea0ea7ca8909,626b377229c10585ec392f89,626b3a222f0aeed8afb3ff4b,,,,,,,,,,,,,,,,,,,,,,,l,1,"[""0.362"",""0.152"",""0.466"",""0.821""]","[0,1,1,1]",0,4,4,4,1,1,1,,,1,FALSE,1.5265,,,,,,,,,,,,,,,,,,,,,,,,,,,,,,
,,001,2022-04-28_20h08.05.802,classification_task,2021.2.3,MacIntel,59.84082341,5ec2cdfe3d68ea0ea7ca8909,626b377229c10585ec392f89,626b3a222f0aeed8afb3ff4b,,,,,,,,,,,,,,,,,,,,,,,l,0,"[""0.206"",""0.541"",""0.370"",""0.905""]","[1,1,0,1]",0,5,5,5,1,0,1,,,1,FALSE,2.6406,,,,,,,,,,,,,,,,,,,,,,,,,,,,,,
,,001,2022-04-28_20h08.05.802,classification_task,2021.2.3,MacIntel,59.84082341,5ec2cdfe3d68ea0ea7ca8909,626b377229c10585ec392f89,626b3a222f0aeed8afb3ff4b,,,,,,,,,,,,,,,,,,,,,,,a,0,"[""0.046"",""0.362"",""0.466"",""0.821""]","[1,0,1,1]",0,6,6,6,1,1,1,,,1,FALSE,1.0084,,,,,,,,,,,,,,,,,,,,,,,,,,,,,,
,,001,2022-04-28_20h08.05.802,classification_task,2021.2.3,MacIntel,59.84082341,5ec2cdfe3d68ea0ea7ca8909,626b377229c10585ec392f89,626b3a222f0aeed8afb3ff4b,,,,,,,,,,,,,,,,,,,,,,,a,1,"[""0.354"",""0.408"",""0.649"",""0.961""]","[0,1,1,1]",0,7,7,7,1,0,0,,,1,FALSE,1.4362,,,,,,,,,,,,,,,,,,,,,,,,,,,,,,
,,001,2022-04-28_20h08.05.802,classification_task,2021.2.3,MacIntel,59.84082341,5ec2cdfe3d68ea0ea7ca8909,626b377229c10585ec392f89,626b3a222f0aeed8afb3ff4b,,,,,,,,,,,,,,,,,,,,,,,l,1,"[""0.104"",""0.244"",""0.605"",""0.316""]","[1,1,1,0]",0,8,8,8,1,1,0,,,1,FALSE,0.9909,,,,,,,,,,,,,,,,,,,,,,,,,,,,,,
,,001,2022-04-28_20h08.05.802,classification_task,2021.2.3,MacIntel,59.84082341,5ec2cdfe3d68ea0ea7ca8909,626b377229c10585ec392f89,626b3a222f0aeed8afb3ff4b,,,,,,,,,,,,,,,,,,,,,,,l,0,"[""0.206"",""0.541"",""0.862"",""0.316""]","[1,1,1,0]",0,9,9,9,1,0,1,,,1,FALSE,1.0356,,,,,,,,,,,,,,,,,,,,,,,,,,,,,,
,,001,2022-04-28_20h08.05.802,classification_task,2021.2.3,MacIntel,59.84082341,5ec2cdfe3d68ea0ea7ca8909,626b377229c10585ec392f89,626b3a222f0aeed8afb3ff4b,,,,,,,,,,,,,,,,,,,,,,,l,0,"[""0.206"",""0.350"",""0.862"",""0.905""]","[1,0,1,1]",0,10,10,10,1,0,1,,,1,FALSE,1.1228,,,,,,,,,,,,,,,,,,,,,,,,,,,,,,
,,001,2022-04-28_20h08.05.802,classification_task,2021.2.3,MacIntel,59.84082341,5ec2cdfe3d68ea0ea7ca8909,626b377229c10585ec392f89,626b3a222f0aeed8afb3ff4b,,,,,,,,,,,,,,,,,,,,,,,a,1,"[""0.281"",""0.408"",""0.356"",""0.961""]","[1,1,0,1]",0,11,11,11,1,0,0,,,1,FALSE,2.0069,,,,,,,,,,,,,,,,,,,,,,,,,,,,,,
,,001,2022-04-28_20h08.05.802,classification_task,2021.2.3,MacIntel,59.84082341,5ec2cdfe3d68ea0ea7ca8909,626b377229c10585ec392f89,626b3a222f0aeed8afb3ff4b,,,,,,,,,,,,,,,,,,,,,,,a,1,"[""0.281"",""0.362"",""0.649"",""0.961""]","[1,0,1,1]",0,12,12,12,1,0,0,,,1,FALSE,0.6284,,,,,,,,,,,,,,,,,,,,,,,,,,,,,,
,,001,2022-04-28_20h08.05.802,classification_task,2021.2.3,MacIntel,59.84082341,5ec2cdfe3d68ea0ea7ca8909,626b377229c10585ec392f89,626b3a222f0aeed8afb3ff4b,,,,,,,,,,,,,,,,,,,,,,,a,1,"[""0.281"",""0.408"",""0.649"",""0.335""]","[1,1,1,0]",0,13,13,13,1,0,0,,,1,FALSE,1.0222,,,,,,,,,,,,,,,,,,,,,,,,,,,,,,
,,001,2022-04-28_20h08.05.802,classification_task,2021.2.3,MacIntel,59.84082341,5ec2cdfe3d68ea0ea7ca8909,626b377229c10585ec392f89,626b3a222f0aeed8afb3ff4b,,,,,,,,,,,,,,,,,,,,,,,l,0,"[""0.316"",""0.541"",""0.862"",""0.905""]","[0,1,1,1]",0,14,14,14,1,0,1,,,1,FALSE,1.7384,,,,,,,,,,,,,,,,,,,,,,,,,,,,,,
,,001,2022-04-28_20h08.05.802,classification_task,2021.2.3,MacIntel,59.84082341,5ec2cdfe3d68ea0ea7ca8909,626b377229c10585ec392f89,626b3a222f0aeed8afb3ff4b,,,,,,,,,,,,,,,,,,,,,,,l,1,"[""0.104"",""0.370"",""0.605"",""0.720""]","[1,0,1,1]",0,15,15,15,1,1,0,,,1,FALSE,0.9752,,,,,,,,,,,,,,,,,,,,,,,,,,,,,,
,,001,2022-04-28_20h08.05.802,classification_task,2021.2.3,MacIntel,59.84082341,5ec2cdfe3d68ea0ea7ca8909,626b377229c10585ec392f89,626b3a222f0aeed8afb3ff4b,,,,,,,,,,,,,,,,,,,,,,,l,1,"[""0.104"",""0.244"",""0.339"",""0.720""]","[1,1,0,1]",0,16,16,16,1,1,0,,,1,FALSE,0.6855,,,,,,,,,,,,,,,,,,,,,,,,,,,,,,
,,001,2022-04-28_20h08.05.802,classification_task,2021.2.3,MacIntel,59.84082341,5ec2cdfe3d68ea0ea7ca8909,626b377229c10585ec392f89,626b3a222f0aeed8afb3ff4b,,,,,,,,,,,,,,,,,,,,,,,a,0,"[""0.046"",""0.362"",""0.466"",""0.821""]","[1,0,1,1]",0,17,17,17,1,1,1,,,1,FALSE,4.0283,,,,,,,,,,,,,,,,,,,,,,,,,,,,,,
,,001,2022-04-28_20h08.05.802,classification_task,2021.2.3,MacIntel,59.84082341,5ec2cdfe3d68ea0ea7ca8909,626b377229c10585ec392f89,626b3a222f0aeed8afb3ff4b,,,,,,,,,,,,,,,,,,,,,,,a,1,"[""0.350"",""0.541"",""0.862"",""0.905""]","[0,1,1,1]",0,18,18,18,1,0,1,,,1,FALSE,1.1761,,,,,,,,,,,,,,,,,,,,,,,,,,,,,,
,,001,2022-04-28_20h08.05.802,classification_task,2021.2.3,MacIntel,59.84082341,5ec2cdfe3d68ea0ea7ca8909,626b377229c10585ec392f89,626b3a222f0aeed8afb3ff4b,,,,,,,,,,,,,,,,,,,,,,,a,1,"[""0.281"",""0.408"",""0.316"",""0.961""]","[1,1,0,1]",0,19,19,19,1,0,0,,,1,FALSE,0.7893,,,,,,,,,,,,,,,,,,,,,,,,,,,,,,
,,001,2022-04-28_20h08.05.802,classification_task,2021.2.3,MacIntel,59.84082341,5ec2cdfe3d68ea0ea7ca8909,626b377229c10585ec392f89,626b3a222f0aeed8afb3ff4b,,,,,,,,,,,,,,,,,,,,,,,a,1,"[""0.281"",""0.408"",""0.649"",""0.344""]","[1,1,1,0]",0,20,20,20,1,0,0,,,1,FALSE,0.6205,,,,,,,,,,,,,,,,,,,,,,,,,,,,,,
,,001,2022-04-28_20h08.05.802,classification_task,2021.2.3,MacIntel,59.84082341,5ec2cdfe3d68ea0ea7ca8909,626b377229c10585ec392f89,626b3a222f0aeed8afb3ff4b,,,,,,,,,,,,,,,,,,,,,,,a,1,"[""0.206"",""0.541"",""0.344"",""0.905""]","[1,1,0,1]",0,21,21,21,1,0,1,,,1,FALSE,1.3215,,,,,,,,,,,,,,,,,,,,,,,,,,,,,,
,,001,2022-04-28_20h08.05.802,classification_task,2021.2.3,MacIntel,59.84082341,5ec2cdfe3d68ea0ea7ca8909,626b377229c10585ec392f89,626b3a222f0aeed8afb3ff4b,,,,,,,,,,,,,,,,,,,,,,,a,1,"[""0.206"",""0.335"",""0.862"",""0.905""]","[1,0,1,1]",0,22,22,22,1,0,1,,,1,FALSE,0.7517,,,,,,,,,,,,,,,,,,,,,,,,,,,,,,
,,001,2022-04-28_20h08.05.802,classification_task,2021.2.3,MacIntel,59.84082341,5ec2cdfe3d68ea0ea7ca8909,626b377229c10585ec392f89,626b3a222f0aeed8afb3ff4b,,,,,,,,,,,,,,,,,,,,,,,l,1,"[""0.350"",""0.152"",""0.466"",""0.821""]","[0,1,1,1]",0,23,23,23,1,1,1,,,1,FALSE,0.868,,,,,,,,,,,,,,,,,,,,,,,,,,,,,,
,,001,2022-04-28_20h08.05.802,classification_task,2021.2.3,MacIntel,59.84082341,5ec2cdfe3d68ea0ea7ca8909,626b377229c10585ec392f89,626b3a222f0aeed8afb3ff4b,,,,,,,,,,,,,,,,,,,,,,,a,1,"[""0.281"",""0.370"",""0.649"",""0.961""]","[1,0,1,1]",0,24,24,24,1,0,0,,,1,FALSE,0.8875,,,,,,,,,,,,,,,,,,,,,,,,,,,,,,
,,001,2022-04-28_20h08.05.802,classification_task,2021.2.3,MacIntel,59.84082341,5ec2cdfe3d68ea0ea7ca8909,626b377229c10585ec392f89,626b3a222f0aeed8afb3ff4b,,,,,,,,,,,,,,,,,,,,,,,l,1,"[""0.104"",""0.244"",""0.605"",""0.372""]","[1,1,1,0]",0,25,25,25,1,1,0,,,1,FALSE,0.8212,,,,,,,,,,,,,,,,,,,,,,,,,,,,,,
,,001,2022-04-28_20h08.05.802,classification_task,2021.2.3,MacIntel,59.84082341,5ec2cdfe3d68ea0ea7ca8909,626b377229c10585ec392f89,626b3a222f0aeed8afb3ff4b,,,,,,,,,,,,,,,,,,,,,,,l,1,"[""0.104"",""0.765"",""0.605"",""0.720""]","[1,0,1,1]",0,26,26,26,1,1,0,,,1,FALSE,0.6513,,,,,,,,,,,,,,,,,,,,,,,,,,,,,,
,,001,2022-04-28_20h08.05.802,classification_task,2021.2.3,MacIntel,59.84082341,5ec2cdfe3d68ea0ea7ca8909,626b377229c10585ec392f89,626b3a222f0aeed8afb3ff4b,,,,,,,,,,,,,,,,,,,,,,,a,1,"[""0.350"",""0.408"",""0.649"",""0.961""]","[0,1,1,1]",0,27,27,27,1,0,0,,,1,FALSE,0.6851,,,,,,,,,,,,,,,,,,,,,,,,,,,,,,
,,001,2022-04-28_20h08.05.802,classification_task,2021.2.3,MacIntel,59.84082341,5ec2cdfe3d68ea0ea7ca8909,626b377229c10585ec392f89,626b3a222f0aeed8afb3ff4b,,,,,,,,,,,,,,,,,,,,,,,l,1,"[""0.046"",""0.152"",""0.466"",""0.368""]","[1,1,1,0]",0,28,28,28,1,1,1,,,1,FALSE,0.8187,,,,,,,,,,,,,,,,,,,,,,,,,,,,,,
,,001,2022-04-28_20h08.05.802,classification_task,2021.2.3,MacIntel,59.84082341,5ec2cdfe3d68ea0ea7ca8909,626b377229c10585ec392f89,626b3a222f0aeed8afb3ff4b,,,,,,,,,,,,,,,,,,,,,,,a,1,"[""0.206"",""0.541"",""0.862"",""0.316""]","[1,1,1,0]",0,29,29,29,1,0,1,,,1,FALSE,1.5031,,,,,,,,,,,,,,,,,,,,,,,,,,,,,,
,,001,2022-04-28_20h08.05.802,classification_task,2021.2.3,MacIntel,59.84082341,5ec2cdfe3d68ea0ea7ca8909,626b377229c10585ec392f89,626b3a222f0aeed8afb3ff4b,,,,,,,,,,,,,,,,,,,,,,,a,0,"[""0.503"",""0.244"",""0.605"",""0.720""]","[0,1,1,1]",0,30,30,30,1,1,0,,,1,FALSE,0.8848,,,,,,,,,,,,,,,,,,,,,,,,,,,,,,
,,001,2022-04-28_20h08.05.802,classification_task,2021.2.3,MacIntel,59.84082341,5ec2cdfe3d68ea0ea7ca8909,626b377229c10585ec392f89,626b3a222f0aeed8afb3ff4b,,,,,,,,,,,,,,,,,,,,,,,l,1,"[""0.046"",""0.152"",""0.335"",""0.821""]","[1,1,0,1]",0,31,31,31,1,1,1,,,1,FALSE,0.7705,,,,,,,,,,,,,,,,,,,,,,,,,,,,,,
,,001,2022-04-28_20h08.05.802,classification_task,2021.2.3,MacIntel,59.84082341,5ec2cdfe3d68ea0ea7ca8909,626b377229c10585ec392f89,626b3a222f0aeed8afb3ff4b,,,,,,,,,,,,,,,,,,,,,,,a,1,"[""0.372"",""0.541"",""0.862"",""0.905""]","[0,1,1,1]",0,32,32,32,1,0,1,,,1,FALSE,2.7886,,,,,,,,,,,,,,,,,,,,,,,,,,,,,,
,,001,2022-04-28_20h08.05.802,classification_task,2021.2.3,MacIntel,59.84082341,5ec2cdfe3d68ea0ea7ca8909,626b377229c10585ec392f89,626b3a222f0aeed8afb3ff4b,,,,,,,,,,,,,,,,,,,,,,,a,1,"[""0.345"",""0.408"",""0.649"",""0.961""]","[0,1,1,1]",0,33,33,33,1,0,0,,,1,FALSE,0.7051,,,,,,,,,,,,,,,,,,,,,,,,,,,,,,
,,001,2022-04-28_20h08.05.802,classification_task,2021.2.3,MacIntel,59.84082341,5ec2cdfe3d68ea0ea7ca8909,626b377229c10585ec392f89,626b3a222f0aeed8afb3ff4b,,,,,,,,,,,,,,,,,,,,,,,l,1,"[""0.046"",""0.152"",""0.466"",""0.372""]","[1,1,1,0]",0,34,34,34,1,1,1,,,1,FALSE,0.6219,,,,,,,,,,,,,,,,,,,,,,,,,,,,,,
,,001,2022-04-28_20h08.05.802,classification_task,2021.2.3,MacIntel,59.84082341,5ec2cdfe3d68ea0ea7ca8909,626b377229c10585ec392f89,626b3a222f0aeed8afb3ff4b,,,,,,,,,,,,,,,,,,,,,,,l,1,"[""0.046"",""0.503"",""0.466"",""0.821""]","[1,0,1,1]",0,35,35,35,1,1,1,,,1,FALSE,0.6405,,,,,,,,,,,,,,,,,,,,,,,,,,,,,,
,,001,2022-04-28_20h08.05.802,classification_task,2021.2.3,MacIntel,59.84082341,5ec2cdfe3d68ea0ea7ca8909,626b377229c10585ec392f89,626b3a222f0aeed8afb3ff4b,,,,,,,,,,,,,,,,,,,,,,,l,1,"[""0.354"",""0.152"",""0.466"",""0.821""]","[0,1,1,1]",0,36,36,36,1,1,1,,,1,FALSE,1.4207,,,,,,,,,,,,,,,,,,,,,,,,,,,,,,
,,001,2022-04-28_20h08.05.802,classification_task,2021.2.3,MacIntel,59.84082341,5ec2cdfe3d68ea0ea7ca8909,626b377229c10585ec392f89,626b3a222f0aeed8afb3ff4b,,,,,,,,,,,,,,,,,,,,,,,a,1,"[""0.206"",""0.541"",""0.862"",""0.316""]","[1,1,1,0]",0,37,37,37,1,0,1,,,1,FALSE,0.8674,,,,,,,,,,,,,,,,,,,,,,,,,,,,,,
,,001,2022-04-28_20h08.05.802,classification_task,2021.2.3,MacIntel,59.84082341,5ec2cdfe3d68ea0ea7ca8909,626b377229c10585ec392f89,626b3a222f0aeed8afb3ff4b,,,,,,,,,,,,,,,,,,,,,,,l,1,"[""0.104"",""0.244"",""0.605"",""0.368""]","[1,1,1,0]",0,38,38,38,1,1,0,,,1,FALSE,0.8035,,,,,,,,,,,,,,,,,,,,,,,,,,,,,,
,,001,2022-04-28_20h08.05.802,classification_task,2021.2.3,MacIntel,59.84082341,5ec2cdfe3d68ea0ea7ca8909,626b377229c10585ec392f89,626b3a222f0aeed8afb3ff4b,,,,,,,,,,,,,,,,,,,,,,,a,1,"[""0.281"",""0.408"",""0.368"",""0.961""]","[1,1,0,1]",0,39,39,39,1,0,0,,,1,FALSE,0.6393,,,,,,,,,,,,,,,,,,,,,,,,,,,,,,
,,001,2022-04-28_20h08.05.802,classification_task,2021.2.3,MacIntel,59.84082341,5ec2cdfe3d68ea0ea7ca8909,626b377229c10585ec392f89,626b3a222f0aeed8afb3ff4b,,,,,,,,,,,,,,,,,,,,,,,l,1,"[""0.104"",""0.244"",""0.765"",""0.720""]","[1,1,0,1]",0,40,40,40,1,1,0,,,1,FALSE,0.7531,,,,,,,,,,,,,,,,,,,,,,,,,,,,,,
,,001,2022-04-28_20h08.05.802,classification_task,2021.2.3,MacIntel,59.84082341,5ec2cdfe3d68ea0ea7ca8909,626b377229c10585ec392f89,626b3a222f0aeed8afb3ff4b,,,,,,,,,,,,,,,,,,,,,,,a,1,"[""0.206"",""0.541"",""0.338"",""0.905""]","[1,1,0,1]",0,41,41,41,1,0,1,,,1,FALSE,0.9186,,,,,,,,,,,,,,,,,,,,,,,,,,,,,,
,,001,2022-04-28_20h08.05.802,classification_task,2021.2.3,MacIntel,59.84082341,5ec2cdfe3d68ea0ea7ca8909,626b377229c10585ec392f89,626b3a222f0aeed8afb3ff4b,,,,,,,,,,,,,,,,,,,,,,,a,1,"[""0.281"",""0.408"",""0.649"",""0.339""]","[1,1,1,0]",0,42,42,42,1,0,0,,,1,FALSE,0.6964,,,,,,,,,,,,,,,,,,,,,,,,,,,,,,
,,001,2022-04-28_20h08.05.802,classification_task,2021.2.3,MacIntel,59.84082341,5ec2cdfe3d68ea0ea7ca8909,626b377229c10585ec392f89,626b3a222f0aeed8afb3ff4b,,,,,,,,,,,,,,,,,,,,,,,l,1,"[""0.104"",""0.503"",""0.605"",""0.720""]","[1,0,1,1]",0,43,43,43,1,1,0,,,1,FALSE,0.5189,,,,,,,,,,,,,,,,,,,,,,,,,,,,,,
,,001,2022-04-28_20h08.05.802,classification_task,2021.2.3,MacIntel,59.84082341,5ec2cdfe3d68ea0ea7ca8909,626b377229c10585ec392f89,626b3a222f0aeed8afb3ff4b,,,,,,,,,,,,,,,,,,,,,,,l,1,"[""0.046"",""0.152"",""0.370"",""0.821""]","[1,1,0,1]",0,44,44,44,1,1,1,,,1,FALSE,0.6381,,,,,,,,,,,,,,,,,,,,,,,,,,,,,,
,,001,2022-04-28_20h08.05.802,classification_task,2021.2.3,MacIntel,59.84082341,5ec2cdfe3d68ea0ea7ca8909,626b377229c10585ec392f89,626b3a222f0aeed8afb3ff4b,,,,,,,,,,,,,,,,,,,,,,,a,0,"[""0.356"",""0.244"",""0.605"",""0.720""]","[0,1,1,1]",0,45,45,45,1,1,0,,,1,FALSE,0.7875,,,,,,,,,,,,,,,,,,,,,,,,,,,,,,
,,001,2022-04-28_20h08.05.802,classification_task,2021.2.3,MacIntel,59.84082341,5ec2cdfe3d68ea0ea7ca8909,626b377229c10585ec392f89,626b3a222f0aeed8afb3ff4b,,,,,,,,,,,,,,,,,,,,,,,l,0,"[""0.206"",""0.356"",""0.862"",""0.905""]","[1,0,1,1]",0,46,46,46,1,0,1,,,1,FALSE,1.1841,,,,,,,,,,,,,,,,,,,,,,,,,,,,,,
,,001,2022-04-28_20h08.05.802,classification_task,2021.2.3,MacIntel,59.84082341,5ec2cdfe3d68ea0ea7ca8909,626b377229c10585ec392f89,626b3a222f0aeed8afb3ff4b,,,,,,,,,,,,,,,,,,,,,,,a,1,"[""0.281"",""0.368"",""0.649"",""0.961""]","[1,0,1,1]",0,47,47,47,1,0,0,,,1,FALSE,0.954,,,,,,,,,,,,,,,,,,,,,,,,,,,,,,
,,001,2022-04-28_20h08.05.802,classification_task,2021.2.3,MacIntel,59.84082341,5ec2cdfe3d68ea0ea7ca8909,626b377229c10585ec392f89,626b3a222f0aeed8afb3ff4b,,,,,,,,,,,,,,,,,,,,,,,a,1,"[""0.354"",""0.541"",""0.862"",""0.905""]","[0,1,1,1]",0,48,48,48,1,0,1,,,1,FALSE,3.8769,,,,,,,,,,,,,,,,,,,,,,,,,,,,,,
,,001,2022-04-28_20h08.05.802,classification_task,2021.2.3,MacIntel,59.84082341,5ec2cdfe3d68ea0ea7ca8909,626b377229c10585ec392f89,626b3a222f0aeed8afb3ff4b,,,,,,,,,,,,,,,,,,,,,,,a,1,"[""0.206"",""0.541"",""0.862"",""0.345""]","[1,1,1,0]",0,49,49,49,1,0,1,,,1,FALSE,1.1044,,,,,,,,,,,,,,,,,,,,,,,,,,,,,,
,,001,2022-04-28_20h08.05.802,classification_task,2021.2.3,MacIntel,59.84082341,5ec2cdfe3d68ea0ea7ca8909,626b377229c10585ec392f89,626b3a222f0aeed8afb3ff4b,,,,,,,,,,,,,,,,,,,,,,,a,1,"[""0.281"",""0.344"",""0.649"",""0.961""]","[1,0,1,1]",0,50,50,50,1,0,0,,,1,FALSE,0.5872,,,,,,,,,,,,,,,,,,,,,,,,,,,,,,
,,001,2022-04-28_20h08.05.802,classification_task,2021.2.3,MacIntel,59.84082341,5ec2cdfe3d68ea0ea7ca8909,626b377229c10585ec392f89,626b3a222f0aeed8afb3ff4b,,,,,,,,,,,,,,,,,,,,,,,l,1,"[""0.503"",""0.152"",""0.466"",""0.821""]","[0,1,1,1]",0,51,51,51,1,1,1,,,1,FALSE,0.8544,,,,,,,,,,,,,,,,,,,,,,,,,,,,,,
,,001,2022-04-28_20h08.05.802,classification_task,2021.2.3,MacIntel,59.84082341,5ec2cdfe3d68ea0ea7ca8909,626b377229c10585ec392f89,626b3a222f0aeed8afb3ff4b,,,,,,,,,,,,,,,,,,,,,,,a,1,"[""0.206"",""0.541"",""0.345"",""0.905""]","[1,1,0,1]",0,52,52,52,1,0,1,,,1,FALSE,0.9211,,,,,,,,,,,,,,,,,,,,,,,,,,,,,,
,,001,2022-04-28_20h08.05.802,classification_task,2021.2.3,MacIntel,59.84082341,5ec2cdfe3d68ea0ea7ca8909,626b377229c10585ec392f89,626b3a222f0aeed8afb3ff4b,,,,,,,,,,,,,,,,,,,,,,,l,1,"[""0.046"",""0.354"",""0.466"",""0.821""]","[1,0,1,1]",0,53,53,53,1,1,1,,,1,FALSE,0.6889,,,,,,,,,,,,,,,,,,,,,,,,,,,,,,
,,001,2022-04-28_20h08.05.802,classification_task,2021.2.3,MacIntel,59.84082341,5ec2cdfe3d68ea0ea7ca8909,626b377229c10585ec392f89,626b3a222f0aeed8afb3ff4b,,,,,,,,,,,,,,,,,,,,,,,a,1,"[""0.281"",""0.408"",""0.354"",""0.961""]","[1,1,0,1]",0,54,54,54,1,0,0,,,1,FALSE,0.736,,,,,,,,,,,,,,,,,,,,,,,,,,,,,,
,,001,2022-04-28_20h08.05.802,classification_task,2021.2.3,MacIntel,59.84082341,5ec2cdfe3d68ea0ea7ca8909,626b377229c10585ec392f89,626b3a222f0aeed8afb3ff4b,,,,,,,,,,,,,,,,,,,,,,,l,1,"[""0.046"",""0.152"",""0.466"",""0.354""]","[1,1,1,0]",0,55,55,55,1,1,1,,,1,FALSE,0.5374,,,,,,,,,,,,,,,,,,,,,,,,,,,,,,
,,001,2022-04-28_20h08.05.802,classification_task,2021.2.3,MacIntel,59.84082341,5ec2cdfe3d68ea0ea7ca8909,626b377229c10585ec392f89,626b3a222f0aeed8afb3ff4b,,,,,,,,,,,,,,,,,,,,,,,a,1,"[""0.206"",""0.344"",""0.862"",""0.905""]","[1,0,1,1]",0,56,56,56,1,0,1,,,1,FALSE,1.0574,,,,,,,,,,,,,,,,,,,,,,,,,,,,,,
,,001,2022-04-28_20h08.05.802,classification_task,2021.2.3,MacIntel,59.84082341,5ec2cdfe3d68ea0ea7ca8909,626b377229c10585ec392f89,626b3a222f0aeed8afb3ff4b,,,,,,,,,,,,,,,,,,,,,,,l,1,"[""0.104"",""0.244"",""0.605"",""0.338""]","[1,1,1,0]",0,57,57,57,1,1,0,,,1,FALSE,0.8759,,,,,,,,,,,,,,,,,,,,,,,,,,,,,,
,,001,2022-04-28_20h08.05.802,classification_task,2021.2.3,MacIntel,59.84082341,5ec2cdfe3d68ea0ea7ca8909,626b377229c10585ec392f89,626b3a222f0aeed8afb3ff4b,,,,,,,,,,,,,,,,,,,,,,,l,1,"[""0.339"",""0.244"",""0.605"",""0.720""]","[0,1,1,1]",0,58,58,58,1,1,0,,,1,FALSE,0.5688,,,,,,,,,,,,,,,,,,,,,,,,,,,,,,
,,001,2022-04-28_20h08.05.802,classification_task,2021.2.3,MacIntel,59.84082341,5ec2cdfe3d68ea0ea7ca8909,626b377229c10585ec392f89,626b3a222f0aeed8afb3ff4b,,,,,,,,,,,,,,,,,,,,,,,a,1,"[""0.281"",""0.408"",""0.649"",""0.345""]","[1,1,1,0]",0,59,59,59,1,0,0,,,1,FALSE,0.8859,,,,,,,,,,,,,,,,,,,,,,,,,,,,,,
,,001,2022-04-28_20h08.05.802,classification_task,2021.2.3,MacIntel,59.84082341,5ec2cdfe3d68ea0ea7ca8909,626b377229c10585ec392f89,626b3a222f0aeed8afb3ff4b,,,,,,,,,,,,,,,,,,,,,,,l,1,"[""0.046"",""0.152"",""0.338"",""0.821""]","[1,1,0,1]",0,60,60,60,1,1,1,,,1,FALSE,0.6383,,,,,,,,,,,,,,,,,,,,,,,,,,,,,,
,,001,2022-04-28_20h08.05.802,classification_task,2021.2.3,MacIntel,59.84082341,5ec2cdfe3d68ea0ea7ca8909,626b377229c10585ec392f89,626b3a222f0aeed8afb3ff4b,,,,,,,,,,,,,,,,,,,,,,,l,1,"[""0.104"",""0.244"",""0.316"",""0.720""]","[1,1,0,1]",0,61,61,61,1,1,0,,,1,FALSE,0.7166,,,,,,,,,,,,,,,,,,,,,,,,,,,,,,
,,001,2022-04-28_20h08.05.802,classification_task,2021.2.3,MacIntel,59.84082341,5ec2cdfe3d68ea0ea7ca8909,626b377229c10585ec392f89,626b3a222f0aeed8afb3ff4b,,,,,,,,,,,,,,,,,,,,,,,l,1,"[""0.104"",""0.316"",""0.605"",""0.720""]","[1,0,1,1]",0,62,62,62,1,1,0,,,1,FALSE,0.6537,,,,,,,,,,,,,,,,,,,,,,,,,,,,,,
,,001,2022-04-28_20h08.05.802,classification_task,2021.2.3,MacIntel,59.84082341,5ec2cdfe3d68ea0ea7ca8909,626b377229c10585ec392f89,626b3a222f0aeed8afb3ff4b,,,,,,,,,,,,,,,,,,,,,,,a,1,"[""0.345"",""0.408"",""0.649"",""0.961""]","[0,1,1,1]",0,63,63,63,1,0,0,,,1,FALSE,0.6204,,,,,,,,,,,,,,,,,,,,,,,,,,,,,,
,,001,2022-04-28_20h08.05.802,classification_task,2021.2.3,MacIntel,59.84082341,5ec2cdfe3d68ea0ea7ca8909,626b377229c10585ec392f89,626b3a222f0aeed8afb3ff4b,,,,,,,,,,,,,,,,,,,,,,,,,,,,,,,,,,,,,,,0, ,,0,5.489372061,151.8757,0,1,1,1,1,2,2,,,,,,,,,,,,,,,,,
,,001,2022-04-28_20h08.05.802,classification_task,2021.2.3,MacIntel,59.84082341,5ec2cdfe3d68ea0ea7ca8909,626b377229c10585ec392f89,626b3a222f0aeed8afb3ff4b,,,,,,,,,,,,,,,,,,,,,,,,,,,,,,,,,,,,,,,1,  ,,0,7.140514771,153.5761,0,1,1,1,1,2,2,,,,,,,,,,,,,,,,,
,,001,2022-04-28_20h08.05.802,classification_task,2021.2.3,MacIntel,59.84082341,5ec2cdfe3d68ea0ea7ca8909,626b377229c10585ec392f89,626b3a222f0aeed8afb3ff4b,,,,,,,,,,,,,,,,,,,,,,,,,,,,,,,,,,,,,,,2,  ,,0,0,154.6454,0,1,1,1,1,2,2,,,,,,,,,,,,,,,,,
,,001,2022-04-28_20h08.05.802,classification_task,2021.2.3,MacIntel,59.84082341,5ec2cdfe3d68ea0ea7ca8909,626b377229c10585ec392f89,626b3a222f0aeed8afb3ff4b,,,,,,,,,,,,,,,,,,,,,,,,,,,,,,,,,,,,,,,,,,,,,0,1,1,1,1,,2,,,,,,,,,,,,,,,,,
,,001,2022-04-28_20h08.05.802,classification_task,2021.2.3,MacIntel,59.84082341,5ec2cdfe3d68ea0ea7ca8909,626b377229c10585ec392f89,626b3a222f0aeed8afb3ff4b,,,,,,,,,,,,,,,,,,,,,space,10.2055,a,1,"[""0.281"",""0.408"",""0.316"",""0.961""]","[1,1,0,1]",0,0,0,0,1,0,0,,,1,FALSE,1.4277,,,,,,,,,,,,,,,,,,,,,,,,,,,,,,
,,001,2022-04-28_20h08.05.802,classification_task,2021.2.3,MacIntel,59.84082341,5ec2cdfe3d68ea0ea7ca8909,626b377229c10585ec392f89,626b3a222f0aeed8afb3ff4b,,,,,,,,,,,,,,,,,,,,,,,l,1,"[""0.046"",""0.354"",""0.466"",""0.821""]","[1,0,1,1]",0,1,1,1,1,1,1,,,1,FALSE,0.7394,,,,,,,,,,,,,,,,,,,,,,,,,,,,,,
,,001,2022-04-28_20h08.05.802,classification_task,2021.2.3,MacIntel,59.84082341,5ec2cdfe3d68ea0ea7ca8909,626b377229c10585ec392f89,626b3a222f0aeed8afb3ff4b,,,,,,,,,,,,,,,,,,,,,,,l,1,"[""0.104"",""0.244"",""0.605"",""0.339""]","[1,1,1,0]",0,2,2,2,1,1,0,,,1,FALSE,0.7706,,,,,,,,,,,,,,,,,,,,,,,,,,,,,,
,,001,2022-04-28_20h08.05.802,classification_task,2021.2.3,MacIntel,59.84082341,5ec2cdfe3d68ea0ea7ca8909,626b377229c10585ec392f89,626b3a222f0aeed8afb3ff4b,,,,,,,,,,,,,,,,,,,,,,,a,0,"[""0.344"",""0.244"",""0.605"",""0.720""]","[0,1,1,1]",0,3,3,3,1,1,0,,,1,FALSE,0.5877,,,,,,,,,,,,,,,,,,,,,,,,,,,,,,
,,001,2022-04-28_20h08.05.802,classification_task,2021.2.3,MacIntel,59.84082341,5ec2cdfe3d68ea0ea7ca8909,626b377229c10585ec392f89,626b3a222f0aeed8afb3ff4b,,,,,,,,,,,,,,,,,,,,,,,l,1,"[""0.356"",""0.152"",""0.466"",""0.821""]","[0,1,1,1]",0,4,4,4,1,1,1,,,1,FALSE,1.0694,,,,,,,,,,,,,,,,,,,,,,,,,,,,,,
,,001,2022-04-28_20h08.05.802,classification_task,2021.2.3,MacIntel,59.84082341,5ec2cdfe3d68ea0ea7ca8909,626b377229c10585ec392f89,626b3a222f0aeed8afb3ff4b,,,,,,,,,,,,,,,,,,,,,,,l,1,"[""0.046"",""0.152"",""0.466"",""0.345""]","[1,1,1,0]",0,5,5,5,1,1,1,,,1,FALSE,0.6064,,,,,,,,,,,,,,,,,,,,,,,,,,,,,,
,,001,2022-04-28_20h08.05.802,classification_task,2021.2.3,MacIntel,59.84082341,5ec2cdfe3d68ea0ea7ca8909,626b377229c10585ec392f89,626b3a222f0aeed8afb3ff4b,,,,,,,,,,,,,,,,,,,,,,,a,1,"[""0.206"",""0.541"",""0.862"",""0.338""]","[1,1,1,0]",0,6,6,6,1,0,1,,,1,FALSE,0.9381,,,,,,,,,,,,,,,,,,,,,,,,,,,,,,
,,001,2022-04-28_20h08.05.802,classification_task,2021.2.3,MacIntel,59.84082341,5ec2cdfe3d68ea0ea7ca8909,626b377229c10585ec392f89,626b3a222f0aeed8afb3ff4b,,,,,,,,,,,,,,,,,,,,,,,a,1,"[""0.281"",""0.339"",""0.649"",""0.961""]","[1,0,1,1]",0,7,7,7,1,0,0,,,1,FALSE,1.1358,,,,,,,,,,,,,,,,,,,,,,,,,,,,,,
,,001,2022-04-28_20h08.05.802,classification_task,2021.2.3,MacIntel,59.84082341,5ec2cdfe3d68ea0ea7ca8909,626b377229c10585ec392f89,626b3a222f0aeed8afb3ff4b,,,,,,,,,,,,,,,,,,,,,,,a,1,"[""0.206"",""0.370"",""0.862"",""0.905""]","[1,0,1,1]",0,8,8,8,1,0,1,,,1,FALSE,1.0874,,,,,,,,,,,,,,,,,,,,,,,,,,,,,,
,,001,2022-04-28_20h08.05.802,classification_task,2021.2.3,MacIntel,59.84082341,5ec2cdfe3d68ea0ea7ca8909,626b377229c10585ec392f89,626b3a222f0aeed8afb3ff4b,,,,,,,,,,,,,,,,,,,,,,,a,1,"[""0.206"",""0.541"",""0.503"",""0.905""]","[1,1,0,1]",0,9,9,9,1,0,1,,,1,FALSE,0.8344,,,,,,,,,,,,,,,,,,,,,,,,,,,,,,
,,001,2022-04-28_20h08.05.802,classification_task,2021.2.3,MacIntel,59.84082341,5ec2cdfe3d68ea0ea7ca8909,626b377229c10585ec392f89,626b3a222f0aeed8afb3ff4b,,,,,,,,,,,,,,,,,,,,,,,a,1,"[""0.281"",""0.408"",""0.649"",""0.765""]","[1,1,1,0]",0,10,10,10,1,0,0,,,1,FALSE,0.6201,,,,,,,,,,,,,,,,,,,,,,,,,,,,,,
,,001,2022-04-28_20h08.05.802,classification_task,2021.2.3,MacIntel,59.84082341,5ec2cdfe3d68ea0ea7ca8909,626b377229c10585ec392f89,626b3a222f0aeed8afb3ff4b,,,,,,,,,,,,,,,,,,,,,,,l,1,"[""0.046"",""0.152"",""0.368"",""0.821""]","[1,1,0,1]",0,11,11,11,1,1,1,,,1,FALSE,0.485,,,,,,,,,,,,,,,,,,,,,,,,,,,,,,
,,001,2022-04-28_20h08.05.802,classification_task,2021.2.3,MacIntel,59.84082341,5ec2cdfe3d68ea0ea7ca8909,626b377229c10585ec392f89,626b3a222f0aeed8afb3ff4b,,,,,,,,,,,,,,,,,,,,,,,l,1,"[""0.104"",""0.244"",""0.344"",""0.720""]","[1,1,0,1]",0,12,12,12,1,1,0,,,1,FALSE,0.8194,,,,,,,,,,,,,,,,,,,,,,,,,,,,,,
,,001,2022-04-28_20h08.05.802,classification_task,2021.2.3,MacIntel,59.84082341,5ec2cdfe3d68ea0ea7ca8909,626b377229c10585ec392f89,626b3a222f0aeed8afb3ff4b,,,,,,,,,,,,,,,,,,,,,,,a,1,"[""0.316"",""0.408"",""0.649"",""0.961""]","[0,1,1,1]",0,13,13,13,1,0,0,,,1,FALSE,0.6839,,,,,,,,,,,,,,,,,,,,,,,,,,,,,,
,,001,2022-04-28_20h08.05.802,classification_task,2021.2.3,MacIntel,59.84082341,5ec2cdfe3d68ea0ea7ca8909,626b377229c10585ec392f89,626b3a222f0aeed8afb3ff4b,,,,,,,,,,,,,,,,,,,,,,,l,1,"[""0.104"",""0.362"",""0.605"",""0.720""]","[1,0,1,1]",0,14,14,14,1,1,0,,,1,FALSE,0.4864,,,,,,,,,,,,,,,,,,,,,,,,,,,,,,
,,001,2022-04-28_20h08.05.802,classification_task,2021.2.3,MacIntel,59.84082341,5ec2cdfe3d68ea0ea7ca8909,626b377229c10585ec392f89,626b3a222f0aeed8afb3ff4b,,,,,,,,,,,,,,,,,,,,,,,a,1,"[""0.345"",""0.541"",""0.862"",""0.905""]","[0,1,1,1]",0,15,15,15,1,0,1,,,1,FALSE,0.6034,,,,,,,,,,,,,,,,,,,,,,,,,,,,,,
,,001,2022-04-28_20h08.05.802,classification_task,2021.2.3,MacIntel,59.84082341,5ec2cdfe3d68ea0ea7ca8909,626b377229c10585ec392f89,626b3a222f0aeed8afb3ff4b,,,,,,,,,,,,,,,,,,,,,,,l,1,"[""0.104"",""0.244"",""0.370"",""0.720""]","[1,1,0,1]",0,16,16,16,1,1,0,,,1,FALSE,0.5836,,,,,,,,,,,,,,,,,,,,,,,,,,,,,,
,,001,2022-04-28_20h08.05.802,classification_task,2021.2.3,MacIntel,59.84082341,5ec2cdfe3d68ea0ea7ca8909,626b377229c10585ec392f89,626b3a222f0aeed8afb3ff4b,,,,,,,,,,,,,,,,,,,,,,,a,1,"[""0.281"",""0.408"",""0.345"",""0.961""]","[1,1,0,1]",0,17,17,17,1,0,0,,,1,FALSE,0.821,,,,,,,,,,,,,,,,,,,,,,,,,,,,,,
,,001,2022-04-28_20h08.05.802,classification_task,2021.2.3,MacIntel,59.84082341,5ec2cdfe3d68ea0ea7ca8909,626b377229c10585ec392f89,626b3a222f0aeed8afb3ff4b,,,,,,,,,,,,,,,,,,,,,,,l,1,"[""0.046"",""0.350"",""0.466"",""0.821""]","[1,0,1,1]",0,18,18,18,1,1,1,,,1,FALSE,0.705,,,,,,,,,,,,,,,,,,,,,,,,,,,,,,
,,001,2022-04-28_20h08.05.802,classification_task,2021.2.3,MacIntel,59.84082341,5ec2cdfe3d68ea0ea7ca8909,626b377229c10585ec392f89,626b3a222f0aeed8afb3ff4b,,,,,,,,,,,,,,,,,,,,,,,l,1,"[""0.338"",""0.152"",""0.466"",""0.821""]","[0,1,1,1]",0,19,19,19,1,1,1,,,1,FALSE,1.1219,,,,,,,,,,,,,,,,,,,,,,,,,,,,,,
,,001,2022-04-28_20h08.05.802,classification_task,2021.2.3,MacIntel,59.84082341,5ec2cdfe3d68ea0ea7ca8909,626b377229c10585ec392f89,626b3a222f0aeed8afb3ff4b,,,,,,,,,,,,,,,,,,,,,,,a,1,"[""0.765"",""0.408"",""0.649"",""0.961""]","[0,1,1,1]",0,20,20,20,1,0,0,,,1,FALSE,0.6507,,,,,,,,,,,,,,,,,,,,,,,,,,,,,,
,,001,2022-04-28_20h08.05.802,classification_task,2021.2.3,MacIntel,59.84082341,5ec2cdfe3d68ea0ea7ca8909,626b377229c10585ec392f89,626b3a222f0aeed8afb3ff4b,,,,,,,,,,,,,,,,,,,,,,,a,1,"[""0.206"",""0.344"",""0.862"",""0.905""]","[1,0,1,1]",0,21,21,21,1,0,1,,,1,FALSE,0.7926,,,,,,,,,,,,,,,,,,,,,,,,,,,,,,
,,001,2022-04-28_20h08.05.802,classification_task,2021.2.3,MacIntel,59.84082341,5ec2cdfe3d68ea0ea7ca8909,626b377229c10585ec392f89,626b3a222f0aeed8afb3ff4b,,,,,,,,,,,,,,,,,,,,,,,l,1,"[""0.046"",""0.152"",""0.466"",""0.362""]","[1,1,1,0]",0,22,22,22,1,1,1,,,1,FALSE,0.7204,,,,,,,,,,,,,,,,,,,,,,,,,,,,,,
,,001,2022-04-28_20h08.05.802,classification_task,2021.2.3,MacIntel,59.84082341,5ec2cdfe3d68ea0ea7ca8909,626b377229c10585ec392f89,626b3a222f0aeed8afb3ff4b,,,,,,,,,,,,,,,,,,,,,,,a,1,"[""0.206"",""0.541"",""0.370"",""0.905""]","[1,1,0,1]",0,23,23,23,1,0,1,,,1,FALSE,0.7361,,,,,,,,,,,,,,,,,,,,,,,,,,,,,,
,,001,2022-04-28_20h08.05.802,classification_task,2021.2.3,MacIntel,59.84082341,5ec2cdfe3d68ea0ea7ca8909,626b377229c10585ec392f89,626b3a222f0aeed8afb3ff4b,,,,,,,,,,,,,,,,,,,,,,,l,1,"[""0.104"",""0.244"",""0.605"",""0.316""]","[1,1,1,0]",0,24,24,24,1,1,0,,,1,FALSE,0.8048,,,,,,,,,,,,,,,,,,,,,,,,,,,,,,
,,001,2022-04-28_20h08.05.802,classification_task,2021.2.3,MacIntel,59.84082341,5ec2cdfe3d68ea0ea7ca8909,626b377229c10585ec392f89,626b3a222f0aeed8afb3ff4b,,,,,,,,,,,,,,,,,,,,,,,l,1,"[""0.104"",""0.345"",""0.605"",""0.720""]","[1,0,1,1]",0,25,25,25,1,1,0,,,1,FALSE,0.5187,,,,,,,,,,,,,,,,,,,,,,,,,,,,,,
,,001,2022-04-28_20h08.05.802,classification_task,2021.2.3,MacIntel,59.84082341,5ec2cdfe3d68ea0ea7ca8909,626b377229c10585ec392f89,626b3a222f0aeed8afb3ff4b,,,,,,,,,,,,,,,,,,,,,,,a,1,"[""0.281"",""0.335"",""0.649"",""0.961""]","[1,0,1,1]",0,26,26,26,1,0,0,,,1,FALSE,0.6161,,,,,,,,,,,,,,,,,,,,,,,,,,,,,,
,,001,2022-04-28_20h08.05.802,classification_task,2021.2.3,MacIntel,59.84082341,5ec2cdfe3d68ea0ea7ca8909,626b377229c10585ec392f89,626b3a222f0aeed8afb3ff4b,,,,,,,,,,,,,,,,,,,,,,,a,0,"[""0.372"",""0.244"",""0.605"",""0.720""]","[0,1,1,1]",0,27,27,27,1,1,0,,,1,FALSE,0.7658,,,,,,,,,,,,,,,,,,,,,,,,,,,,,,
,,001,2022-04-28_20h08.05.802,classification_task,2021.2.3,MacIntel,59.84082341,5ec2cdfe3d68ea0ea7ca8909,626b377229c10585ec392f89,626b3a222f0aeed8afb3ff4b,,,,,,,,,,,,,,,,,,,,,,,a,1,"[""0.206"",""0.541"",""0.862"",""0.350""]","[1,1,1,0]",0,28,28,28,1,0,1,,,1,FALSE,1.977,,,,,,,,,,,,,,,,,,,,,,,,,,,,,,
,,001,2022-04-28_20h08.05.802,classification_task,2021.2.3,MacIntel,59.84082341,5ec2cdfe3d68ea0ea7ca8909,626b377229c10585ec392f89,626b3a222f0aeed8afb3ff4b,,,,,,,,,,,,,,,,,,,,,,,a,1,"[""0.281"",""0.408"",""0.649"",""0.503""]","[1,1,1,0]",0,29,29,29,1,0,0,,,1,FALSE,0.6867,,,,,,,,,,,,,,,,,,,,,,,,,,,,,,
,,001,2022-04-28_20h08.05.802,classification_task,2021.2.3,MacIntel,59.84082341,5ec2cdfe3d68ea0ea7ca8909,626b377229c10585ec392f89,626b3a222f0aeed8afb3ff4b,,,,,,,,,,,,,,,,,,,,,,,a,1,"[""0.339"",""0.541"",""0.862"",""0.905""]","[0,1,1,1]",0,30,30,30,1,0,1,,,1,FALSE,2.7749,,,,,,,,,,,,,,,,,,,,,,,,,,,,,,
,,001,2022-04-28_20h08.05.802,classification_task,2021.2.3,MacIntel,59.84082341,5ec2cdfe3d68ea0ea7ca8909,626b377229c10585ec392f89,626b3a222f0aeed8afb3ff4b,,,,,,,,,,,,,,,,,,,,,,,l,1,"[""0.046"",""0.152"",""0.338"",""0.821""]","[1,1,0,1]",0,31,31,31,1,1,1,,,1,FALSE,0.6062,,,,,,,,,,,,,,,,,,,,,,,,,,,,,,
,,001,2022-04-28_20h08.05.802,classification_task,2021.2.3,MacIntel,59.84082341,5ec2cdfe3d68ea0ea7ca8909,626b377229c10585ec392f89,626b3a222f0aeed8afb3ff4b,,,,,,,,,,,,,,,,,,,,,,,l,1,"[""0.046"",""0.152"",""0.503"",""0.821""]","[1,1,0,1]",0,32,32,32,1,1,1,,,1,FALSE,0.5367,,,,,,,,,,,,,,,,,,,,,,,,,,,,,,
,,001,2022-04-28_20h08.05.802,classification_task,2021.2.3,MacIntel,59.84082341,5ec2cdfe3d68ea0ea7ca8909,626b377229c10585ec392f89,626b3a222f0aeed8afb3ff4b,,,,,,,,,,,,,,,,,,,,,,,l,1,"[""0.104"",""0.244"",""0.368"",""0.720""]","[1,1,0,1]",0,33,33,33,1,1,0,,,1,FALSE,0.7698,,,,,,,,,,,,,,,,,,,,,,,,,,,,,,
,,001,2022-04-28_20h08.05.802,classification_task,2021.2.3,MacIntel,59.84082341,5ec2cdfe3d68ea0ea7ca8909,626b377229c10585ec392f89,626b3a222f0aeed8afb3ff4b,,,,,,,,,,,,,,,,,,,,,,,l,1,"[""0.046"",""0.338"",""0.466"",""0.821""]","[1,0,1,1]",0,34,34,34,1,1,1,,,1,FALSE,0.6852,,,,,,,,,,,,,,,,,,,,,,,,,,,,,,
,,001,2022-04-28_20h08.05.802,classification_task,2021.2.3,MacIntel,59.84082341,5ec2cdfe3d68ea0ea7ca8909,626b377229c10585ec392f89,626b3a222f0aeed8afb3ff4b,,,,,,,,,,,,,,,,,,,,,,,a,1,"[""0.281"",""0.338"",""0.649"",""0.961""]","[1,0,1,1]",0,35,35,35,1,0,0,,,1,FALSE,0.6347,,,,,,,,,,,,,,,,,,,,,,,,,,,,,,
,,001,2022-04-28_20h08.05.802,classification_task,2021.2.3,MacIntel,59.84082341,5ec2cdfe3d68ea0ea7ca8909,626b377229c10585ec392f89,626b3a222f0aeed8afb3ff4b,,,,,,,,,,,,,,,,,,,,,,,l,1,"[""0.046"",""0.152"",""0.466"",""0.356""]","[1,1,1,0]",0,36,36,36,1,1,1,,,1,FALSE,0.9203,,,,,,,,,,,,,,,,,,,,,,,,,,,,,,
,,001,2022-04-28_20h08.05.802,classification_task,2021.2.3,MacIntel,59.84082341,5ec2cdfe3d68ea0ea7ca8909,626b377229c10585ec392f89,626b3a222f0aeed8afb3ff4b,,,,,,,,,,,,,,,,,,,,,,,l,1,"[""0.104"",""0.244"",""0.605"",""0.316""]","[1,1,1,0]",0,37,37,37,1,1,0,,,1,FALSE,0.6671,,,,,,,,,,,,,,,,,,,,,,,,,,,,,,
,,001,2022-04-28_20h08.05.802,classification_task,2021.2.3,MacIntel,59.84082341,5ec2cdfe3d68ea0ea7ca8909,626b377229c10585ec392f89,626b3a222f0aeed8afb3ff4b,,,,,,,,,,,,,,,,,,,,,,,l,1,"[""0.104"",""0.354"",""0.605"",""0.720""]","[1,0,1,1]",0,38,38,38,1,1,0,,,1,FALSE,0.457,,,,,,,,,,,,,,,,,,,,,,,,,,,,,,
,,001,2022-04-28_20h08.05.802,classification_task,2021.2.3,MacIntel,59.84082341,5ec2cdfe3d68ea0ea7ca8909,626b377229c10585ec392f89,626b3a222f0aeed8afb3ff4b,,,,,,,,,,,,,,,,,,,,,,,a,1,"[""0.316"",""0.541"",""0.862"",""0.905""]","[0,1,1,1]",0,39,39,39,1,0,1,,,1,FALSE,0.7725,,,,,,,,,,,,,,,,,,,,,,,,,,,,,,
,,001,2022-04-28_20h08.05.802,classification_task,2021.2.3,MacIntel,59.84082341,5ec2cdfe3d68ea0ea7ca8909,626b377229c10585ec392f89,626b3a222f0aeed8afb3ff4b,,,,,,,,,,,,,,,,,,,,,,,a,1,"[""0.281"",""0.408"",""0.649"",""0.345""]","[1,1,1,0]",0,40,40,40,1,0,0,,,1,FALSE,0.8188,,,,,,,,,,,,,,,,,,,,,,,,,,,,,,
,,001,2022-04-28_20h08.05.802,classification_task,2021.2.3,MacIntel,59.84082341,5ec2cdfe3d68ea0ea7ca8909,626b377229c10585ec392f89,626b3a222f0aeed8afb3ff4b,,,,,,,,,,,,,,,,,,,,,,,a,0,"[""0.344"",""0.244"",""0.605"",""0.720""]","[0,1,1,1]",0,41,41,41,1,1,0,,,1,FALSE,2.3081,,,,,,,,,,,,,,,,,,,,,,,,,,,,,,
,,001,2022-04-28_20h08.05.802,classification_task,2021.2.3,MacIntel,59.84082341,5ec2cdfe3d68ea0ea7ca8909,626b377229c10585ec392f89,626b3a222f0aeed8afb3ff4b,,,,,,,,,,,,,,,,,,,,,,,a,1,"[""0.281"",""0.408"",""0.362"",""0.961""]","[1,1,0,1]",0,42,42,42,1,0,0,,,1,FALSE,0.9847,,,,,,,,,,,,,,,,,,,,,,,,,,,,,,
,,001,2022-04-28_20h08.05.802,classification_task,2021.2.3,MacIntel,59.84082341,5ec2cdfe3d68ea0ea7ca8909,626b377229c10585ec392f89,626b3a222f0aeed8afb3ff4b,,,,,,,,,,,,,,,,,,,,,,,l,0,"[""0.206"",""0.338"",""0.862"",""0.905""]","[1,0,1,1]",0,43,43,43,1,0,1,,,1,FALSE,3.4549,,,,,,,,,,,,,,,,,,,,,,,,,,,,,,
,,001,2022-04-28_20h08.05.802,classification_task,2021.2.3,MacIntel,59.84082341,5ec2cdfe3d68ea0ea7ca8909,626b377229c10585ec392f89,626b3a222f0aeed8afb3ff4b,,,,,,,,,,,,,,,,,,,,,,,a,1,"[""0.206"",""0.541"",""0.862"",""0.316""]","[1,1,1,0]",0,44,44,44,1,0,1,,,1,FALSE,5.0548,,,,,,,,,,,,,,,,,,,,,,,,,,,,,,
,,001,2022-04-28_20h08.05.802,classification_task,2021.2.3,MacIntel,59.84082341,5ec2cdfe3d68ea0ea7ca8909,626b377229c10585ec392f89,626b3a222f0aeed8afb3ff4b,,,,,,,,,,,,,,,,,,,,,,,a,1,"[""0.206"",""0.541"",""0.372"",""0.905""]","[1,1,0,1]",0,45,45,45,1,0,1,,,1,FALSE,0.9588,,,,,,,,,,,,,,,,,,,,,,,,,,,,,,
,,001,2022-04-28_20h08.05.802,classification_task,2021.2.3,MacIntel,59.84082341,5ec2cdfe3d68ea0ea7ca8909,626b377229c10585ec392f89,626b3a222f0aeed8afb3ff4b,,,,,,,,,,,,,,,,,,,,,,,l,1,"[""0.356"",""0.152"",""0.466"",""0.821""]","[0,1,1,1]",0,46,46,46,1,1,1,,,1,FALSE,1.3545,,,,,,,,,,,,,,,,,,,,,,,,,,,,,,
,,001,2022-04-28_20h08.05.802,classification_task,2021.2.3,MacIntel,59.84082341,5ec2cdfe3d68ea0ea7ca8909,626b377229c10585ec392f89,626b3a222f0aeed8afb3ff4b,,,,,,,,,,,,,,,,,,,,,,,a,1,"[""0.339"",""0.408"",""0.649"",""0.961""]","[0,1,1,1]",0,47,47,47,1,0,0,,,1,FALSE,1.103,,,,,,,,,,,,,,,,,,,,,,,,,,,,,,
,,001,2022-04-28_20h08.05.802,classification_task,2021.2.3,MacIntel,59.84082341,5ec2cdfe3d68ea0ea7ca8909,626b377229c10585ec392f89,626b3a222f0aeed8afb3ff4b,,,,,,,,,,,,,,,,,,,,,,,a,1,"[""0.281"",""0.354"",""0.649"",""0.961""]","[1,0,1,1]",0,48,48,48,1,0,0,,,1,FALSE,0.653,,,,,,,,,,,,,,,,,,,,,,,,,,,,,,
,,001,2022-04-28_20h08.05.802,classification_task,2021.2.3,MacIntel,59.84082341,5ec2cdfe3d68ea0ea7ca8909,626b377229c10585ec392f89,626b3a222f0aeed8afb3ff4b,,,,,,,,,,,,,,,,,,,,,,,a,1,"[""0.281"",""0.408"",""0.649"",""0.370""]","[1,1,1,0]",0,49,49,49,1,0,0,,,1,FALSE,0.4685,,,,,,,,,,,,,,,,,,,,,,,,,,,,,,
,,001,2022-04-28_20h08.05.802,classification_task,2021.2.3,MacIntel,59.84082341,5ec2cdfe3d68ea0ea7ca8909,626b377229c10585ec392f89,626b3a222f0aeed8afb3ff4b,,,,,,,,,,,,,,,,,,,,,,,a,1,"[""0.281"",""0.408"",""0.372"",""0.961""]","[1,1,0,1]",0,50,50,50,1,0,0,,,1,FALSE,0.5683,,,,,,,,,,,,,,,,,,,,,,,,,,,,,,
,,001,2022-04-28_20h08.05.802,classification_task,2021.2.3,MacIntel,59.84082341,5ec2cdfe3d68ea0ea7ca8909,626b377229c10585ec392f89,626b3a222f0aeed8afb3ff4b,,,,,,,,,,,,,,,,,,,,,,,l,1,"[""0.104"",""0.244"",""0.605"",""0.335""]","[1,1,1,0]",0,51,51,51,1,1,0,,,1,FALSE,0.6388,,,,,,,,,,,,,,,,,,,,,,,,,,,,,,
,,001,2022-04-28_20h08.05.802,classification_task,2021.2.3,MacIntel,59.84082341,5ec2cdfe3d68ea0ea7ca8909,626b377229c10585ec392f89,626b3a222f0aeed8afb3ff4b,,,,,,,,,,,,,,,,,,,,,,,l,1,"[""0.104"",""0.372"",""0.605"",""0.720""]","[1,0,1,1]",0,52,52,52,1,1,0,,,1,FALSE,0.5682,,,,,,,,,,,,,,,,,,,,,,,,,,,,,,
,,001,2022-04-28_20h08.05.802,classification_task,2021.2.3,MacIntel,59.84082341,5ec2cdfe3d68ea0ea7ca8909,626b377229c10585ec392f89,626b3a222f0aeed8afb3ff4b,,,,,,,,,,,,,,,,,,,,,,,a,1,"[""0.206"",""0.354"",""0.862"",""0.905""]","[1,0,1,1]",0,53,53,53,1,0,1,,,1,FALSE,0.9719,,,,,,,,,,,,,,,,,,,,,,,,,,,,,,
,,001,2022-04-28_20h08.05.802,classification_task,2021.2.3,MacIntel,59.84082341,5ec2cdfe3d68ea0ea7ca8909,626b377229c10585ec392f89,626b3a222f0aeed8afb3ff4b,,,,,,,,,,,,,,,,,,,,,,,a,1,"[""0.206"",""0.541"",""0.862"",""0.370""]","[1,1,1,0]",0,54,54,54,1,0,1,,,1,FALSE,1.3701,,,,,,,,,,,,,,,,,,,,,,,,,,,,,,
,,001,2022-04-28_20h08.05.802,classification_task,2021.2.3,MacIntel,59.84082341,5ec2cdfe3d68ea0ea7ca8909,626b377229c10585ec392f89,626b3a222f0aeed8afb3ff4b,,,,,,,,,,,,,,,,,,,,,,,l,1,"[""0.046"",""0.152"",""0.356"",""0.821""]","[1,1,0,1]",0,55,55,55,1,1,1,,,1,FALSE,0.5556,,,,,,,,,,,,,,,,,,,,,,,,,,,,,,
,,001,2022-04-28_20h08.05.802,classification_task,2021.2.3,MacIntel,59.84082341,5ec2cdfe3d68ea0ea7ca8909,626b377229c10585ec392f89,626b3a222f0aeed8afb3ff4b,,,,,,,,,,,,,,,,,,,,,,,l,1,"[""0.046"",""0.152"",""0.466"",""0.344""]","[1,1,1,0]",0,56,56,56,1,1,1,,,1,FALSE,0.52,,,,,,,,,,,,,,,,,,,,,,,,,,,,,,
,,001,2022-04-28_20h08.05.802,classification_task,2021.2.3,MacIntel,59.84082341,5ec2cdfe3d68ea0ea7ca8909,626b377229c10585ec392f89,626b3a222f0aeed8afb3ff4b,,,,,,,,,,,,,,,,,,,,,,,a,1,"[""0.370"",""0.541"",""0.862"",""0.905""]","[0,1,1,1]",0,57,57,57,1,0,1,,,1,FALSE,0.6184,,,,,,,,,,,,,,,,,,,,,,,,,,,,,,
,,001,2022-04-28_20h08.05.802,classification_task,2021.2.3,MacIntel,59.84082341,5ec2cdfe3d68ea0ea7ca8909,626b377229c10585ec392f89,626b3a222f0aeed8afb3ff4b,,,,,,,,,,,,,,,,,,,,,,,l,1,"[""0.046"",""0.335"",""0.466"",""0.821""]","[1,0,1,1]",0,58,58,58,1,1,1,,,1,FALSE,0.7522,,,,,,,,,,,,,,,,,,,,,,,,,,,,,,
,,001,2022-04-28_20h08.05.802,classification_task,2021.2.3,MacIntel,59.84082341,5ec2cdfe3d68ea0ea7ca8909,626b377229c10585ec392f89,626b3a222f0aeed8afb3ff4b,,,,,,,,,,,,,,,,,,,,,,,l,1,"[""0.104"",""0.244"",""0.356"",""0.720""]","[1,1,0,1]",0,59,59,59,1,1,0,,,1,FALSE,1.0907,,,,,,,,,,,,,,,,,,,,,,,,,,,,,,
,,001,2022-04-28_20h08.05.802,classification_task,2021.2.3,MacIntel,59.84082341,5ec2cdfe3d68ea0ea7ca8909,626b377229c10585ec392f89,626b3a222f0aeed8afb3ff4b,,,,,,,,,,,,,,,,,,,,,,,a,1,"[""0.344"",""0.408"",""0.649"",""0.961""]","[0,1,1,1]",0,60,60,60,1,0,0,,,1,FALSE,0.5368,,,,,,,,,,,,,,,,,,,,,,,,,,,,,,
,,001,2022-04-28_20h08.05.802,classification_task,2021.2.3,MacIntel,59.84082341,5ec2cdfe3d68ea0ea7ca8909,626b377229c10585ec392f89,626b3a222f0aeed8afb3ff4b,,,,,,,,,,,,,,,,,,,,,,,a,0,"[""0.368"",""0.244"",""0.605"",""0.720""]","[0,1,1,1]",0,61,61,61,1,1,0,,,1,FALSE,0.7543,,,,,,,,,,,,,,,,,,,,,,,,,,,,,,
,,001,2022-04-28_20h08.05.802,classification_task,2021.2.3,MacIntel,59.84082341,5ec2cdfe3d68ea0ea7ca8909,626b377229c10585ec392f89,626b3a222f0aeed8afb3ff4b,,,,,,,,,,,,,,,,,,,,,,,a,1,"[""0.206"",""0.541"",""0.362"",""0.905""]","[1,1,0,1]",0,62,62,62,1,0,1,,,1,FALSE,0.954,,,,,,,,,,,,,,,,,,,,,,,,,,,,,,
,,001,2022-04-28_20h08.05.802,classification_task,2021.2.3,MacIntel,59.84082341,5ec2cdfe3d68ea0ea7ca8909,626b377229c10585ec392f89,626b3a222f0aeed8afb3ff4b,,,,,,,,,,,,,,,,,,,,,,,l,1,"[""0.354"",""0.152"",""0.466"",""0.821""]","[0,1,1,1]",0,63,63,63,1,1,1,,,1,FALSE,0.8353,,,,,,,,,,,,,,,,,,,,,,,,,,,,,,
,,001,2022-04-28_20h08.05.802,classification_task,2021.2.3,MacIntel,59.84082341,5ec2cdfe3d68ea0ea7ca8909,626b377229c10585ec392f89,626b3a222f0aeed8afb3ff4b,,,,,,,,,,,,,,,,,,,,,,,,,,,,,,,,,,,,,,,0, ,,0,5.741406709,139.7304,0,2,2,2,1,2,3,,,,,,,,,,,,,,,,,
,,001,2022-04-28_20h08.05.802,classification_task,2021.2.3,MacIntel,59.84082341,5ec2cdfe3d68ea0ea7ca8909,626b377229c10585ec392f89,626b3a222f0aeed8afb3ff4b,,,,,,,,,,,,,,,,,,,,,,,,,,,,,,,,,,,,,,,1,  ,,0,5.916166042,142.2371,0,2,2,2,1,2,3,,,,,,,,,,,,,,,,,
,,001,2022-04-28_20h08.05.802,classification_task,2021.2.3,MacIntel,59.84082341,5ec2cdfe3d68ea0ea7ca8909,626b377229c10585ec392f89,626b3a222f0aeed8afb3ff4b,,,,,,,,,,,,,,,,,,,,,,,,,,,,,,,,,,,,,,,2,  ,,0,0,143.6222,0,2,2,2,1,2,3,,,,,,,,,,,,,,,,,
,,001,2022-04-28_20h08.05.802,classification_task,2021.2.3,MacIntel,59.84082341,5ec2cdfe3d68ea0ea7ca8909,626b377229c10585ec392f89,626b3a222f0aeed8afb3ff4b,,,,,,,,,,,,,,,,,,,,,,,,,,,,,,,,,,,,,,,,,,,,,0,2,2,2,1,,3,,,,,,,,,,,,,,,,,
,,001,2022-04-28_20h08.05.802,classification_task,2021.2.3,MacIntel,59.84082341,5ec2cdfe3d68ea0ea7ca8909,626b377229c10585ec392f89,626b3a222f0aeed8afb3ff4b,,,,,,,,,,,,,,,,,,,,,,,,,,,,,,,,,,,,,,,,,,,,,,,,,,,,,I believe the aid is a competent performer,,0.7,0,5,683.297,0,0,0,0,1,0,,,,
,,001,2022-04-28_20h08.05.802,classification_task,2021.2.3,MacIntel,59.84082341,5ec2cdfe3d68ea0ea7ca8909,626b377229c10585ec392f89,626b3a222f0aeed8afb3ff4b,,,,,,,,,,,,,,,,,,,,,,,,,,,,,,,,,,,,,,,,,,,,,,,,,,,,,I trust the aid,,0.7,0,5,684.3798,0,0,0,0,1,0,,,,
,,001,2022-04-28_20h08.05.802,classification_task,2021.2.3,MacIntel,59.84082341,5ec2cdfe3d68ea0ea7ca8909,626b377229c10585ec392f89,626b3a222f0aeed8afb3ff4b,,,,,,,,,,,,,,,,,,,,,,,,,,,,,,,,,,,,,,,,,,,,,,,,,,,,,I have confidence in the advice given by the aid,,0.7,0,5,685.5485,0,0,0,0,1,0,,,,
,,001,2022-04-28_20h08.05.802,classification_task,2021.2.3,MacIntel,59.84082341,5ec2cdfe3d68ea0ea7ca8909,626b377229c10585ec392f89,626b3a222f0aeed8afb3ff4b,,,,,,,,,,,,,,,,,,,,,,,,,,,,,,,,,,,,,,,,,,,,,,,,,,,,,I can depend on the aid,,0.7,0,5,686.4313,0,0,0,0,1,0,,,,
,,001,2022-04-28_20h08.05.802,classification_task,2021.2.3,MacIntel,59.84082341,5ec2cdfe3d68ea0ea7ca8909,626b377229c10585ec392f89,626b3a222f0aeed8afb3ff4b,,,,,,,,,,,,,,,,,,,,,,,,,,,,,,,,,,,,,,,,,,,,,,,,,,,,,I can rely on the aid to behave in consistent ways,,0.7,0,5,687.7042,0,0,0,0,1,0,,,,
,,001,2022-04-28_20h08.05.802,classification_task,2021.2.3,MacIntel,59.84082341,5ec2cdfe3d68ea0ea7ca8909,626b377229c10585ec392f89,626b3a222f0aeed8afb3ff4b,,,,,,,,,,,,,,,,,,,,,,,,,,,,,,,,,,,,,,,,,,,,,,,,,,,,,I can rely on the aid to do its best every time I take its advice,,0.7,0,5,691.4107,0,0,0,0,1,0,,,,
,,001,2022-04-28_20h08.05.802,classification_task,2021.2.3,MacIntel,59.84082341,5ec2cdfe3d68ea0ea7ca8909,626b377229c10585ec392f89,626b3a222f0aeed8afb3ff4b,,,,,,,,,,,,,,,,,,,,,,,,,,,,,,,,,,,,,,,,,,,,,,,,,,,,,"On trials you completed with assistance from the aid, how frequently did you think the aid was correct?",,0.7,0,100,,0,0,0,0,1,0,,,,
,,001,2022-04-28_20h08.05.802,classification_task,2021.2.3,MacIntel,59.84082341,5ec2cdfe3d68ea0ea7ca8909,626b377229c10585ec392f89,626b3a222f0aeed8afb3ff4b,,,,,,,,,,,,,,,,,,,,,,,,,,,,,,,,,,,,,,,,,,,,,,,,,,,,,"On trials you completed without the aid, how frequently did you think you were correct?",,0.7,0,90,,0,0,0,0,1,0,,,,
,,001,2022-04-28_20h08.05.802,classification_task,2021.2.3,MacIntel,59.84082341,5ec2cdfe3d68ea0ea7ca8909,626b377229c10585ec392f89,626b3a222f0aeed8afb3ff4b,,,,,,,,,,,,,,,,,,,,,,,,,,,,,,,,,,,,,,,,,,,,,,,,,,,,,,,,,,,0,0,0,0,1,,,,,
,,001,2022-04-28_20h08.05.802,classification_task,2021.2.3,MacIntel,59.84082341,5ec2cdfe3d68ea0ea7ca8909,626b377229c10585ec392f89,626b3a222f0aeed8afb3ff4b,,,,,,,,,,,,,,,,,,,,,,,,,,,,,,,,,,,,,,,,,,,,,,,,,,,,,,,,,,,,,,,,,space,3.9594,708.2839,
,,001,2022-04-28_20h08.05.802,classification_task,2021.2.3,MacIntel,59.84082341,5ec2cdfe3d68ea0ea7ca8909,626b377229c10585ec392f89,626b3a222f0aeed8afb3ff4b,,,,,,,,,,,,,,,,,,,,,,,,,,,,,,,,,,,,,,,,,,,,,,,,,,,,,,,,,,,,,,,,,,,,"Mozilla/5.0 (Macintosh; Intel Mac OS X 10_14_6) AppleWebKit/537.36 (KHTML, like Gecko) Chrome/100.0.4896.88 Safari/537.36"
