usingWebGL,participant,session,date,expName,psychopyVersion,OS,frameRate,PROLIFIC_PID,STUDY_ID,SESSION_ID,signatures_friend,signatures_foe,band_ranges_top,band_ranges_bottom,formitemText,formtype,formundefined,formitemWidth,formindex,formresponse,formrt,key_resp_2.keys,key_resp_2.rt,tute_resp.keys,tute_resp.rt,tutorial.thisRepN,tutorial.thisTrialN,tutorial.thisN,tutorial.thisIndex,tutorial.ran,key_resp_4.keys,key_resp_4.rt,key_resp.keys,key_resp.corr,key_resp.rt,lines_presented,is_signal_presented,trials.thisRepN,trials.thisTrialN,trials.thisN,trials.thisIndex,trials.ran,vessel,active_band,lines,is_signal,supported_pos,catch_trial,debrief_formindex,debrief_formitemText,debrief_formtype,debrief_formitemWidth,debrief_formresponse,debrief_formrt,phases.thisRepN,phases.thisTrialN,phases.thisN,phases.thisIndex,phases.ran,phases.order,phase,key_resp_3.keys,trustitemText,trusttype,trustitemWidth,trustindex,trustresponse,trustrt,support_status.thisRepN,support_status.thisTrialN,support_status.thisN,support_status.thisIndex,support_status.ran,support_status.order,key_resp_5.keys,key_resp_5.rt,globalClockTime,userAgent
TRUE,,001,2022-04-29_03h16.44.699,classification_task,2021.2.3,Win32,60.61708189,6160ea8a744d43ad6387051f,626b377229c10585ec392f8a,626b3b4e104fe7502035a0ec,,,,,,,,,,,,,,,,,,,,,,,,,,,,,,,,,,,,,,,,,,,,,,,,,,,,,,,,,,,,,,,,,,,,
,,001,2022-04-29_03h16.44.699,classification_task,2021.2.3,Win32,60.61708189,6160ea8a744d43ad6387051f,626b377229c10585ec392f8a,626b3b4e104fe7502035a0ec,"[[""0.191"",""0.480"",""0.725"",""0.873""],[""0.323"",""0.419"",""0.914"",""0.955""]]","[[""0.094"",""0.233"",""0.548"",""0.825""],[""0.145"",""0.280"",""0.629"",""0.780""]]","[1,10]","[100,1000]",Video game experience,,,0.7,0,,,,,,,,,,,,,,,,,,,,,,,,,,,,,,,,,,,,,,,,,,,,,,,,,,,,,,,,,,,
,,001,2022-04-29_03h16.44.699,classification_task,2021.2.3,Win32,60.61708189,6160ea8a744d43ad6387051f,626b377229c10585ec392f8a,626b3b4e104fe7502035a0ec,,,,,Approximately how many hours did you spend playing video games in the last week?,,,0.7,0,0,,,,,,,,,,,,,,,,,,,,,,,,,,,,,,,,,,,,,,,,,,,,,,,,,,,,,,,,,,
,,001,2022-04-29_03h16.44.699,classification_task,2021.2.3,Win32,60.61708189,6160ea8a744d43ad6387051f,626b377229c10585ec392f8a,626b3b4e104fe7502035a0ec,,,,,"Which game did you play the most this year? (Enter ""None"" if you didn't play any)",,,0.7,0,none,,,,,,,,,,,,,,,,,,,,,,,,,,,,,,,,,,,,,,,,,,,,,,,,,,,,,,,,,,
,,001,2022-04-29_03h16.44.699,classification_task,2021.2.3,Win32,60.61708189,6160ea8a744d43ad6387051f,626b377229c10585ec392f8a,626b3b4e104fe7502035a0ec,,,,,Visual perception,,,0.7,0,,,,,,,,,,,,,,,,,,,,,,,,,,,,,,,,,,,,,,,,,,,,,,,,,,,,,,,,,,,
,,001,2022-04-29_03h16.44.699,classification_task,2021.2.3,Win32,60.61708189,6160ea8a744d43ad6387051f,626b377229c10585ec392f8a,626b3b4e104fe7502035a0ec,,,,,Do you have any form of color blindness?,,,0.7,0,No,45.207,,,,,,,,,,,,,,,,,,,,,,,,,,,,,,,,,,,,,,,,,,,,,,,,,,,,,,,,,
,,001,2022-04-29_03h16.44.699,classification_task,2021.2.3,Win32,60.61708189,6160ea8a744d43ad6387051f,626b377229c10585ec392f8a,626b3b4e104fe7502035a0ec,,,,,Do you use software to change the colour temperature of your screen (e.g. f.lux)?,,,0.7,0,No,51.0122,,,,,,,,,,,,,,,,,,,,,,,,,,,,,,,,,,,,,,,,,,,,,,,,,,,,,,,,,
,,001,2022-04-29_03h16.44.699,classification_task,2021.2.3,Win32,60.61708189,6160ea8a744d43ad6387051f,626b377229c10585ec392f8a,626b3b4e104fe7502035a0ec,,,,,,,,,,,,space,40.7238,space,17.0351,0,0,0,0,1,,,,,,,,,,,,,,,,,,,,,,,,,,,,,,,,,,,,,,,,,,,,,,,,
,,001,2022-04-29_03h16.44.699,classification_task,2021.2.3,Win32,60.61708189,6160ea8a744d43ad6387051f,626b377229c10585ec392f8a,626b3b4e104fe7502035a0ec,,,,,,,,,,,,,,space,11.8424,1,0,1,0,1,,,,,,,,,,,,,,,,,,,,,,,,,,,,,,,,,,,,,,,,,,,,,,,,
,,001,2022-04-29_03h16.44.699,classification_task,2021.2.3,Win32,60.61708189,6160ea8a744d43ad6387051f,626b377229c10585ec392f8a,626b3b4e104fe7502035a0ec,,,,,,,,,,,,,,space,68.6004,2,0,2,0,1,,,,,,,,,,,,,,,,,,,,,,,,,,,,,,,,,,,,,,,,,,,,,,,,
,,001,2022-04-29_03h16.44.699,classification_task,2021.2.3,Win32,60.61708189,6160ea8a744d43ad6387051f,626b377229c10585ec392f8a,626b3b4e104fe7502035a0ec,,,,,,,,,,,,,,space,43.4451,3,0,3,0,1,,,,,,,,,,,,,,,,,,,,,,,,,,,,,,,,,,,,,,,,,,,,,,,,
,,001,2022-04-29_03h16.44.699,classification_task,2021.2.3,Win32,60.61708189,6160ea8a744d43ad6387051f,626b377229c10585ec392f8a,626b3b4e104fe7502035a0ec,,,,,,,,,,,,,,space,24.1029,4,0,4,0,1,,,,,,,,,,,,,,,,,,,,,,,,,,,,,,,,,,,,,,,,,,,,,,,,
,,001,2022-04-29_03h16.44.699,classification_task,2021.2.3,Win32,60.61708189,6160ea8a744d43ad6387051f,626b377229c10585ec392f8a,626b3b4e104fe7502035a0ec,,,,,,,,,,,,,,,,,,,,,space,34.7604,l,1,4.5445,"[""0.145"",""0.036"",""0.629"",""0.780""]","[1,0,1,1]",0,0,0,0,1,1,1,,,0,FALSE,,,,,,,,,,,,,,,,,,,,,,,,,,,,,,
,,001,2022-04-29_03h16.44.699,classification_task,2021.2.3,Win32,60.61708189,6160ea8a744d43ad6387051f,626b377229c10585ec392f8a,626b3b4e104fe7502035a0ec,,,,,,,,,,,,,,,,,,,,,,,a,1,5.4288,"[""0.191"",""0.480"",""0.667"",""0.873""]","[1,1,0,1]",0,1,1,1,1,0,0,,,0,FALSE,,,,,,,,,,,,,,,,,,,,,,,,,,,,,,
,,001,2022-04-29_03h16.44.699,classification_task,2021.2.3,Win32,60.61708189,6160ea8a744d43ad6387051f,626b377229c10585ec392f8a,626b3b4e104fe7502035a0ec,,,,,,,,,,,,,,,,,,,,,,,a,1,3.6334,"[""0.191"",""0.359"",""0.725"",""0.873""]","[1,0,1,1]",0,2,2,2,1,0,0,,,0,FALSE,,,,,,,,,,,,,,,,,,,,,,,,,,,,,,
,,001,2022-04-29_03h16.44.699,classification_task,2021.2.3,Win32,60.61708189,6160ea8a744d43ad6387051f,626b377229c10585ec392f8a,626b3b4e104fe7502035a0ec,,,,,,,,,,,,,,,,,,,,,,,l,1,3.84,"[""0.667"",""0.233"",""0.548"",""0.825""]","[0,1,1,1]",0,3,3,3,1,1,0,,,0,FALSE,,,,,,,,,,,,,,,,,,,,,,,,,,,,,,
,,001,2022-04-29_03h16.44.699,classification_task,2021.2.3,Win32,60.61708189,6160ea8a744d43ad6387051f,626b377229c10585ec392f8a,626b3b4e104fe7502035a0ec,,,,,,,,,,,,,,,,,,,,,,,l,1,3.6566,"[""0.094"",""0.688"",""0.548"",""0.825""]","[1,0,1,1]",0,4,4,4,1,1,0,,,0,FALSE,,,,,,,,,,,,,,,,,,,,,,,,,,,,,,
,,001,2022-04-29_03h16.44.699,classification_task,2021.2.3,Win32,60.61708189,6160ea8a744d43ad6387051f,626b377229c10585ec392f8a,626b3b4e104fe7502035a0ec,,,,,,,,,,,,,,,,,,,,,,,,0,,"[""0.323"",""0.042"",""0.914"",""0.955""]","[1,0,1,1]",0,5,5,5,1,0,1,,,0,FALSE,,,,,,,,,,,,,,,,,,,,,,,,,,,,,,
,,001,2022-04-29_03h16.44.699,classification_task,2021.2.3,Win32,60.61708189,6160ea8a744d43ad6387051f,626b377229c10585ec392f8a,626b3b4e104fe7502035a0ec,,,,,,,,,,,,,,,,,,,,,,,l,1,3.9834,"[""0.145"",""0.280"",""0.667"",""0.780""]","[1,1,0,1]",0,6,6,6,1,1,1,,,0,FALSE,,,,,,,,,,,,,,,,,,,,,,,,,,,,,,
,,001,2022-04-29_03h16.44.699,classification_task,2021.2.3,Win32,60.61708189,6160ea8a744d43ad6387051f,626b377229c10585ec392f8a,626b3b4e104fe7502035a0ec,,,,,,,,,,,,,,,,,,,,,,,l,0,4.5552,"[""0.044"",""0.480"",""0.725"",""0.873""]","[0,1,1,1]",0,7,7,7,1,0,0,,,0,FALSE,,,,,,,,,,,,,,,,,,,,,,,,,,,,,,
,,001,2022-04-29_03h16.44.699,classification_task,2021.2.3,Win32,60.61708189,6160ea8a744d43ad6387051f,626b377229c10585ec392f8a,626b3b4e104fe7502035a0ec,,,,,,,,,,,,,,,,,,,,,,,l,1,4.6167,"[""0.094"",""0.233"",""0.373"",""0.825""]","[1,1,0,1]",0,8,8,8,1,1,0,,,0,FALSE,,,,,,,,,,,,,,,,,,,,,,,,,,,,,,
,,001,2022-04-29_03h16.44.699,classification_task,2021.2.3,Win32,60.61708189,6160ea8a744d43ad6387051f,626b377229c10585ec392f8a,626b3b4e104fe7502035a0ec,,,,,,,,,,,,,,,,,,,,,,,a,1,2.9934,"[""0.191"",""0.480"",""0.725"",""0.688""]","[1,1,1,0]",0,9,9,9,1,0,0,,,0,FALSE,,,,,,,,,,,,,,,,,,,,,,,,,,,,,,
,,001,2022-04-29_03h16.44.699,classification_task,2021.2.3,Win32,60.61708189,6160ea8a744d43ad6387051f,626b377229c10585ec392f8a,626b3b4e104fe7502035a0ec,,,,,,,,,,,,,,,,,,,,,,,a,0,4.9082,"[""0.145"",""0.280"",""0.629"",""0.058""]","[1,1,1,0]",0,10,10,10,1,1,1,,,0,FALSE,,,,,,,,,,,,,,,,,,,,,,,,,,,,,,
,,001,2022-04-29_03h16.44.699,classification_task,2021.2.3,Win32,60.61708189,6160ea8a744d43ad6387051f,626b377229c10585ec392f8a,626b3b4e104fe7502035a0ec,,,,,,,,,,,,,,,,,,,,,,,a,1,4.9924,"[""0.323"",""0.419"",""0.914"",""0.359""]","[1,1,1,0]",0,11,11,11,1,0,1,,,0,FALSE,,,,,,,,,,,,,,,,,,,,,,,,,,,,,,
,,001,2022-04-29_03h16.44.699,classification_task,2021.2.3,Win32,60.61708189,6160ea8a744d43ad6387051f,626b377229c10585ec392f8a,626b3b4e104fe7502035a0ec,,,,,,,,,,,,,,,,,,,,,,,a,0,3.0007,"[""0.380"",""0.280"",""0.629"",""0.780""]","[0,1,1,1]",0,12,12,12,1,1,1,,,0,FALSE,,,,,,,,,,,,,,,,,,,,,,,,,,,,,,
,,001,2022-04-29_03h16.44.699,classification_task,2021.2.3,Win32,60.61708189,6160ea8a744d43ad6387051f,626b377229c10585ec392f8a,626b3b4e104fe7502035a0ec,,,,,,,,,,,,,,,,,,,,,,,l,1,4.1347,"[""0.094"",""0.233"",""0.548"",""0.590""]","[1,1,1,0]",0,13,13,13,1,1,0,,,0,FALSE,,,,,,,,,,,,,,,,,,,,,,,,,,,,,,
,,001,2022-04-29_03h16.44.699,classification_task,2021.2.3,Win32,60.61708189,6160ea8a744d43ad6387051f,626b377229c10585ec392f8a,626b3b4e104fe7502035a0ec,,,,,,,,,,,,,,,,,,,,,,,a,1,2.6749,"[""0.323"",""0.419"",""0.684"",""0.955""]","[1,1,0,1]",0,14,14,14,1,0,1,,,0,FALSE,,,,,,,,,,,,,,,,,,,,,,,,,,,,,,
,,001,2022-04-29_03h16.44.699,classification_task,2021.2.3,Win32,60.61708189,6160ea8a744d43ad6387051f,626b377229c10585ec392f8a,626b3b4e104fe7502035a0ec,,,,,,,,,,,,,,,,,,,,,,,l,0,3.7827,"[""0.058"",""0.419"",""0.914"",""0.955""]","[0,1,1,1]",0,15,15,15,1,0,1,,,0,FALSE,,,,,,,,,,,,,,,,,,,,,,,,,,,,,,
,,001,2022-04-29_03h16.44.699,classification_task,2021.2.3,Win32,60.61708189,6160ea8a744d43ad6387051f,626b377229c10585ec392f8a,626b3b4e104fe7502035a0ec,,,,,,,,,,,,,,,,,,,,,,,l,1,3.2917,"[""0.094"",""0.667"",""0.548"",""0.825""]","[1,0,1,1]",0,16,16,16,1,1,0,,,0,FALSE,,,,,,,,,,,,,,,,,,,,,,,,,,,,,,
,,001,2022-04-29_03h16.44.699,classification_task,2021.2.3,Win32,60.61708189,6160ea8a744d43ad6387051f,626b377229c10585ec392f8a,626b3b4e104fe7502035a0ec,,,,,,,,,,,,,,,,,,,,,,,l,0,3.4181,"[""0.191"",""0.043"",""0.725"",""0.873""]","[1,0,1,1]",0,17,17,17,1,0,0,,,0,FALSE,,,,,,,,,,,,,,,,,,,,,,,,,,,,,,
,,001,2022-04-29_03h16.44.699,classification_task,2021.2.3,Win32,60.61708189,6160ea8a744d43ad6387051f,626b377229c10585ec392f8a,626b3b4e104fe7502035a0ec,,,,,,,,,,,,,,,,,,,,,,,a,1,2.9273,"[""0.323"",""0.419"",""0.914"",""0.585""]","[1,1,1,0]",0,18,18,18,1,0,1,,,0,FALSE,,,,,,,,,,,,,,,,,,,,,,,,,,,,,,
,,001,2022-04-29_03h16.44.699,classification_task,2021.2.3,Win32,60.61708189,6160ea8a744d43ad6387051f,626b377229c10585ec392f8a,626b3b4e104fe7502035a0ec,,,,,,,,,,,,,,,,,,,,,,,l,1,5.6043,"[""0.094"",""0.233"",""0.359"",""0.825""]","[1,1,0,1]",0,19,19,19,1,1,0,,,0,FALSE,,,,,,,,,,,,,,,,,,,,,,,,,,,,,,
,,001,2022-04-29_03h16.44.699,classification_task,2021.2.3,Win32,60.61708189,6160ea8a744d43ad6387051f,626b377229c10585ec392f8a,626b3b4e104fe7502035a0ec,,,,,,,,,,,,,,,,,,,,,,,a,1,3.5505,"[""0.684"",""0.419"",""0.914"",""0.955""]","[0,1,1,1]",0,20,20,20,1,0,1,,,0,FALSE,,,,,,,,,,,,,,,,,,,,,,,,,,,,,,
,,001,2022-04-29_03h16.44.699,classification_task,2021.2.3,Win32,60.61708189,6160ea8a744d43ad6387051f,626b377229c10585ec392f8a,626b3b4e104fe7502035a0ec,,,,,,,,,,,,,,,,,,,,,,,a,1,4.1419,"[""0.191"",""0.480"",""0.725"",""0.357""]","[1,1,1,0]",0,21,21,21,1,0,0,,,0,FALSE,,,,,,,,,,,,,,,,,,,,,,,,,,,,,,
,,001,2022-04-29_03h16.44.699,classification_task,2021.2.3,Win32,60.61708189,6160ea8a744d43ad6387051f,626b377229c10585ec392f8a,626b3b4e104fe7502035a0ec,,,,,,,,,,,,,,,,,,,,,,,l,1,2.5473,"[""0.145"",""0.280"",""0.370"",""0.780""]","[1,1,0,1]",0,22,22,22,1,1,1,,,0,FALSE,,,,,,,,,,,,,,,,,,,,,,,,,,,,,,
,,001,2022-04-29_03h16.44.699,classification_task,2021.2.3,Win32,60.61708189,6160ea8a744d43ad6387051f,626b377229c10585ec392f8a,626b3b4e104fe7502035a0ec,,,,,,,,,,,,,,,,,,,,,,,l,1,2.5868,"[""0.145"",""0.370"",""0.629"",""0.780""]","[1,0,1,1]",0,23,23,23,1,1,1,,,0,FALSE,,,,,,,,,,,,,,,,,,,,,,,,,,,,,,
,,001,2022-04-29_03h16.44.699,classification_task,2021.2.3,Win32,60.61708189,6160ea8a744d43ad6387051f,626b377229c10585ec392f8a,626b3b4e104fe7502035a0ec,,,,,,,,,,,,,,,,,,,,,,,l,1,2.6833,"[""0.094"",""0.233"",""0.548"",""0.357""]","[1,1,1,0]",0,24,24,24,1,1,0,,,0,FALSE,,,,,,,,,,,,,,,,,,,,,,,,,,,,,,
,,001,2022-04-29_03h16.44.699,classification_task,2021.2.3,Win32,60.61708189,6160ea8a744d43ad6387051f,626b377229c10585ec392f8a,626b3b4e104fe7502035a0ec,,,,,,,,,,,,,,,,,,,,,,,l,1,2.6328,"[""0.145"",""0.280"",""0.629"",""0.684""]","[1,1,1,0]",0,25,25,25,1,1,1,,,0,FALSE,,,,,,,,,,,,,,,,,,,,,,,,,,,,,,
,,001,2022-04-29_03h16.44.699,classification_task,2021.2.3,Win32,60.61708189,6160ea8a744d43ad6387051f,626b377229c10585ec392f8a,626b3b4e104fe7502035a0ec,,,,,,,,,,,,,,,,,,,,,,,a,1,2.9927,"[""0.323"",""0.419"",""0.380"",""0.955""]","[1,1,0,1]",0,26,26,26,1,0,1,,,0,FALSE,,,,,,,,,,,,,,,,,,,,,,,,,,,,,,
,,001,2022-04-29_03h16.44.699,classification_task,2021.2.3,Win32,60.61708189,6160ea8a744d43ad6387051f,626b377229c10585ec392f8a,626b3b4e104fe7502035a0ec,,,,,,,,,,,,,,,,,,,,,,,a,0,2.788,"[""0.688"",""0.280"",""0.629"",""0.780""]","[0,1,1,1]",0,27,27,27,1,1,1,,,0,FALSE,,,,,,,,,,,,,,,,,,,,,,,,,,,,,,
,,001,2022-04-29_03h16.44.699,classification_task,2021.2.3,Win32,60.61708189,6160ea8a744d43ad6387051f,626b377229c10585ec392f8a,626b3b4e104fe7502035a0ec,,,,,,,,,,,,,,,,,,,,,,,l,0,2.607,"[""0.323"",""0.036"",""0.914"",""0.955""]","[1,0,1,1]",0,28,28,28,1,0,1,,,0,FALSE,,,,,,,,,,,,,,,,,,,,,,,,,,,,,,
,,001,2022-04-29_03h16.44.699,classification_task,2021.2.3,Win32,60.61708189,6160ea8a744d43ad6387051f,626b377229c10585ec392f8a,626b3b4e104fe7502035a0ec,,,,,,,,,,,,,,,,,,,,,,,l,1,3.557,"[""0.380"",""0.233"",""0.548"",""0.825""]","[0,1,1,1]",0,29,29,29,1,1,0,,,0,FALSE,,,,,,,,,,,,,,,,,,,,,,,,,,,,,,
,,001,2022-04-29_03h16.44.699,classification_task,2021.2.3,Win32,60.61708189,6160ea8a744d43ad6387051f,626b377229c10585ec392f8a,626b3b4e104fe7502035a0ec,,,,,,,,,,,,,,,,,,,,,,,l,0,2.8359,"[""0.191"",""0.480"",""0.042"",""0.873""]","[1,1,0,1]",0,30,30,30,1,0,0,,,0,FALSE,,,,,,,,,,,,,,,,,,,,,,,,,,,,,,
,,001,2022-04-29_03h16.44.699,classification_task,2021.2.3,Win32,60.61708189,6160ea8a744d43ad6387051f,626b377229c10585ec392f8a,626b3b4e104fe7502035a0ec,,,,,,,,,,,,,,,,,,,,,,,a,1,7.2208,"[""0.359"",""0.480"",""0.725"",""0.873""]","[0,1,1,1]",0,31,31,31,1,0,0,,,0,FALSE,,,,,,,,,,,,,,,,,,,,,,,,,,,,,,
,,001,2022-04-29_03h16.44.699,classification_task,2021.2.3,Win32,60.61708189,6160ea8a744d43ad6387051f,626b377229c10585ec392f8a,626b3b4e104fe7502035a0ec,,,,,,,,,,,,,,,,,,,,,,,a,0,3.4706,"[""0.094"",""0.684"",""0.548"",""0.825""]","[1,0,1,1]",0,32,32,32,1,1,0,,,0,FALSE,,,,,,,,,,,,,,,,,,,,,,,,,,,,,,
,,001,2022-04-29_03h16.44.699,classification_task,2021.2.3,Win32,60.61708189,6160ea8a744d43ad6387051f,626b377229c10585ec392f8a,626b3b4e104fe7502035a0ec,,,,,,,,,,,,,,,,,,,,,,,l,0,3.0409,"[""0.191"",""0.480"",""0.725"",""0.044""]","[1,1,1,0]",0,33,33,33,1,0,0,,,0,FALSE,,,,,,,,,,,,,,,,,,,,,,,,,,,,,,
,,001,2022-04-29_03h16.44.699,classification_task,2021.2.3,Win32,60.61708189,6160ea8a744d43ad6387051f,626b377229c10585ec392f8a,626b3b4e104fe7502035a0ec,,,,,,,,,,,,,,,,,,,,,,,l,0,1.8135,"[""0.684"",""0.480"",""0.725"",""0.873""]","[0,1,1,1]",0,34,34,34,1,0,0,,,0,FALSE,,,,,,,,,,,,,,,,,,,,,,,,,,,,,,
,,001,2022-04-29_03h16.44.699,classification_task,2021.2.3,Win32,60.61708189,6160ea8a744d43ad6387051f,626b377229c10585ec392f8a,626b3b4e104fe7502035a0ec,,,,,,,,,,,,,,,,,,,,,,,l,1,2.9598,"[""0.094"",""0.233"",""0.548"",""0.359""]","[1,1,1,0]",0,35,35,35,1,1,0,,,0,FALSE,,,,,,,,,,,,,,,,,,,,,,,,,,,,,,
,,001,2022-04-29_03h16.44.699,classification_task,2021.2.3,Win32,60.61708189,6160ea8a744d43ad6387051f,626b377229c10585ec392f8a,626b3b4e104fe7502035a0ec,,,,,,,,,,,,,,,,,,,,,,,l,1,1.9245,"[""0.688"",""0.280"",""0.629"",""0.780""]","[0,1,1,1]",0,36,36,36,1,1,1,,,0,FALSE,,,,,,,,,,,,,,,,,,,,,,,,,,,,,,
,,001,2022-04-29_03h16.44.699,classification_task,2021.2.3,Win32,60.61708189,6160ea8a744d43ad6387051f,626b377229c10585ec392f8a,626b3b4e104fe7502035a0ec,,,,,,,,,,,,,,,,,,,,,,,a,1,2.1115,"[""0.323"",""0.419"",""0.914"",""0.667""]","[1,1,1,0]",0,37,37,37,1,0,1,,,0,FALSE,,,,,,,,,,,,,,,,,,,,,,,,,,,,,,
,,001,2022-04-29_03h16.44.699,classification_task,2021.2.3,Win32,60.61708189,6160ea8a744d43ad6387051f,626b377229c10585ec392f8a,626b3b4e104fe7502035a0ec,,,,,,,,,,,,,,,,,,,,,,,l,0,1.7581,"[""0.323"",""0.043"",""0.914"",""0.955""]","[1,0,1,1]",0,38,38,38,1,0,1,,,0,FALSE,,,,,,,,,,,,,,,,,,,,,,,,,,,,,,
,,001,2022-04-29_03h16.44.699,classification_task,2021.2.3,Win32,60.61708189,6160ea8a744d43ad6387051f,626b377229c10585ec392f8a,626b3b4e104fe7502035a0ec,,,,,,,,,,,,,,,,,,,,,,,a,1,2.881,"[""0.191"",""0.667"",""0.725"",""0.873""]","[1,0,1,1]",0,39,39,39,1,0,0,,,0,FALSE,,,,,,,,,,,,,,,,,,,,,,,,,,,,,,
,,001,2022-04-29_03h16.44.699,classification_task,2021.2.3,Win32,60.61708189,6160ea8a744d43ad6387051f,626b377229c10585ec392f8a,626b3b4e104fe7502035a0ec,,,,,,,,,,,,,,,,,,,,,,,a,0,2.8308,"[""0.370"",""0.233"",""0.548"",""0.825""]","[0,1,1,1]",0,40,40,40,1,1,0,,,0,FALSE,,,,,,,,,,,,,,,,,,,,,,,,,,,,,,
,,001,2022-04-29_03h16.44.699,classification_task,2021.2.3,Win32,60.61708189,6160ea8a744d43ad6387051f,626b377229c10585ec392f8a,626b3b4e104fe7502035a0ec,,,,,,,,,,,,,,,,,,,,,,,a,1,2.7244,"[""0.323"",""0.419"",""0.688"",""0.955""]","[1,1,0,1]",0,41,41,41,1,0,1,,,0,FALSE,,,,,,,,,,,,,,,,,,,,,,,,,,,,,,
,,001,2022-04-29_03h16.44.699,classification_task,2021.2.3,Win32,60.61708189,6160ea8a744d43ad6387051f,626b377229c10585ec392f8a,626b3b4e104fe7502035a0ec,,,,,,,,,,,,,,,,,,,,,,,l,0,2.5189,"[""0.191"",""0.480"",""0.373"",""0.873""]","[1,1,0,1]",0,42,42,42,1,0,0,,,0,FALSE,,,,,,,,,,,,,,,,,,,,,,,,,,,,,,
,,001,2022-04-29_03h16.44.699,classification_task,2021.2.3,Win32,60.61708189,6160ea8a744d43ad6387051f,626b377229c10585ec392f8a,626b3b4e104fe7502035a0ec,,,,,,,,,,,,,,,,,,,,,,,l,1,1.8897,"[""0.145"",""0.373"",""0.629"",""0.780""]","[1,0,1,1]",0,43,43,43,1,1,1,,,0,FALSE,,,,,,,,,,,,,,,,,,,,,,,,,,,,,,
,,001,2022-04-29_03h16.44.699,classification_task,2021.2.3,Win32,60.61708189,6160ea8a744d43ad6387051f,626b377229c10585ec392f8a,626b3b4e104fe7502035a0ec,,,,,,,,,,,,,,,,,,,,,,,l,1,2.1374,"[""0.145"",""0.280"",""0.629"",""0.058""]","[1,1,1,0]",0,44,44,44,1,1,1,,,0,FALSE,,,,,,,,,,,,,,,,,,,,,,,,,,,,,,
,,001,2022-04-29_03h16.44.699,classification_task,2021.2.3,Win32,60.61708189,6160ea8a744d43ad6387051f,626b377229c10585ec392f8a,626b3b4e104fe7502035a0ec,,,,,,,,,,,,,,,,,,,,,,,l,1,3.512,"[""0.094"",""0.233"",""0.044"",""0.825""]","[1,1,0,1]",0,45,45,45,1,1,0,,,0,FALSE,,,,,,,,,,,,,,,,,,,,,,,,,,,,,,
,,001,2022-04-29_03h16.44.699,classification_task,2021.2.3,Win32,60.61708189,6160ea8a744d43ad6387051f,626b377229c10585ec392f8a,626b3b4e104fe7502035a0ec,,,,,,,,,,,,,,,,,,,,,,,a,1,2.0062,"[""0.688"",""0.419"",""0.914"",""0.955""]","[0,1,1,1]",0,46,46,46,1,0,1,,,0,FALSE,,,,,,,,,,,,,,,,,,,,,,,,,,,,,,
,,001,2022-04-29_03h16.44.699,classification_task,2021.2.3,Win32,60.61708189,6160ea8a744d43ad6387051f,626b377229c10585ec392f8a,626b3b4e104fe7502035a0ec,,,,,,,,,,,,,,,,,,,,,,,l,1,1.9501,"[""0.145"",""0.280"",""0.042"",""0.780""]","[1,1,0,1]",0,47,47,47,1,1,1,,,0,FALSE,,,,,,,,,,,,,,,,,,,,,,,,,,,,,,
,,001,2022-04-29_03h16.44.699,classification_task,2021.2.3,Win32,60.61708189,6160ea8a744d43ad6387051f,626b377229c10585ec392f8a,626b3b4e104fe7502035a0ec,,,,,,,,,,,,,,,,,,,,,,,l,0,1.7301,"[""0.323"",""0.419"",""0.044"",""0.955""]","[1,1,0,1]",0,48,48,48,1,0,1,,,0,FALSE,,,,,,,,,,,,,,,,,,,,,,,,,,,,,,
,,001,2022-04-29_03h16.44.699,classification_task,2021.2.3,Win32,60.61708189,6160ea8a744d43ad6387051f,626b377229c10585ec392f8a,626b3b4e104fe7502035a0ec,,,,,,,,,,,,,,,,,,,,,,,l,0,1.5324,"[""0.359"",""0.419"",""0.914"",""0.955""]","[0,1,1,1]",0,49,49,49,1,0,1,,,0,FALSE,,,,,,,,,,,,,,,,,,,,,,,,,,,,,,
,,001,2022-04-29_03h16.44.699,classification_task,2021.2.3,Win32,60.61708189,6160ea8a744d43ad6387051f,626b377229c10585ec392f8a,626b3b4e104fe7502035a0ec,,,,,,,,,,,,,,,,,,,,,,,a,1,2.2479,"[""0.191"",""0.667"",""0.725"",""0.873""]","[1,0,1,1]",0,50,50,50,1,0,0,,,0,FALSE,,,,,,,,,,,,,,,,,,,,,,,,,,,,,,
,,001,2022-04-29_03h16.44.699,classification_task,2021.2.3,Win32,60.61708189,6160ea8a744d43ad6387051f,626b377229c10585ec392f8a,626b3b4e104fe7502035a0ec,,,,,,,,,,,,,,,,,,,,,,,a,1,2.0968,"[""0.323"",""0.359"",""0.914"",""0.955""]","[1,0,1,1]",0,51,51,51,1,0,1,,,0,FALSE,,,,,,,,,,,,,,,,,,,,,,,,,,,,,,
,,001,2022-04-29_03h16.44.699,classification_task,2021.2.3,Win32,60.61708189,6160ea8a744d43ad6387051f,626b377229c10585ec392f8a,626b3b4e104fe7502035a0ec,,,,,,,,,,,,,,,,,,,,,,,a,0,2.2882,"[""0.094"",""0.233"",""0.058"",""0.825""]","[1,1,0,1]",0,52,52,52,1,1,0,,,0,FALSE,,,,,,,,,,,,,,,,,,,,,,,,,,,,,,
,,001,2022-04-29_03h16.44.699,classification_task,2021.2.3,Win32,60.61708189,6160ea8a744d43ad6387051f,626b377229c10585ec392f8a,626b3b4e104fe7502035a0ec,,,,,,,,,,,,,,,,,,,,,,,a,0,1.2655,"[""0.094"",""0.233"",""0.548"",""0.359""]","[1,1,1,0]",0,53,53,53,1,1,0,,,0,FALSE,,,,,,,,,,,,,,,,,,,,,,,,,,,,,,
,,001,2022-04-29_03h16.44.699,classification_task,2021.2.3,Win32,60.61708189,6160ea8a744d43ad6387051f,626b377229c10585ec392f8a,626b3b4e104fe7502035a0ec,,,,,,,,,,,,,,,,,,,,,,,a,0,0.7521,"[""0.585"",""0.233"",""0.548"",""0.825""]","[0,1,1,1]",0,54,54,54,1,1,0,,,0,FALSE,,,,,,,,,,,,,,,,,,,,,,,,,,,,,,
,,001,2022-04-29_03h16.44.699,classification_task,2021.2.3,Win32,60.61708189,6160ea8a744d43ad6387051f,626b377229c10585ec392f8a,626b3b4e104fe7502035a0ec,,,,,,,,,,,,,,,,,,,,,,,l,0,1.4744,"[""0.323"",""0.419"",""0.914"",""0.688""]","[1,1,1,0]",0,55,55,55,1,0,1,,,0,FALSE,,,,,,,,,,,,,,,,,,,,,,,,,,,,,,
,,001,2022-04-29_03h16.44.699,classification_task,2021.2.3,Win32,60.61708189,6160ea8a744d43ad6387051f,626b377229c10585ec392f8a,626b3b4e104fe7502035a0ec,,,,,,,,,,,,,,,,,,,,,,,l,1,1.7746,"[""0.145"",""0.667"",""0.629"",""0.780""]","[1,0,1,1]",0,56,56,56,1,1,1,,,0,FALSE,,,,,,,,,,,,,,,,,,,,,,,,,,,,,,
,,001,2022-04-29_03h16.44.699,classification_task,2021.2.3,Win32,60.61708189,6160ea8a744d43ad6387051f,626b377229c10585ec392f8a,626b3b4e104fe7502035a0ec,,,,,,,,,,,,,,,,,,,,,,,l,0,1.2496,"[""0.191"",""0.480"",""0.725"",""0.044""]","[1,1,1,0]",0,57,57,57,1,0,0,,,0,FALSE,,,,,,,,,,,,,,,,,,,,,,,,,,,,,,
,,001,2022-04-29_03h16.44.699,classification_task,2021.2.3,Win32,60.61708189,6160ea8a744d43ad6387051f,626b377229c10585ec392f8a,626b3b4e104fe7502035a0ec,,,,,,,,,,,,,,,,,,,,,,,a,1,1.4462,"[""0.043"",""0.480"",""0.725"",""0.873""]","[0,1,1,1]",0,58,58,58,1,0,0,,,0,FALSE,,,,,,,,,,,,,,,,,,,,,,,,,,,,,,
,,001,2022-04-29_03h16.44.699,classification_task,2021.2.3,Win32,60.61708189,6160ea8a744d43ad6387051f,626b377229c10585ec392f8a,626b3b4e104fe7502035a0ec,,,,,,,,,,,,,,,,,,,,,,,l,0,1.3883,"[""0.191"",""0.480"",""0.373"",""0.873""]","[1,1,0,1]",0,59,59,59,1,0,0,,,0,FALSE,,,,,,,,,,,,,,,,,,,,,,,,,,,,,,
,,001,2022-04-29_03h16.44.699,classification_task,2021.2.3,Win32,60.61708189,6160ea8a744d43ad6387051f,626b377229c10585ec392f8a,626b3b4e104fe7502035a0ec,,,,,,,,,,,,,,,,,,,,,,,l,1,1.4941,"[""0.042"",""0.280"",""0.629"",""0.780""]","[0,1,1,1]",0,60,60,60,1,1,1,,,0,FALSE,,,,,,,,,,,,,,,,,,,,,,,,,,,,,,
,,001,2022-04-29_03h16.44.699,classification_task,2021.2.3,Win32,60.61708189,6160ea8a744d43ad6387051f,626b377229c10585ec392f8a,626b3b4e104fe7502035a0ec,,,,,,,,,,,,,,,,,,,,,,,a,0,1.8706,"[""0.145"",""0.280"",""0.629"",""0.370""]","[1,1,1,0]",0,61,61,61,1,1,1,,,0,FALSE,,,,,,,,,,,,,,,,,,,,,,,,,,,,,,
,,001,2022-04-29_03h16.44.699,classification_task,2021.2.3,Win32,60.61708189,6160ea8a744d43ad6387051f,626b377229c10585ec392f8a,626b3b4e104fe7502035a0ec,,,,,,,,,,,,,,,,,,,,,,,l,1,1.068,"[""0.145"",""0.280"",""0.043"",""0.780""]","[1,1,0,1]",0,62,62,62,1,1,1,,,0,FALSE,,,,,,,,,,,,,,,,,,,,,,,,,,,,,,
,,001,2022-04-29_03h16.44.699,classification_task,2021.2.3,Win32,60.61708189,6160ea8a744d43ad6387051f,626b377229c10585ec392f8a,626b3b4e104fe7502035a0ec,,,,,,,,,,,,,,,,,,,,,,,l,1,1.0128,"[""0.094"",""0.590"",""0.548"",""0.825""]","[1,0,1,1]",0,63,63,63,1,1,0,,,0,FALSE,,,,,,,,,,,,,,,,,,,,,,,,,,,,,,
,,001,2022-04-29_03h16.44.699,classification_task,2021.2.3,Win32,60.61708189,6160ea8a744d43ad6387051f,626b377229c10585ec392f8a,626b3b4e104fe7502035a0ec,,,,,,,,,,,,,,,,,,,,,,,,,,,,,,,,,,,,,,,0, ,,0,0,591.7286,0,0,0,0,1,2,1,,,,,,,,,,,,,,,,,
,,001,2022-04-29_03h16.44.699,classification_task,2021.2.3,Win32,60.61708189,6160ea8a744d43ad6387051f,626b377229c10585ec392f8a,626b3b4e104fe7502035a0ec,,,,,,,,,,,,,,,,,,,,,,,,,,,,,,,,,,,,,,,1,  ,,0,10,598.1696,0,0,0,0,1,2,1,,,,,,,,,,,,,,,,,
,,001,2022-04-29_03h16.44.699,classification_task,2021.2.3,Win32,60.61708189,6160ea8a744d43ad6387051f,626b377229c10585ec392f8a,626b3b4e104fe7502035a0ec,,,,,,,,,,,,,,,,,,,,,,,,,,,,,,,,,,,,,,,2,  ,,0,7.890457342,606.342,0,0,0,0,1,2,1,,,,,,,,,,,,,,,,,
,,001,2022-04-29_03h16.44.699,classification_task,2021.2.3,Win32,60.61708189,6160ea8a744d43ad6387051f,626b377229c10585ec392f8a,626b3b4e104fe7502035a0ec,,,,,,,,,,,,,,,,,,,,,,,,,,,,,,,,,,,,,,,,,,,,,0,0,0,0,1,,1,,,,,,,,,,,,,,,,,
,,001,2022-04-29_03h16.44.699,classification_task,2021.2.3,Win32,60.61708189,6160ea8a744d43ad6387051f,626b377229c10585ec392f8a,626b3b4e104fe7502035a0ec,,,,,,,,,,,,,,,,,,,,,space,19.7745,a,0,3.4492,"[""0.667"",""0.280"",""0.629"",""0.780""]","[0,1,1,1]",0,0,0,0,1,1,1,,,0,FALSE,,,,,,,,,,,,,,,,,,,,,,,,,,,,,,
,,001,2022-04-29_03h16.44.699,classification_task,2021.2.3,Win32,60.61708189,6160ea8a744d43ad6387051f,626b377229c10585ec392f8a,626b3b4e104fe7502035a0ec,,,,,,,,,,,,,,,,,,,,,,,l,0,2.0816,"[""0.323"",""0.419"",""0.359"",""0.955""]","[1,1,0,1]",0,1,1,1,1,0,1,,,0,FALSE,,,,,,,,,,,,,,,,,,,,,,,,,,,,,,
,,001,2022-04-29_03h16.44.699,classification_task,2021.2.3,Win32,60.61708189,6160ea8a744d43ad6387051f,626b377229c10585ec392f8a,626b3b4e104fe7502035a0ec,,,,,,,,,,,,,,,,,,,,,,,l,0,0.5575,"[""0.323"",""0.359"",""0.914"",""0.955""]","[1,0,1,1]",0,2,2,2,1,0,1,,,0,FALSE,,,,,,,,,,,,,,,,,,,,,,,,,,,,,,
,,001,2022-04-29_03h16.44.699,classification_task,2021.2.3,Win32,60.61708189,6160ea8a744d43ad6387051f,626b377229c10585ec392f8a,626b3b4e104fe7502035a0ec,,,,,,,,,,,,,,,,,,,,,,,l,0,0.2822,"[""0.043"",""0.419"",""0.914"",""0.955""]","[0,1,1,1]",0,3,3,3,1,0,1,,,0,FALSE,,,,,,,,,,,,,,,,,,,,,,,,,,,,,,
,,001,2022-04-29_03h16.44.699,classification_task,2021.2.3,Win32,60.61708189,6160ea8a744d43ad6387051f,626b377229c10585ec392f8a,626b3b4e104fe7502035a0ec,,,,,,,,,,,,,,,,,,,,,,,l,0,0.2658,"[""0.191"",""0.480"",""0.725"",""0.042""]","[1,1,1,0]",0,4,4,4,1,0,0,,,0,FALSE,,,,,,,,,,,,,,,,,,,,,,,,,,,,,,
,,001,2022-04-29_03h16.44.699,classification_task,2021.2.3,Win32,60.61708189,6160ea8a744d43ad6387051f,626b377229c10585ec392f8a,626b3b4e104fe7502035a0ec,,,,,,,,,,,,,,,,,,,,,,,l,1,0.3278,"[""0.380"",""0.233"",""0.548"",""0.825""]","[0,1,1,1]",0,5,5,5,1,1,0,,,0,FALSE,,,,,,,,,,,,,,,,,,,,,,,,,,,,,,
,,001,2022-04-29_03h16.44.699,classification_task,2021.2.3,Win32,60.61708189,6160ea8a744d43ad6387051f,626b377229c10585ec392f8a,626b3b4e104fe7502035a0ec,,,,,,,,,,,,,,,,,,,,,,,a,1,2.5092,"[""0.191"",""0.688"",""0.725"",""0.873""]","[1,0,1,1]",0,6,6,6,1,0,0,,,0,FALSE,,,,,,,,,,,,,,,,,,,,,,,,,,,,,,
,,001,2022-04-29_03h16.44.699,classification_task,2021.2.3,Win32,60.61708189,6160ea8a744d43ad6387051f,626b377229c10585ec392f8a,626b3b4e104fe7502035a0ec,,,,,,,,,,,,,,,,,,,,,,,l,1,1.7385,"[""0.094"",""0.233"",""0.684"",""0.825""]","[1,1,0,1]",0,7,7,7,1,1,0,,,0,FALSE,,,,,,,,,,,,,,,,,,,,,,,,,,,,,,
,,001,2022-04-29_03h16.44.699,classification_task,2021.2.3,Win32,60.61708189,6160ea8a744d43ad6387051f,626b377229c10585ec392f8a,626b3b4e104fe7502035a0ec,,,,,,,,,,,,,,,,,,,,,,,l,1,2.3154,"[""0.145"",""0.280"",""0.629"",""0.667""]","[1,1,1,0]",0,8,8,8,1,1,1,,,0,FALSE,,,,,,,,,,,,,,,,,,,,,,,,,,,,,,
,,001,2022-04-29_03h16.44.699,classification_task,2021.2.3,Win32,60.61708189,6160ea8a744d43ad6387051f,626b377229c10585ec392f8a,626b3b4e104fe7502035a0ec,,,,,,,,,,,,,,,,,,,,,,,a,1,2.8028,"[""0.323"",""0.419"",""0.914"",""0.373""]","[1,1,1,0]",0,9,9,9,1,0,1,,,0,FALSE,,,,,,,,,,,,,,,,,,,,,,,,,,,,,,
,,001,2022-04-29_03h16.44.699,classification_task,2021.2.3,Win32,60.61708189,6160ea8a744d43ad6387051f,626b377229c10585ec392f8a,626b3b4e104fe7502035a0ec,,,,,,,,,,,,,,,,,,,,,,,l,1,2.1721,"[""0.145"",""0.359"",""0.629"",""0.780""]","[1,0,1,1]",0,10,10,10,1,1,1,,,0,FALSE,,,,,,,,,,,,,,,,,,,,,,,,,,,,,,
,,001,2022-04-29_03h16.44.699,classification_task,2021.2.3,Win32,60.61708189,6160ea8a744d43ad6387051f,626b377229c10585ec392f8a,626b3b4e104fe7502035a0ec,,,,,,,,,,,,,,,,,,,,,,,l,1,2.9528,"[""0.094"",""0.233"",""0.548"",""0.036""]","[1,1,1,0]",0,11,11,11,1,1,0,,,0,FALSE,,,,,,,,,,,,,,,,,,,,,,,,,,,,,,
,,001,2022-04-29_03h16.44.699,classification_task,2021.2.3,Win32,60.61708189,6160ea8a744d43ad6387051f,626b377229c10585ec392f8a,626b3b4e104fe7502035a0ec,,,,,,,,,,,,,,,,,,,,,,,l,1,1.6194,"[""0.094"",""0.370"",""0.548"",""0.825""]","[1,0,1,1]",0,12,12,12,1,1,0,,,0,FALSE,,,,,,,,,,,,,,,,,,,,,,,,,,,,,,
,,001,2022-04-29_03h16.44.699,classification_task,2021.2.3,Win32,60.61708189,6160ea8a744d43ad6387051f,626b377229c10585ec392f8a,626b3b4e104fe7502035a0ec,,,,,,,,,,,,,,,,,,,,,,,a,1,2.0159,"[""0.373"",""0.480"",""0.725"",""0.873""]","[0,1,1,1]",0,13,13,13,1,0,0,,,0,FALSE,,,,,,,,,,,,,,,,,,,,,,,,,,,,,,
,,001,2022-04-29_03h16.44.699,classification_task,2021.2.3,Win32,60.61708189,6160ea8a744d43ad6387051f,626b377229c10585ec392f8a,626b3b4e104fe7502035a0ec,,,,,,,,,,,,,,,,,,,,,,,l,1,1.9748,"[""0.145"",""0.280"",""0.684"",""0.780""]","[1,1,0,1]",0,14,14,14,1,1,1,,,0,FALSE,,,,,,,,,,,,,,,,,,,,,,,,,,,,,,
,,001,2022-04-29_03h16.44.699,classification_task,2021.2.3,Win32,60.61708189,6160ea8a744d43ad6387051f,626b377229c10585ec392f8a,626b3b4e104fe7502035a0ec,,,,,,,,,,,,,,,,,,,,,,,l,0,3.4818,"[""0.191"",""0.480"",""0.357"",""0.873""]","[1,1,0,1]",0,15,15,15,1,0,0,,,0,FALSE,,,,,,,,,,,,,,,,,,,,,,,,,,,,,,
,,001,2022-04-29_03h16.44.699,classification_task,2021.2.3,Win32,60.61708189,6160ea8a744d43ad6387051f,626b377229c10585ec392f8a,626b3b4e104fe7502035a0ec,,,,,,,,,,,,,,,,,,,,,,,a,1,2.3122,"[""0.684"",""0.480"",""0.725"",""0.873""]","[0,1,1,1]",0,16,16,16,1,0,0,,,0,FALSE,,,,,,,,,,,,,,,,,,,,,,,,,,,,,,
,,001,2022-04-29_03h16.44.699,classification_task,2021.2.3,Win32,60.61708189,6160ea8a744d43ad6387051f,626b377229c10585ec392f8a,626b3b4e104fe7502035a0ec,,,,,,,,,,,,,,,,,,,,,,,l,1,1.52,"[""0.043"",""0.280"",""0.629"",""0.780""]","[0,1,1,1]",0,17,17,17,1,1,1,,,0,FALSE,,,,,,,,,,,,,,,,,,,,,,,,,,,,,,
,,001,2022-04-29_03h16.44.699,classification_task,2021.2.3,Win32,60.61708189,6160ea8a744d43ad6387051f,626b377229c10585ec392f8a,626b3b4e104fe7502035a0ec,,,,,,,,,,,,,,,,,,,,,,,l,0,3.1447,"[""0.191"",""0.480"",""0.044"",""0.873""]","[1,1,0,1]",0,18,18,18,1,0,0,,,0,FALSE,,,,,,,,,,,,,,,,,,,,,,,,,,,,,,
,,001,2022-04-29_03h16.44.699,classification_task,2021.2.3,Win32,60.61708189,6160ea8a744d43ad6387051f,626b377229c10585ec392f8a,626b3b4e104fe7502035a0ec,,,,,,,,,,,,,,,,,,,,,,,l,1,1.9834,"[""0.145"",""0.359"",""0.629"",""0.780""]","[1,0,1,1]",0,19,19,19,1,1,1,,,0,FALSE,,,,,,,,,,,,,,,,,,,,,,,,,,,,,,
,,001,2022-04-29_03h16.44.699,classification_task,2021.2.3,Win32,60.61708189,6160ea8a744d43ad6387051f,626b377229c10585ec392f8a,626b3b4e104fe7502035a0ec,,,,,,,,,,,,,,,,,,,,,,,l,0,2.635,"[""0.191"",""0.480"",""0.725"",""0.684""]","[1,1,1,0]",0,20,20,20,1,0,0,,,0,FALSE,,,,,,,,,,,,,,,,,,,,,,,,,,,,,,
,,001,2022-04-29_03h16.44.699,classification_task,2021.2.3,Win32,60.61708189,6160ea8a744d43ad6387051f,626b377229c10585ec392f8a,626b3b4e104fe7502035a0ec,,,,,,,,,,,,,,,,,,,,,,,l,1,1.3022,"[""0.043"",""0.233"",""0.548"",""0.825""]","[0,1,1,1]",0,21,21,21,1,1,0,,,0,FALSE,,,,,,,,,,,,,,,,,,,,,,,,,,,,,,
,,001,2022-04-29_03h16.44.699,classification_task,2021.2.3,Win32,60.61708189,6160ea8a744d43ad6387051f,626b377229c10585ec392f8a,626b3b4e104fe7502035a0ec,,,,,,,,,,,,,,,,,,,,,,,a,1,1.3562,"[""0.191"",""0.359"",""0.725"",""0.873""]","[1,0,1,1]",0,22,22,22,1,0,0,,,0,FALSE,,,,,,,,,,,,,,,,,,,,,,,,,,,,,,
,,001,2022-04-29_03h16.44.699,classification_task,2021.2.3,Win32,60.61708189,6160ea8a744d43ad6387051f,626b377229c10585ec392f8a,626b3b4e104fe7502035a0ec,,,,,,,,,,,,,,,,,,,,,,,a,1,1.6817,"[""0.323"",""0.357"",""0.914"",""0.955""]","[1,0,1,1]",0,23,23,23,1,0,1,,,0,FALSE,,,,,,,,,,,,,,,,,,,,,,,,,,,,,,
,,001,2022-04-29_03h16.44.699,classification_task,2021.2.3,Win32,60.61708189,6160ea8a744d43ad6387051f,626b377229c10585ec392f8a,626b3b4e104fe7502035a0ec,,,,,,,,,,,,,,,,,,,,,,,a,1,1.364,"[""0.323"",""0.419"",""0.914"",""0.359""]","[1,1,1,0]",0,24,24,24,1,0,1,,,0,FALSE,,,,,,,,,,,,,,,,,,,,,,,,,,,,,,
,,001,2022-04-29_03h16.44.699,classification_task,2021.2.3,Win32,60.61708189,6160ea8a744d43ad6387051f,626b377229c10585ec392f8a,626b3b4e104fe7502035a0ec,,,,,,,,,,,,,,,,,,,,,,,l,1,2.7018,"[""0.094"",""0.370"",""0.548"",""0.825""]","[1,0,1,1]",0,25,25,25,1,1,0,,,0,FALSE,,,,,,,,,,,,,,,,,,,,,,,,,,,,,,
,,001,2022-04-29_03h16.44.699,classification_task,2021.2.3,Win32,60.61708189,6160ea8a744d43ad6387051f,626b377229c10585ec392f8a,626b3b4e104fe7502035a0ec,,,,,,,,,,,,,,,,,,,,,,,l,1,1.1303,"[""0.094"",""0.233"",""0.548"",""0.042""]","[1,1,1,0]",0,26,26,26,1,1,0,,,0,FALSE,,,,,,,,,,,,,,,,,,,,,,,,,,,,,,
,,001,2022-04-29_03h16.44.699,classification_task,2021.2.3,Win32,60.61708189,6160ea8a744d43ad6387051f,626b377229c10585ec392f8a,626b3b4e104fe7502035a0ec,,,,,,,,,,,,,,,,,,,,,,,a,0,2.0188,"[""0.145"",""0.280"",""0.380"",""0.780""]","[1,1,0,1]",0,27,27,27,1,1,1,,,0,FALSE,,,,,,,,,,,,,,,,,,,,,,,,,,,,,,
,,001,2022-04-29_03h16.44.699,classification_task,2021.2.3,Win32,60.61708189,6160ea8a744d43ad6387051f,626b377229c10585ec392f8a,626b3b4e104fe7502035a0ec,,,,,,,,,,,,,,,,,,,,,,,l,1,0.6763,"[""0.145"",""0.280"",""0.629"",""0.359""]","[1,1,1,0]",0,28,28,28,1,1,1,,,0,FALSE,,,,,,,,,,,,,,,,,,,,,,,,,,,,,,
,,001,2022-04-29_03h16.44.699,classification_task,2021.2.3,Win32,60.61708189,6160ea8a744d43ad6387051f,626b377229c10585ec392f8a,626b3b4e104fe7502035a0ec,,,,,,,,,,,,,,,,,,,,,,,l,1,1.1301,"[""0.094"",""0.233"",""0.684"",""0.825""]","[1,1,0,1]",0,29,29,29,1,1,0,,,0,FALSE,,,,,,,,,,,,,,,,,,,,,,,,,,,,,,
,,001,2022-04-29_03h16.44.699,classification_task,2021.2.3,Win32,60.61708189,6160ea8a744d43ad6387051f,626b377229c10585ec392f8a,626b3b4e104fe7502035a0ec,,,,,,,,,,,,,,,,,,,,,,,a,1,1.3447,"[""0.380"",""0.419"",""0.914"",""0.955""]","[0,1,1,1]",0,30,30,30,1,0,1,,,0,FALSE,,,,,,,,,,,,,,,,,,,,,,,,,,,,,,
,,001,2022-04-29_03h16.44.699,classification_task,2021.2.3,Win32,60.61708189,6160ea8a744d43ad6387051f,626b377229c10585ec392f8a,626b3b4e104fe7502035a0ec,,,,,,,,,,,,,,,,,,,,,,,a,1,1.2556,"[""0.323"",""0.419"",""0.590"",""0.955""]","[1,1,0,1]",0,31,31,31,1,0,1,,,0,FALSE,,,,,,,,,,,,,,,,,,,,,,,,,,,,,,
,,001,2022-04-29_03h16.44.699,classification_task,2021.2.3,Win32,60.61708189,6160ea8a744d43ad6387051f,626b377229c10585ec392f8a,626b3b4e104fe7502035a0ec,,,,,,,,,,,,,,,,,,,,,,,a,1,2.0955,"[""0.191"",""0.480"",""0.380"",""0.873""]","[1,1,0,1]",0,32,32,32,1,0,0,,,0,FALSE,,,,,,,,,,,,,,,,,,,,,,,,,,,,,,
,,001,2022-04-29_03h16.44.699,classification_task,2021.2.3,Win32,60.61708189,6160ea8a744d43ad6387051f,626b377229c10585ec392f8a,626b3b4e104fe7502035a0ec,,,,,,,,,,,,,,,,,,,,,,,l,1,1.0219,"[""0.094"",""0.688"",""0.548"",""0.825""]","[1,0,1,1]",0,33,33,33,1,1,0,,,0,FALSE,,,,,,,,,,,,,,,,,,,,,,,,,,,,,,
,,001,2022-04-29_03h16.44.699,classification_task,2021.2.3,Win32,60.61708189,6160ea8a744d43ad6387051f,626b377229c10585ec392f8a,626b3b4e104fe7502035a0ec,,,,,,,,,,,,,,,,,,,,,,,a,1,2.2287,"[""0.323"",""0.419"",""0.914"",""0.359""]","[1,1,1,0]",0,34,34,34,1,0,1,,,0,FALSE,,,,,,,,,,,,,,,,,,,,,,,,,,,,,,
,,001,2022-04-29_03h16.44.699,classification_task,2021.2.3,Win32,60.61708189,6160ea8a744d43ad6387051f,626b377229c10585ec392f8a,626b3b4e104fe7502035a0ec,,,,,,,,,,,,,,,,,,,,,,,a,1,1.2052,"[""0.323"",""0.419"",""0.373"",""0.955""]","[1,1,0,1]",0,35,35,35,1,0,1,,,0,FALSE,,,,,,,,,,,,,,,,,,,,,,,,,,,,,,
,,001,2022-04-29_03h16.44.699,classification_task,2021.2.3,Win32,60.61708189,6160ea8a744d43ad6387051f,626b377229c10585ec392f8a,626b3b4e104fe7502035a0ec,,,,,,,,,,,,,,,,,,,,,,,a,1,1.8029,"[""0.191"",""0.359"",""0.725"",""0.873""]","[1,0,1,1]",0,36,36,36,1,0,0,,,0,FALSE,,,,,,,,,,,,,,,,,,,,,,,,,,,,,,
,,001,2022-04-29_03h16.44.699,classification_task,2021.2.3,Win32,60.61708189,6160ea8a744d43ad6387051f,626b377229c10585ec392f8a,626b3b4e104fe7502035a0ec,,,,,,,,,,,,,,,,,,,,,,,l,0,3.0316,"[""0.667"",""0.480"",""0.725"",""0.873""]","[0,1,1,1]",0,37,37,37,1,0,0,,,0,FALSE,,,,,,,,,,,,,,,,,,,,,,,,,,,,,,
,,001,2022-04-29_03h16.44.699,classification_task,2021.2.3,Win32,60.61708189,6160ea8a744d43ad6387051f,626b377229c10585ec392f8a,626b3b4e104fe7502035a0ec,,,,,,,,,,,,,,,,,,,,,,,l,1,1.3243,"[""0.036"",""0.233"",""0.548"",""0.825""]","[0,1,1,1]",0,38,38,38,1,1,0,,,0,FALSE,,,,,,,,,,,,,,,,,,,,,,,,,,,,,,
,,001,2022-04-29_03h16.44.699,classification_task,2021.2.3,Win32,60.61708189,6160ea8a744d43ad6387051f,626b377229c10585ec392f8a,626b3b4e104fe7502035a0ec,,,,,,,,,,,,,,,,,,,,,,,a,1,1.7278,"[""0.380"",""0.419"",""0.914"",""0.955""]","[0,1,1,1]",0,39,39,39,1,0,1,,,0,FALSE,,,,,,,,,,,,,,,,,,,,,,,,,,,,,,
,,001,2022-04-29_03h16.44.699,classification_task,2021.2.3,Win32,60.61708189,6160ea8a744d43ad6387051f,626b377229c10585ec392f8a,626b3b4e104fe7502035a0ec,,,,,,,,,,,,,,,,,,,,,,,l,1,1.6582,"[""0.145"",""0.590"",""0.629"",""0.780""]","[1,0,1,1]",0,40,40,40,1,1,1,,,0,FALSE,,,,,,,,,,,,,,,,,,,,,,,,,,,,,,
,,001,2022-04-29_03h16.44.699,classification_task,2021.2.3,Win32,60.61708189,6160ea8a744d43ad6387051f,626b377229c10585ec392f8a,626b3b4e104fe7502035a0ec,,,,,,,,,,,,,,,,,,,,,,,l,1,1.2148,"[""0.094"",""0.233"",""0.548"",""0.590""]","[1,1,1,0]",0,41,41,41,1,1,0,,,0,FALSE,,,,,,,,,,,,,,,,,,,,,,,,,,,,,,
,,001,2022-04-29_03h16.44.699,classification_task,2021.2.3,Win32,60.61708189,6160ea8a744d43ad6387051f,626b377229c10585ec392f8a,626b3b4e104fe7502035a0ec,,,,,,,,,,,,,,,,,,,,,,,a,0,1.2951,"[""0.373"",""0.280"",""0.629"",""0.780""]","[0,1,1,1]",0,42,42,42,1,1,1,,,0,FALSE,,,,,,,,,,,,,,,,,,,,,,,,,,,,,,
,,001,2022-04-29_03h16.44.699,classification_task,2021.2.3,Win32,60.61708189,6160ea8a744d43ad6387051f,626b377229c10585ec392f8a,626b3b4e104fe7502035a0ec,,,,,,,,,,,,,,,,,,,,,,,l,0,0.7883,"[""0.323"",""0.688"",""0.914"",""0.955""]","[1,0,1,1]",0,43,43,43,1,0,1,,,0,FALSE,,,,,,,,,,,,,,,,,,,,,,,,,,,,,,
,,001,2022-04-29_03h16.44.699,classification_task,2021.2.3,Win32,60.61708189,6160ea8a744d43ad6387051f,626b377229c10585ec392f8a,626b3b4e104fe7502035a0ec,,,,,,,,,,,,,,,,,,,,,,,a,0,1.6826,"[""0.145"",""0.280"",""0.370"",""0.780""]","[1,1,0,1]",0,44,44,44,1,1,1,,,0,FALSE,,,,,,,,,,,,,,,,,,,,,,,,,,,,,,
,,001,2022-04-29_03h16.44.699,classification_task,2021.2.3,Win32,60.61708189,6160ea8a744d43ad6387051f,626b377229c10585ec392f8a,626b3b4e104fe7502035a0ec,,,,,,,,,,,,,,,,,,,,,,,a,1,1.4926,"[""0.191"",""0.480"",""0.725"",""0.380""]","[1,1,1,0]",0,45,45,45,1,0,0,,,0,FALSE,,,,,,,,,,,,,,,,,,,,,,,,,,,,,,
,,001,2022-04-29_03h16.44.699,classification_task,2021.2.3,Win32,60.61708189,6160ea8a744d43ad6387051f,626b377229c10585ec392f8a,626b3b4e104fe7502035a0ec,,,,,,,,,,,,,,,,,,,,,,,a,0,1.3887,"[""0.145"",""0.280"",""0.629"",""0.667""]","[1,1,1,0]",0,46,46,46,1,1,1,,,0,FALSE,,,,,,,,,,,,,,,,,,,,,,,,,,,,,,
,,001,2022-04-29_03h16.44.699,classification_task,2021.2.3,Win32,60.61708189,6160ea8a744d43ad6387051f,626b377229c10585ec392f8a,626b3b4e104fe7502035a0ec,,,,,,,,,,,,,,,,,,,,,,,l,1,1.1359,"[""0.094"",""0.233"",""0.043"",""0.825""]","[1,1,0,1]",0,47,47,47,1,1,0,,,0,FALSE,,,,,,,,,,,,,,,,,,,,,,,,,,,,,,
,,001,2022-04-29_03h16.44.699,classification_task,2021.2.3,Win32,60.61708189,6160ea8a744d43ad6387051f,626b377229c10585ec392f8a,626b3b4e104fe7502035a0ec,,,,,,,,,,,,,,,,,,,,,,,a,1,2.8087,"[""0.357"",""0.480"",""0.725"",""0.873""]","[0,1,1,1]",0,48,48,48,1,0,0,,,0,FALSE,,,,,,,,,,,,,,,,,,,,,,,,,,,,,,
,,001,2022-04-29_03h16.44.699,classification_task,2021.2.3,Win32,60.61708189,6160ea8a744d43ad6387051f,626b377229c10585ec392f8a,626b3b4e104fe7502035a0ec,,,,,,,,,,,,,,,,,,,,,,,l,1,1.2537,"[""0.145"",""0.280"",""0.058"",""0.780""]","[1,1,0,1]",0,49,49,49,1,1,1,,,0,FALSE,,,,,,,,,,,,,,,,,,,,,,,,,,,,,,
,,001,2022-04-29_03h16.44.699,classification_task,2021.2.3,Win32,60.61708189,6160ea8a744d43ad6387051f,626b377229c10585ec392f8a,626b3b4e104fe7502035a0ec,,,,,,,,,,,,,,,,,,,,,,,a,1,1.2648,"[""0.667"",""0.419"",""0.914"",""0.955""]","[0,1,1,1]",0,50,50,50,1,0,1,,,0,FALSE,,,,,,,,,,,,,,,,,,,,,,,,,,,,,,
,,001,2022-04-29_03h16.44.699,classification_task,2021.2.3,Win32,60.61708189,6160ea8a744d43ad6387051f,626b377229c10585ec392f8a,626b3b4e104fe7502035a0ec,,,,,,,,,,,,,,,,,,,,,,,a,0,1.3319,"[""0.667"",""0.280"",""0.629"",""0.780""]","[0,1,1,1]",0,51,51,51,1,1,1,,,0,FALSE,,,,,,,,,,,,,,,,,,,,,,,,,,,,,,
,,001,2022-04-29_03h16.44.699,classification_task,2021.2.3,Win32,60.61708189,6160ea8a744d43ad6387051f,626b377229c10585ec392f8a,626b3b4e104fe7502035a0ec,,,,,,,,,,,,,,,,,,,,,,,a,0,1.4557,"[""0.145"",""0.280"",""0.629"",""0.585""]","[1,1,1,0]",0,52,52,52,1,1,1,,,0,FALSE,,,,,,,,,,,,,,,,,,,,,,,,,,,,,,
,,001,2022-04-29_03h16.44.699,classification_task,2021.2.3,Win32,60.61708189,6160ea8a744d43ad6387051f,626b377229c10585ec392f8a,626b3b4e104fe7502035a0ec,,,,,,,,,,,,,,,,,,,,,,,l,1,1.1005,"[""0.094"",""0.043"",""0.548"",""0.825""]","[1,0,1,1]",0,53,53,53,1,1,0,,,0,FALSE,,,,,,,,,,,,,,,,,,,,,,,,,,,,,,
,,001,2022-04-29_03h16.44.699,classification_task,2021.2.3,Win32,60.61708189,6160ea8a744d43ad6387051f,626b377229c10585ec392f8a,626b3b4e104fe7502035a0ec,,,,,,,,,,,,,,,,,,,,,,,l,1,1.9844,"[""0.145"",""0.380"",""0.629"",""0.780""]","[1,0,1,1]",0,54,54,54,1,1,1,,,0,FALSE,,,,,,,,,,,,,,,,,,,,,,,,,,,,,,
,,001,2022-04-29_03h16.44.699,classification_task,2021.2.3,Win32,60.61708189,6160ea8a744d43ad6387051f,626b377229c10585ec392f8a,626b3b4e104fe7502035a0ec,,,,,,,,,,,,,,,,,,,,,,,l,1,1.4271,"[""0.094"",""0.233"",""0.044"",""0.825""]","[1,1,0,1]",0,55,55,55,1,1,0,,,0,FALSE,,,,,,,,,,,,,,,,,,,,,,,,,,,,,,
,,001,2022-04-29_03h16.44.699,classification_task,2021.2.3,Win32,60.61708189,6160ea8a744d43ad6387051f,626b377229c10585ec392f8a,626b3b4e104fe7502035a0ec,,,,,,,,,,,,,,,,,,,,,,,l,1,2.3702,"[""0.043"",""0.233"",""0.548"",""0.825""]","[0,1,1,1]",0,56,56,56,1,1,0,,,0,FALSE,,,,,,,,,,,,,,,,,,,,,,,,,,,,,,
,,001,2022-04-29_03h16.44.699,classification_task,2021.2.3,Win32,60.61708189,6160ea8a744d43ad6387051f,626b377229c10585ec392f8a,626b3b4e104fe7502035a0ec,,,,,,,,,,,,,,,,,,,,,,,a,1,1.0016,"[""0.323"",""0.357"",""0.914"",""0.955""]","[1,0,1,1]",0,57,57,57,1,0,1,,,0,FALSE,,,,,,,,,,,,,,,,,,,,,,,,,,,,,,
,,001,2022-04-29_03h16.44.699,classification_task,2021.2.3,Win32,60.61708189,6160ea8a744d43ad6387051f,626b377229c10585ec392f8a,626b3b4e104fe7502035a0ec,,,,,,,,,,,,,,,,,,,,,,,l,1,1.3059,"[""0.094"",""0.233"",""0.548"",""0.359""]","[1,1,1,0]",0,58,58,58,1,1,0,,,0,FALSE,,,,,,,,,,,,,,,,,,,,,,,,,,,,,,
,,001,2022-04-29_03h16.44.699,classification_task,2021.2.3,Win32,60.61708189,6160ea8a744d43ad6387051f,626b377229c10585ec392f8a,626b3b4e104fe7502035a0ec,,,,,,,,,,,,,,,,,,,,,,,l,0,1.6672,"[""0.191"",""0.480"",""0.585"",""0.873""]","[1,1,0,1]",0,59,59,59,1,0,0,,,0,FALSE,,,,,,,,,,,,,,,,,,,,,,,,,,,,,,
,,001,2022-04-29_03h16.44.699,classification_task,2021.2.3,Win32,60.61708189,6160ea8a744d43ad6387051f,626b377229c10585ec392f8a,626b3b4e104fe7502035a0ec,,,,,,,,,,,,,,,,,,,,,,,l,0,1.1204,"[""0.191"",""0.044"",""0.725"",""0.873""]","[1,0,1,1]",0,60,60,60,1,0,0,,,0,FALSE,,,,,,,,,,,,,,,,,,,,,,,,,,,,,,
,,001,2022-04-29_03h16.44.699,classification_task,2021.2.3,Win32,60.61708189,6160ea8a744d43ad6387051f,626b377229c10585ec392f8a,626b3b4e104fe7502035a0ec,,,,,,,,,,,,,,,,,,,,,,,a,1,1.1671,"[""0.323"",""0.419"",""0.359"",""0.955""]","[1,1,0,1]",0,61,61,61,1,0,1,,,0,FALSE,,,,,,,,,,,,,,,,,,,,,,,,,,,,,,
,,001,2022-04-29_03h16.44.699,classification_task,2021.2.3,Win32,60.61708189,6160ea8a744d43ad6387051f,626b377229c10585ec392f8a,626b3b4e104fe7502035a0ec,,,,,,,,,,,,,,,,,,,,,,,a,1,0.9172,"[""0.323"",""0.419"",""0.914"",""0.370""]","[1,1,1,0]",0,62,62,62,1,0,1,,,0,FALSE,,,,,,,,,,,,,,,,,,,,,,,,,,,,,,
,,001,2022-04-29_03h16.44.699,classification_task,2021.2.3,Win32,60.61708189,6160ea8a744d43ad6387051f,626b377229c10585ec392f8a,626b3b4e104fe7502035a0ec,,,,,,,,,,,,,,,,,,,,,,,a,1,1.1899,"[""0.191"",""0.480"",""0.725"",""0.044""]","[1,1,1,0]",0,63,63,63,1,0,0,,,0,FALSE,,,,,,,,,,,,,,,,,,,,,,,,,,,,,,
,,001,2022-04-29_03h16.44.699,classification_task,2021.2.3,Win32,60.61708189,6160ea8a744d43ad6387051f,626b377229c10585ec392f8a,626b3b4e104fe7502035a0ec,,,,,,,,,,,,,,,,,,,,,,,,,,,,,,,,,,,,,,,0, ,,0,7.8414673,204.2667,0,1,1,1,1,2,2,,,,,,,,,,,,,,,,,
,,001,2022-04-29_03h16.44.699,classification_task,2021.2.3,Win32,60.61708189,6160ea8a744d43ad6387051f,626b377229c10585ec392f8a,626b3b4e104fe7502035a0ec,,,,,,,,,,,,,,,,,,,,,,,,,,,,,,,,,,,,,,,1,  ,,0,5.514403292,220.0979,0,1,1,1,1,2,2,,,,,,,,,,,,,,,,,
,,001,2022-04-29_03h16.44.699,classification_task,2021.2.3,Win32,60.61708189,6160ea8a744d43ad6387051f,626b377229c10585ec392f8a,626b3b4e104fe7502035a0ec,,,,,,,,,,,,,,,,,,,,,,,,,,,,,,,,,,,,,,,2,  ,,0,4.804037589,225.227,0,1,1,1,1,2,2,,,,,,,,,,,,,,,,,
,,001,2022-04-29_03h16.44.699,classification_task,2021.2.3,Win32,60.61708189,6160ea8a744d43ad6387051f,626b377229c10585ec392f8a,626b3b4e104fe7502035a0ec,,,,,,,,,,,,,,,,,,,,,,,,,,,,,,,,,,,,,,,,,,,,,0,1,1,1,1,,2,,,,,,,,,,,,,,,,,
,,001,2022-04-29_03h16.44.699,classification_task,2021.2.3,Win32,60.61708189,6160ea8a744d43ad6387051f,626b377229c10585ec392f8a,626b3b4e104fe7502035a0ec,,,,,,,,,,,,,,,,,,,,,space,13.0331,a,1,2.3744,"[""0.323"",""0.044"",""0.914"",""0.955""]","[1,0,1,1]",0,0,0,0,1,0,1,,,0,FALSE,,,,,,,,,,,,,,,,,,,,,,,,,,,,,,
,,001,2022-04-29_03h16.44.699,classification_task,2021.2.3,Win32,60.61708189,6160ea8a744d43ad6387051f,626b377229c10585ec392f8a,626b3b4e104fe7502035a0ec,,,,,,,,,,,,,,,,,,,,,,,a,0,1.6306,"[""0.145"",""0.667"",""0.629"",""0.780""]","[1,0,1,1]",0,1,1,1,1,1,1,,,0,FALSE,,,,,,,,,,,,,,,,,,,,,,,,,,,,,,
,,001,2022-04-29_03h16.44.699,classification_task,2021.2.3,Win32,60.61708189,6160ea8a744d43ad6387051f,626b377229c10585ec392f8a,626b3b4e104fe7502035a0ec,,,,,,,,,,,,,,,,,,,,,,,l,1,0.8259,"[""0.043"",""0.280"",""0.629"",""0.780""]","[0,1,1,1]",0,2,2,2,1,1,1,,,0,FALSE,,,,,,,,,,,,,,,,,,,,,,,,,,,,,,
,,001,2022-04-29_03h16.44.699,classification_task,2021.2.3,Win32,60.61708189,6160ea8a744d43ad6387051f,626b377229c10585ec392f8a,626b3b4e104fe7502035a0ec,,,,,,,,,,,,,,,,,,,,,,,l,1,1.4228,"[""0.094"",""0.233"",""0.548"",""0.370""]","[1,1,1,0]",0,3,3,3,1,1,0,,,0,FALSE,,,,,,,,,,,,,,,,,,,,,,,,,,,,,,
,,001,2022-04-29_03h16.44.699,classification_task,2021.2.3,Win32,60.61708189,6160ea8a744d43ad6387051f,626b377229c10585ec392f8a,626b3b4e104fe7502035a0ec,,,,,,,,,,,,,,,,,,,,,,,l,0,0.7573,"[""0.191"",""0.043"",""0.725"",""0.873""]","[1,0,1,1]",0,4,4,4,1,0,0,,,0,FALSE,,,,,,,,,,,,,,,,,,,,,,,,,,,,,,
,,001,2022-04-29_03h16.44.699,classification_task,2021.2.3,Win32,60.61708189,6160ea8a744d43ad6387051f,626b377229c10585ec392f8a,626b3b4e104fe7502035a0ec,,,,,,,,,,,,,,,,,,,,,,,l,1,0.9073,"[""0.094"",""0.043"",""0.548"",""0.825""]","[1,0,1,1]",0,5,5,5,1,1,0,,,0,FALSE,,,,,,,,,,,,,,,,,,,,,,,,,,,,,,
,,001,2022-04-29_03h16.44.699,classification_task,2021.2.3,Win32,60.61708189,6160ea8a744d43ad6387051f,626b377229c10585ec392f8a,626b3b4e104fe7502035a0ec,,,,,,,,,,,,,,,,,,,,,,,a,1,1.0467,"[""0.323"",""0.419"",""0.357"",""0.955""]","[1,1,0,1]",0,6,6,6,1,0,1,,,0,FALSE,,,,,,,,,,,,,,,,,,,,,,,,,,,,,,
,,001,2022-04-29_03h16.44.699,classification_task,2021.2.3,Win32,60.61708189,6160ea8a744d43ad6387051f,626b377229c10585ec392f8a,626b3b4e104fe7502035a0ec,,,,,,,,,,,,,,,,,,,,,,,l,1,1.4587,"[""0.145"",""0.280"",""0.629"",""0.042""]","[1,1,1,0]",0,7,7,7,1,1,1,,,0,FALSE,,,,,,,,,,,,,,,,,,,,,,,,,,,,,,
,,001,2022-04-29_03h16.44.699,classification_task,2021.2.3,Win32,60.61708189,6160ea8a744d43ad6387051f,626b377229c10585ec392f8a,626b3b4e104fe7502035a0ec,,,,,,,,,,,,,,,,,,,,,,,l,0,0.9631,"[""0.323"",""0.419"",""0.914"",""0.058""]","[1,1,1,0]",0,8,8,8,1,0,1,,,0,FALSE,,,,,,,,,,,,,,,,,,,,,,,,,,,,,,
,,001,2022-04-29_03h16.44.699,classification_task,2021.2.3,Win32,60.61708189,6160ea8a744d43ad6387051f,626b377229c10585ec392f8a,626b3b4e104fe7502035a0ec,,,,,,,,,,,,,,,,,,,,,,,a,1,1.0198,"[""0.191"",""0.480"",""0.725"",""0.370""]","[1,1,1,0]",0,9,9,9,1,0,0,,,0,FALSE,,,,,,,,,,,,,,,,,,,,,,,,,,,,,,
,,001,2022-04-29_03h16.44.699,classification_task,2021.2.3,Win32,60.61708189,6160ea8a744d43ad6387051f,626b377229c10585ec392f8a,626b3b4e104fe7502035a0ec,,,,,,,,,,,,,,,,,,,,,,,a,1,0.8867,"[""0.191"",""0.480"",""0.359"",""0.873""]","[1,1,0,1]",0,10,10,10,1,0,0,,,0,FALSE,,,,,,,,,,,,,,,,,,,,,,,,,,,,,,
,,001,2022-04-29_03h16.44.699,classification_task,2021.2.3,Win32,60.61708189,6160ea8a744d43ad6387051f,626b377229c10585ec392f8a,626b3b4e104fe7502035a0ec,,,,,,,,,,,,,,,,,,,,,,,l,0,2.2124,"[""0.373"",""0.419"",""0.914"",""0.955""]","[0,1,1,1]",0,11,11,11,1,0,1,,,0,FALSE,,,,,,,,,,,,,,,,,,,,,,,,,,,,,,
,,001,2022-04-29_03h16.44.699,classification_task,2021.2.3,Win32,60.61708189,6160ea8a744d43ad6387051f,626b377229c10585ec392f8a,626b3b4e104fe7502035a0ec,,,,,,,,,,,,,,,,,,,,,,,a,0,1.6107,"[""0.145"",""0.280"",""0.585"",""0.780""]","[1,1,0,1]",0,12,12,12,1,1,1,,,0,FALSE,,,,,,,,,,,,,,,,,,,,,,,,,,,,,,
,,001,2022-04-29_03h16.44.699,classification_task,2021.2.3,Win32,60.61708189,6160ea8a744d43ad6387051f,626b377229c10585ec392f8a,626b3b4e104fe7502035a0ec,,,,,,,,,,,,,,,,,,,,,,,a,1,0.9475,"[""0.036"",""0.480"",""0.725"",""0.873""]","[0,1,1,1]",0,13,13,13,1,0,0,,,0,FALSE,,,,,,,,,,,,,,,,,,,,,,,,,,,,,,
,,001,2022-04-29_03h16.44.699,classification_task,2021.2.3,Win32,60.61708189,6160ea8a744d43ad6387051f,626b377229c10585ec392f8a,626b3b4e104fe7502035a0ec,,,,,,,,,,,,,,,,,,,,,,,a,0,1.3498,"[""0.380"",""0.233"",""0.548"",""0.825""]","[0,1,1,1]",0,14,14,14,1,1,0,,,0,FALSE,,,,,,,,,,,,,,,,,,,,,,,,,,,,,,
,,001,2022-04-29_03h16.44.699,classification_task,2021.2.3,Win32,60.61708189,6160ea8a744d43ad6387051f,626b377229c10585ec392f8a,626b3b4e104fe7502035a0ec,,,,,,,,,,,,,,,,,,,,,,,l,1,1.1885,"[""0.094"",""0.233"",""0.359"",""0.825""]","[1,1,0,1]",0,15,15,15,1,1,0,,,0,FALSE,,,,,,,,,,,,,,,,,,,,,,,,,,,,,,
,,001,2022-04-29_03h16.44.699,classification_task,2021.2.3,Win32,60.61708189,6160ea8a744d43ad6387051f,626b377229c10585ec392f8a,626b3b4e104fe7502035a0ec,,,,,,,,,,,,,,,,,,,,,,,a,1,1.261,"[""0.191"",""0.480"",""0.357"",""0.873""]","[1,1,0,1]",0,16,16,16,1,0,0,,,0,FALSE,,,,,,,,,,,,,,,,,,,,,,,,,,,,,,
,,001,2022-04-29_03h16.44.699,classification_task,2021.2.3,Win32,60.61708189,6160ea8a744d43ad6387051f,626b377229c10585ec392f8a,626b3b4e104fe7502035a0ec,,,,,,,,,,,,,,,,,,,,,,,l,1,2.3605,"[""0.145"",""0.359"",""0.629"",""0.780""]","[1,0,1,1]",0,17,17,17,1,1,1,,,0,FALSE,,,,,,,,,,,,,,,,,,,,,,,,,,,,,,
,,001,2022-04-29_03h16.44.699,classification_task,2021.2.3,Win32,60.61708189,6160ea8a744d43ad6387051f,626b377229c10585ec392f8a,626b3b4e104fe7502035a0ec,,,,,,,,,,,,,,,,,,,,,,,a,1,1.365,"[""0.323"",""0.419"",""0.914"",""0.590""]","[1,1,1,0]",0,18,18,18,1,0,1,,,0,FALSE,,,,,,,,,,,,,,,,,,,,,,,,,,,,,,
,,001,2022-04-29_03h16.44.699,classification_task,2021.2.3,Win32,60.61708189,6160ea8a744d43ad6387051f,626b377229c10585ec392f8a,626b3b4e104fe7502035a0ec,,,,,,,,,,,,,,,,,,,,,,,a,0,1.2906,"[""0.094"",""0.233"",""0.548"",""0.684""]","[1,1,1,0]",0,19,19,19,1,1,0,,,0,FALSE,,,,,,,,,,,,,,,,,,,,,,,,,,,,,,
,,001,2022-04-29_03h16.44.699,classification_task,2021.2.3,Win32,60.61708189,6160ea8a744d43ad6387051f,626b377229c10585ec392f8a,626b3b4e104fe7502035a0ec,,,,,,,,,,,,,,,,,,,,,,,l,0,0.9973,"[""0.191"",""0.667"",""0.725"",""0.873""]","[1,0,1,1]",0,20,20,20,1,0,0,,,0,FALSE,,,,,,,,,,,,,,,,,,,,,,,,,,,,,,
,,001,2022-04-29_03h16.44.699,classification_task,2021.2.3,Win32,60.61708189,6160ea8a744d43ad6387051f,626b377229c10585ec392f8a,626b3b4e104fe7502035a0ec,,,,,,,,,,,,,,,,,,,,,,,l,1,1.1395,"[""0.145"",""0.280"",""0.036"",""0.780""]","[1,1,0,1]",0,21,21,21,1,1,1,,,0,FALSE,,,,,,,,,,,,,,,,,,,,,,,,,,,,,,
,,001,2022-04-29_03h16.44.699,classification_task,2021.2.3,Win32,60.61708189,6160ea8a744d43ad6387051f,626b377229c10585ec392f8a,626b3b4e104fe7502035a0ec,,,,,,,,,,,,,,,,,,,,,,,l,1,1.6681,"[""0.094"",""0.233"",""0.370"",""0.825""]","[1,1,0,1]",0,22,22,22,1,1,0,,,0,FALSE,,,,,,,,,,,,,,,,,,,,,,,,,,,,,,
,,001,2022-04-29_03h16.44.699,classification_task,2021.2.3,Win32,60.61708189,6160ea8a744d43ad6387051f,626b377229c10585ec392f8a,626b3b4e104fe7502035a0ec,,,,,,,,,,,,,,,,,,,,,,,a,1,0.8276,"[""0.323"",""0.419"",""0.359"",""0.955""]","[1,1,0,1]",0,23,23,23,1,0,1,,,0,FALSE,,,,,,,,,,,,,,,,,,,,,,,,,,,,,,
,,001,2022-04-29_03h16.44.699,classification_task,2021.2.3,Win32,60.61708189,6160ea8a744d43ad6387051f,626b377229c10585ec392f8a,626b3b4e104fe7502035a0ec,,,,,,,,,,,,,,,,,,,,,,,l,1,1.3293,"[""0.145"",""0.280"",""0.629"",""0.043""]","[1,1,1,0]",0,24,24,24,1,1,1,,,0,FALSE,,,,,,,,,,,,,,,,,,,,,,,,,,,,,,
,,001,2022-04-29_03h16.44.699,classification_task,2021.2.3,Win32,60.61708189,6160ea8a744d43ad6387051f,626b377229c10585ec392f8a,626b3b4e104fe7502035a0ec,,,,,,,,,,,,,,,,,,,,,,,l,0,0.9727,"[""0.042"",""0.480"",""0.725"",""0.873""]","[0,1,1,1]",0,25,25,25,1,0,0,,,0,FALSE,,,,,,,,,,,,,,,,,,,,,,,,,,,,,,
,,001,2022-04-29_03h16.44.699,classification_task,2021.2.3,Win32,60.61708189,6160ea8a744d43ad6387051f,626b377229c10585ec392f8a,626b3b4e104fe7502035a0ec,,,,,,,,,,,,,,,,,,,,,,,a,0,1.151,"[""0.684"",""0.233"",""0.548"",""0.825""]","[0,1,1,1]",0,26,26,26,1,1,0,,,0,FALSE,,,,,,,,,,,,,,,,,,,,,,,,,,,,,,
,,001,2022-04-29_03h16.44.699,classification_task,2021.2.3,Win32,60.61708189,6160ea8a744d43ad6387051f,626b377229c10585ec392f8a,626b3b4e104fe7502035a0ec,,,,,,,,,,,,,,,,,,,,,,,l,1,1.2903,"[""0.036"",""0.280"",""0.629"",""0.780""]","[0,1,1,1]",0,27,27,27,1,1,1,,,0,FALSE,,,,,,,,,,,,,,,,,,,,,,,,,,,,,,
,,001,2022-04-29_03h16.44.699,classification_task,2021.2.3,Win32,60.61708189,6160ea8a744d43ad6387051f,626b377229c10585ec392f8a,626b3b4e104fe7502035a0ec,,,,,,,,,,,,,,,,,,,,,,,l,0,0.8672,"[""0.323"",""0.042"",""0.914"",""0.955""]","[1,0,1,1]",0,28,28,28,1,0,1,,,0,FALSE,,,,,,,,,,,,,,,,,,,,,,,,,,,,,,
,,001,2022-04-29_03h16.44.699,classification_task,2021.2.3,Win32,60.61708189,6160ea8a744d43ad6387051f,626b377229c10585ec392f8a,626b3b4e104fe7502035a0ec,,,,,,,,,,,,,,,,,,,,,,,l,0,2.016,"[""0.191"",""0.480"",""0.725"",""0.044""]","[1,1,1,0]",0,29,29,29,1,0,0,,,0,FALSE,,,,,,,,,,,,,,,,,,,,,,,,,,,,,,
,,001,2022-04-29_03h16.44.699,classification_task,2021.2.3,Win32,60.61708189,6160ea8a744d43ad6387051f,626b377229c10585ec392f8a,626b3b4e104fe7502035a0ec,,,,,,,,,,,,,,,,,,,,,,,a,0,2.222,"[""0.094"",""0.058"",""0.548"",""0.825""]","[1,0,1,1]",0,30,30,30,1,1,0,,,0,FALSE,,,,,,,,,,,,,,,,,,,,,,,,,,,,,,
,,001,2022-04-29_03h16.44.699,classification_task,2021.2.3,Win32,60.61708189,6160ea8a744d43ad6387051f,626b377229c10585ec392f8a,626b3b4e104fe7502035a0ec,,,,,,,,,,,,,,,,,,,,,,,a,1,1.377,"[""0.590"",""0.419"",""0.914"",""0.955""]","[0,1,1,1]",0,31,31,31,1,0,1,,,0,FALSE,,,,,,,,,,,,,,,,,,,,,,,,,,,,,,
,,001,2022-04-29_03h16.44.699,classification_task,2021.2.3,Win32,60.61708189,6160ea8a744d43ad6387051f,626b377229c10585ec392f8a,626b3b4e104fe7502035a0ec,,,,,,,,,,,,,,,,,,,,,,,a,0,1.2102,"[""0.094"",""0.044"",""0.548"",""0.825""]","[1,0,1,1]",0,32,32,32,1,1,0,,,0,FALSE,,,,,,,,,,,,,,,,,,,,,,,,,,,,,,
,,001,2022-04-29_03h16.44.699,classification_task,2021.2.3,Win32,60.61708189,6160ea8a744d43ad6387051f,626b377229c10585ec392f8a,626b3b4e104fe7502035a0ec,,,,,,,,,,,,,,,,,,,,,,,a,1,2.0521,"[""0.380"",""0.480"",""0.725"",""0.873""]","[0,1,1,1]",0,33,33,33,1,0,0,,,0,FALSE,,,,,,,,,,,,,,,,,,,,,,,,,,,,,,
,,001,2022-04-29_03h16.44.699,classification_task,2021.2.3,Win32,60.61708189,6160ea8a744d43ad6387051f,626b377229c10585ec392f8a,626b3b4e104fe7502035a0ec,,,,,,,,,,,,,,,,,,,,,,,a,1,1.2611,"[""0.323"",""0.419"",""0.370"",""0.955""]","[1,1,0,1]",0,34,34,34,1,0,1,,,0,FALSE,,,,,,,,,,,,,,,,,,,,,,,,,,,,,,
,,001,2022-04-29_03h16.44.699,classification_task,2021.2.3,Win32,60.61708189,6160ea8a744d43ad6387051f,626b377229c10585ec392f8a,626b3b4e104fe7502035a0ec,,,,,,,,,,,,,,,,,,,,,,,a,0,0.9616,"[""0.145"",""0.280"",""0.370"",""0.780""]","[1,1,0,1]",0,35,35,35,1,1,1,,,0,FALSE,,,,,,,,,,,,,,,,,,,,,,,,,,,,,,
,,001,2022-04-29_03h16.44.699,classification_task,2021.2.3,Win32,60.61708189,6160ea8a744d43ad6387051f,626b377229c10585ec392f8a,626b3b4e104fe7502035a0ec,,,,,,,,,,,,,,,,,,,,,,,l,1,0.702,"[""0.684"",""0.233"",""0.548"",""0.825""]","[0,1,1,1]",0,36,36,36,1,1,0,,,0,FALSE,,,,,,,,,,,,,,,,,,,,,,,,,,,,,,
,,001,2022-04-29_03h16.44.699,classification_task,2021.2.3,Win32,60.61708189,6160ea8a744d43ad6387051f,626b377229c10585ec392f8a,626b3b4e104fe7502035a0ec,,,,,,,,,,,,,,,,,,,,,,,a,0,1.0649,"[""0.145"",""0.280"",""0.629"",""0.359""]","[1,1,1,0]",0,37,37,37,1,1,1,,,0,FALSE,,,,,,,,,,,,,,,,,,,,,,,,,,,,,,
,,001,2022-04-29_03h16.44.699,classification_task,2021.2.3,Win32,60.61708189,6160ea8a744d43ad6387051f,626b377229c10585ec392f8a,626b3b4e104fe7502035a0ec,,,,,,,,,,,,,,,,,,,,,,,a,1,0.9933,"[""0.191"",""0.684"",""0.725"",""0.873""]","[1,0,1,1]",0,38,38,38,1,0,0,,,0,FALSE,,,,,,,,,,,,,,,,,,,,,,,,,,,,,,
,,001,2022-04-29_03h16.44.699,classification_task,2021.2.3,Win32,60.61708189,6160ea8a744d43ad6387051f,626b377229c10585ec392f8a,626b3b4e104fe7502035a0ec,,,,,,,,,,,,,,,,,,,,,,,a,1,0.9357,"[""0.191"",""0.480"",""0.357"",""0.873""]","[1,1,0,1]",0,39,39,39,1,0,0,,,0,FALSE,,,,,,,,,,,,,,,,,,,,,,,,,,,,,,
,,001,2022-04-29_03h16.44.699,classification_task,2021.2.3,Win32,60.61708189,6160ea8a744d43ad6387051f,626b377229c10585ec392f8a,626b3b4e104fe7502035a0ec,,,,,,,,,,,,,,,,,,,,,,,a,0,5.0681,"[""0.688"",""0.280"",""0.629"",""0.780""]","[0,1,1,1]",0,40,40,40,1,1,1,,,0,FALSE,,,,,,,,,,,,,,,,,,,,,,,,,,,,,,
,,001,2022-04-29_03h16.44.699,classification_task,2021.2.3,Win32,60.61708189,6160ea8a744d43ad6387051f,626b377229c10585ec392f8a,626b3b4e104fe7502035a0ec,,,,,,,,,,,,,,,,,,,,,,,a,1,2.0382,"[""0.323"",""0.419"",""0.914"",""0.357""]","[1,1,1,0]",0,41,41,41,1,0,1,,,0,FALSE,,,,,,,,,,,,,,,,,,,,,,,,,,,,,,
,,001,2022-04-29_03h16.44.699,classification_task,2021.2.3,Win32,60.61708189,6160ea8a744d43ad6387051f,626b377229c10585ec392f8a,626b3b4e104fe7502035a0ec,,,,,,,,,,,,,,,,,,,,,,,l,0,1.4607,"[""0.042"",""0.419"",""0.914"",""0.955""]","[0,1,1,1]",0,42,42,42,1,0,1,,,0,FALSE,,,,,,,,,,,,,,,,,,,,,,,,,,,,,,
,,001,2022-04-29_03h16.44.699,classification_task,2021.2.3,Win32,60.61708189,6160ea8a744d43ad6387051f,626b377229c10585ec392f8a,626b3b4e104fe7502035a0ec,,,,,,,,,,,,,,,,,,,,,,,l,1,1.2561,"[""0.094"",""0.233"",""0.585"",""0.825""]","[1,1,0,1]",0,43,43,43,1,1,0,,,0,FALSE,,,,,,,,,,,,,,,,,,,,,,,,,,,,,,
,,001,2022-04-29_03h16.44.699,classification_task,2021.2.3,Win32,60.61708189,6160ea8a744d43ad6387051f,626b377229c10585ec392f8a,626b3b4e104fe7502035a0ec,,,,,,,,,,,,,,,,,,,,,,,a,1,0.9869,"[""0.191"",""0.480"",""0.725"",""0.359""]","[1,1,1,0]",0,44,44,44,1,0,0,,,0,FALSE,,,,,,,,,,,,,,,,,,,,,,,,,,,,,,
,,001,2022-04-29_03h16.44.699,classification_task,2021.2.3,Win32,60.61708189,6160ea8a744d43ad6387051f,626b377229c10585ec392f8a,626b3b4e104fe7502035a0ec,,,,,,,,,,,,,,,,,,,,,,,a,0,1.1446,"[""0.145"",""0.359"",""0.629"",""0.780""]","[1,0,1,1]",0,45,45,45,1,1,1,,,0,FALSE,,,,,,,,,,,,,,,,,,,,,,,,,,,,,,
,,001,2022-04-29_03h16.44.699,classification_task,2021.2.3,Win32,60.61708189,6160ea8a744d43ad6387051f,626b377229c10585ec392f8a,626b3b4e104fe7502035a0ec,,,,,,,,,,,,,,,,,,,,,,,a,1,0.8863,"[""0.323"",""0.359"",""0.914"",""0.955""]","[1,0,1,1]",0,46,46,46,1,0,1,,,0,FALSE,,,,,,,,,,,,,,,,,,,,,,,,,,,,,,
,,001,2022-04-29_03h16.44.699,classification_task,2021.2.3,Win32,60.61708189,6160ea8a744d43ad6387051f,626b377229c10585ec392f8a,626b3b4e104fe7502035a0ec,,,,,,,,,,,,,,,,,,,,,,,l,1,0.8482,"[""0.094"",""0.233"",""0.548"",""0.380""]","[1,1,1,0]",0,47,47,47,1,1,0,,,0,FALSE,,,,,,,,,,,,,,,,,,,,,,,,,,,,,,
,,001,2022-04-29_03h16.44.699,classification_task,2021.2.3,Win32,60.61708189,6160ea8a744d43ad6387051f,626b377229c10585ec392f8a,626b3b4e104fe7502035a0ec,,,,,,,,,,,,,,,,,,,,,,,a,0,0.9175,"[""0.359"",""0.280"",""0.629"",""0.780""]","[0,1,1,1]",0,48,48,48,1,1,1,,,0,FALSE,,,,,,,,,,,,,,,,,,,,,,,,,,,,,,
,,001,2022-04-29_03h16.44.699,classification_task,2021.2.3,Win32,60.61708189,6160ea8a744d43ad6387051f,626b377229c10585ec392f8a,626b3b4e104fe7502035a0ec,,,,,,,,,,,,,,,,,,,,,,,l,1,0.9814,"[""0.094"",""0.233"",""0.548"",""0.036""]","[1,1,1,0]",0,49,49,49,1,1,0,,,0,FALSE,,,,,,,,,,,,,,,,,,,,,,,,,,,,,,
,,001,2022-04-29_03h16.44.699,classification_task,2021.2.3,Win32,60.61708189,6160ea8a744d43ad6387051f,626b377229c10585ec392f8a,626b3b4e104fe7502035a0ec,,,,,,,,,,,,,,,,,,,,,,,a,1,0.8858,"[""0.684"",""0.419"",""0.914"",""0.955""]","[0,1,1,1]",0,50,50,50,1,0,1,,,0,FALSE,,,,,,,,,,,,,,,,,,,,,,,,,,,,,,
,,001,2022-04-29_03h16.44.699,classification_task,2021.2.3,Win32,60.61708189,6160ea8a744d43ad6387051f,626b377229c10585ec392f8a,626b3b4e104fe7502035a0ec,,,,,,,,,,,,,,,,,,,,,,,a,0,0.9872,"[""0.145"",""0.280"",""0.380"",""0.780""]","[1,1,0,1]",0,51,51,51,1,1,1,,,0,FALSE,,,,,,,,,,,,,,,,,,,,,,,,,,,,,,
,,001,2022-04-29_03h16.44.699,classification_task,2021.2.3,Win32,60.61708189,6160ea8a744d43ad6387051f,626b377229c10585ec392f8a,626b3b4e104fe7502035a0ec,,,,,,,,,,,,,,,,,,,,,,,l,1,0.9172,"[""0.094"",""0.044"",""0.548"",""0.825""]","[1,0,1,1]",0,52,52,52,1,1,0,,,0,FALSE,,,,,,,,,,,,,,,,,,,,,,,,,,,,,,
,,001,2022-04-29_03h16.44.699,classification_task,2021.2.3,Win32,60.61708189,6160ea8a744d43ad6387051f,626b377229c10585ec392f8a,626b3b4e104fe7502035a0ec,,,,,,,,,,,,,,,,,,,,,,,a,1,1.0578,"[""0.323"",""0.419"",""0.036"",""0.955""]","[1,1,0,1]",0,53,53,53,1,0,1,,,0,FALSE,,,,,,,,,,,,,,,,,,,,,,,,,,,,,,
,,001,2022-04-29_03h16.44.699,classification_task,2021.2.3,Win32,60.61708189,6160ea8a744d43ad6387051f,626b377229c10585ec392f8a,626b3b4e104fe7502035a0ec,,,,,,,,,,,,,,,,,,,,,,,a,0,1.5139,"[""0.145"",""0.373"",""0.629"",""0.780""]","[1,0,1,1]",0,54,54,54,1,1,1,,,0,FALSE,,,,,,,,,,,,,,,,,,,,,,,,,,,,,,
,,001,2022-04-29_03h16.44.699,classification_task,2021.2.3,Win32,60.61708189,6160ea8a744d43ad6387051f,626b377229c10585ec392f8a,626b3b4e104fe7502035a0ec,,,,,,,,,,,,,,,,,,,,,,,l,1,0.9319,"[""0.094"",""0.233"",""0.036"",""0.825""]","[1,1,0,1]",0,55,55,55,1,1,0,,,0,FALSE,,,,,,,,,,,,,,,,,,,,,,,,,,,,,,
,,001,2022-04-29_03h16.44.699,classification_task,2021.2.3,Win32,60.61708189,6160ea8a744d43ad6387051f,626b377229c10585ec392f8a,626b3b4e104fe7502035a0ec,,,,,,,,,,,,,,,,,,,,,,,a,1,1.022,"[""0.191"",""0.480"",""0.380"",""0.873""]","[1,1,0,1]",0,56,56,56,1,0,0,,,0,FALSE,,,,,,,,,,,,,,,,,,,,,,,,,,,,,,
,,001,2022-04-29_03h16.44.699,classification_task,2021.2.3,Win32,60.61708189,6160ea8a744d43ad6387051f,626b377229c10585ec392f8a,626b3b4e104fe7502035a0ec,,,,,,,,,,,,,,,,,,,,,,,l,0,2.1342,"[""0.044"",""0.480"",""0.725"",""0.873""]","[0,1,1,1]",0,57,57,57,1,0,0,,,0,FALSE,,,,,,,,,,,,,,,,,,,,,,,,,,,,,,
,,001,2022-04-29_03h16.44.699,classification_task,2021.2.3,Win32,60.61708189,6160ea8a744d43ad6387051f,626b377229c10585ec392f8a,626b3b4e104fe7502035a0ec,,,,,,,,,,,,,,,,,,,,,,,a,1,0.8908,"[""0.323"",""0.419"",""0.914"",""0.357""]","[1,1,1,0]",0,58,58,58,1,0,1,,,0,FALSE,,,,,,,,,,,,,,,,,,,,,,,,,,,,,,
,,001,2022-04-29_03h16.44.699,classification_task,2021.2.3,Win32,60.61708189,6160ea8a744d43ad6387051f,626b377229c10585ec392f8a,626b3b4e104fe7502035a0ec,,,,,,,,,,,,,,,,,,,,,,,a,1,0.8018,"[""0.191"",""0.480"",""0.725"",""0.585""]","[1,1,1,0]",0,59,59,59,1,0,0,,,0,FALSE,,,,,,,,,,,,,,,,,,,,,,,,,,,,,,
,,001,2022-04-29_03h16.44.699,classification_task,2021.2.3,Win32,60.61708189,6160ea8a744d43ad6387051f,626b377229c10585ec392f8a,626b3b4e104fe7502035a0ec,,,,,,,,,,,,,,,,,,,,,,,a,0,1.1594,"[""0.145"",""0.280"",""0.629"",""0.585""]","[1,1,1,0]",0,60,60,60,1,1,1,,,0,FALSE,,,,,,,,,,,,,,,,,,,,,,,,,,,,,,
,,001,2022-04-29_03h16.44.699,classification_task,2021.2.3,Win32,60.61708189,6160ea8a744d43ad6387051f,626b377229c10585ec392f8a,626b3b4e104fe7502035a0ec,,,,,,,,,,,,,,,,,,,,,,,l,1,0.8823,"[""0.044"",""0.233"",""0.548"",""0.825""]","[0,1,1,1]",0,61,61,61,1,1,0,,,0,FALSE,,,,,,,,,,,,,,,,,,,,,,,,,,,,,,
,,001,2022-04-29_03h16.44.699,classification_task,2021.2.3,Win32,60.61708189,6160ea8a744d43ad6387051f,626b377229c10585ec392f8a,626b3b4e104fe7502035a0ec,,,,,,,,,,,,,,,,,,,,,,,l,0,1.9184,"[""0.323"",""0.043"",""0.914"",""0.955""]","[1,0,1,1]",0,62,62,62,1,0,1,,,0,FALSE,,,,,,,,,,,,,,,,,,,,,,,,,,,,,,
,,001,2022-04-29_03h16.44.699,classification_task,2021.2.3,Win32,60.61708189,6160ea8a744d43ad6387051f,626b377229c10585ec392f8a,626b3b4e104fe7502035a0ec,,,,,,,,,,,,,,,,,,,,,,,a,1,0.888,"[""0.191"",""0.590"",""0.725"",""0.873""]","[1,0,1,1]",0,63,63,63,1,0,0,,,0,FALSE,,,,,,,,,,,,,,,,,,,,,,,,,,,,,,
,,001,2022-04-29_03h16.44.699,classification_task,2021.2.3,Win32,60.61708189,6160ea8a744d43ad6387051f,626b377229c10585ec392f8a,626b3b4e104fe7502035a0ec,,,,,,,,,,,,,,,,,,,,,,,,,,,,,,,,,,,,,,,0, ,,0,2.74642442,171.0524,0,2,2,2,1,2,3,,,,,,,,,,,,,,,,,
,,001,2022-04-29_03h16.44.699,classification_task,2021.2.3,Win32,60.61708189,6160ea8a744d43ad6387051f,626b377229c10585ec392f8a,626b3b4e104fe7502035a0ec,,,,,,,,,,,,,,,,,,,,,,,,,,,,,,,,,,,,,,,1,  ,,0,3.309817754,177.099,0,2,2,2,1,2,3,,,,,,,,,,,,,,,,,
,,001,2022-04-29_03h16.44.699,classification_task,2021.2.3,Win32,60.61708189,6160ea8a744d43ad6387051f,626b377229c10585ec392f8a,626b3b4e104fe7502035a0ec,,,,,,,,,,,,,,,,,,,,,,,,,,,,,,,,,,,,,,,2,  ,,0,2.623948193,181.732,0,2,2,2,1,2,3,,,,,,,,,,,,,,,,,
,,001,2022-04-29_03h16.44.699,classification_task,2021.2.3,Win32,60.61708189,6160ea8a744d43ad6387051f,626b377229c10585ec392f8a,626b3b4e104fe7502035a0ec,,,,,,,,,,,,,,,,,,,,,,,,,,,,,,,,,,,,,,,,,,,,,0,2,2,2,1,,3,,,,,,,,,,,,,,,,,
,,001,2022-04-29_03h16.44.699,classification_task,2021.2.3,Win32,60.61708189,6160ea8a744d43ad6387051f,626b377229c10585ec392f8a,626b3b4e104fe7502035a0ec,,,,,,,,,,,,,,,,,,,,,,,,,,,,,,,,,,,,,,,,,,,,,,,,,,,,,I believe the aid is a competent performer,,0.7,0,4,1045.4579,0,0,0,0,1,0,,,,
,,001,2022-04-29_03h16.44.699,classification_task,2021.2.3,Win32,60.61708189,6160ea8a744d43ad6387051f,626b377229c10585ec392f8a,626b3b4e104fe7502035a0ec,,,,,,,,,,,,,,,,,,,,,,,,,,,,,,,,,,,,,,,,,,,,,,,,,,,,,I trust the aid,,0.7,0,4,1054.703,0,0,0,0,1,0,,,,
,,001,2022-04-29_03h16.44.699,classification_task,2021.2.3,Win32,60.61708189,6160ea8a744d43ad6387051f,626b377229c10585ec392f8a,626b3b4e104fe7502035a0ec,,,,,,,,,,,,,,,,,,,,,,,,,,,,,,,,,,,,,,,,,,,,,,,,,,,,,I have confidence in the advice given by the aid,,0.7,0,4,1053.7,0,0,0,0,1,0,,,,
,,001,2022-04-29_03h16.44.699,classification_task,2021.2.3,Win32,60.61708189,6160ea8a744d43ad6387051f,626b377229c10585ec392f8a,626b3b4e104fe7502035a0ec,,,,,,,,,,,,,,,,,,,,,,,,,,,,,,,,,,,,,,,,,,,,,,,,,,,,,I can depend on the aid,,0.7,0,4,1058.9262,0,0,0,0,1,0,,,,
,,001,2022-04-29_03h16.44.699,classification_task,2021.2.3,Win32,60.61708189,6160ea8a744d43ad6387051f,626b377229c10585ec392f8a,626b3b4e104fe7502035a0ec,,,,,,,,,,,,,,,,,,,,,,,,,,,,,,,,,,,,,,,,,,,,,,,,,,,,,I can rely on the aid to behave in consistent ways,,0.7,0,4,1063.3248,0,0,0,0,1,0,,,,
,,001,2022-04-29_03h16.44.699,classification_task,2021.2.3,Win32,60.61708189,6160ea8a744d43ad6387051f,626b377229c10585ec392f8a,626b3b4e104fe7502035a0ec,,,,,,,,,,,,,,,,,,,,,,,,,,,,,,,,,,,,,,,,,,,,,,,,,,,,,I can rely on the aid to do its best every time I take its advice,,0.7,0,4,1070.5182,0,0,0,0,1,0,,,,
,,001,2022-04-29_03h16.44.699,classification_task,2021.2.3,Win32,60.61708189,6160ea8a744d43ad6387051f,626b377229c10585ec392f8a,626b3b4e104fe7502035a0ec,,,,,,,,,,,,,,,,,,,,,,,,,,,,,,,,,,,,,,,,,,,,,,,,,,,,,"On trials you completed with assistance from the aid, how frequently did you think the aid was correct?",,0.7,0,95%,,0,0,0,0,1,0,,,,
,,001,2022-04-29_03h16.44.699,classification_task,2021.2.3,Win32,60.61708189,6160ea8a744d43ad6387051f,626b377229c10585ec392f8a,626b3b4e104fe7502035a0ec,,,,,,,,,,,,,,,,,,,,,,,,,,,,,,,,,,,,,,,,,,,,,,,,,,,,,"On trials you completed without the aid, how frequently did you think you were correct?",,0.7,0,89%,,0,0,0,0,1,0,,,,
,,001,2022-04-29_03h16.44.699,classification_task,2021.2.3,Win32,60.61708189,6160ea8a744d43ad6387051f,626b377229c10585ec392f8a,626b3b4e104fe7502035a0ec,,,,,,,,,,,,,,,,,,,,,,,,,,,,,,,,,,,,,,,,,,,,,,,,,,,,,,,,,,,0,0,0,0,1,,,,,
,,001,2022-04-29_03h16.44.699,classification_task,2021.2.3,Win32,60.61708189,6160ea8a744d43ad6387051f,626b377229c10585ec392f8a,626b3b4e104fe7502035a0ec,,,,,,,,,,,,,,,,,,,,,,,,,,,,,,,,,,,,,,,,,,,,,,,,,,,,,,,,,,,,,,,,,space,13.9206,1137.4921,
,,001,2022-04-29_03h16.44.699,classification_task,2021.2.3,Win32,60.61708189,6160ea8a744d43ad6387051f,626b377229c10585ec392f8a,626b3b4e104fe7502035a0ec,,,,,,,,,,,,,,,,,,,,,,,,,,,,,,,,,,,,,,,,,,,,,,,,,,,,,,,,,,,,,,,,,,,,"Mozilla/5.0 (Windows NT 10.0; Win64; x64) AppleWebKit/537.36 (KHTML, like Gecko) Chrome/100.0.4896.127 Safari/537.36 Edg/100.0.1185.50"
