usingWebGL,participant,session,date,expName,psychopyVersion,OS,frameRate,PROLIFIC_PID,STUDY_ID,SESSION_ID,signatures_friend,signatures_foe,band_ranges_top,band_ranges_bottom,formitemText,formtype,formundefined,formitemWidth,formindex,formresponse,formrt,key_resp_2.keys,key_resp_2.rt,tute_resp.keys,tute_resp.rt,tutorial.thisRepN,tutorial.thisTrialN,tutorial.thisN,tutorial.thisIndex,tutorial.ran,key_resp_4.keys,key_resp_4.rt,key_resp.keys,key_resp.corr,lines_presented,is_signal_presented,trials.thisRepN,trials.thisTrialN,trials.thisN,trials.thisIndex,trials.ran,vessel,active_band,lines,is_signal,supported_pos,catch_trial,key_resp.rt,debrief_formindex,debrief_formitemText,debrief_formtype,debrief_formitemWidth,debrief_formresponse,debrief_formrt,phases.thisRepN,phases.thisTrialN,phases.thisN,phases.thisIndex,phases.ran,phases.order,phase,key_resp_3.keys,trustitemText,trusttype,trustitemWidth,trustindex,trustresponse,trustrt,support_status.thisRepN,support_status.thisTrialN,support_status.thisN,support_status.thisIndex,support_status.ran,support_status.order,key_resp_5.keys,key_resp_5.rt,globalClockTime,userAgent
TRUE,S,001,2022-04-28_21h13.56.147,classification_task,2021.2.3,MacIntel,76.92307692,5e7bbca73554b20a08fc2f64,626b377229c10585ec392f8a,626b3b86b2fbd86f2a040545,,,,,,,,,,,,,,,,,,,,,,,,,,,,,,,,,,,,,,,,,,,,,,,,,,,,,,,,,,,,,,,,,,,,
,S,001,2022-04-28_21h13.56.147,classification_task,2021.2.3,MacIntel,76.92307692,5e7bbca73554b20a08fc2f64,626b377229c10585ec392f8a,626b3b86b2fbd86f2a040545,"[[""0.266"",""0.542"",""0.584"",""0.882""],[""0.161"",""0.399"",""0.674"",""0.966""]]","[[""0.080"",""0.223"",""0.634"",""0.711""],[""0.044"",""0.333"",""0.443"",""0.824""]]","[1,10]","[100,1000]",Video game experience,,,0.7,0,,,,,,,,,,,,,,,,,,,,,,,,,,,,,,,,,,,,,,,,,,,,,,,,,,,,,,,,,,,
,S,001,2022-04-28_21h13.56.147,classification_task,2021.2.3,MacIntel,76.92307692,5e7bbca73554b20a08fc2f64,626b377229c10585ec392f8a,626b3b86b2fbd86f2a040545,,,,,Approximately how many hours did you spend playing video games in the last week?,,,0.7,0,0,,,,,,,,,,,,,,,,,,,,,,,,,,,,,,,,,,,,,,,,,,,,,,,,,,,,,,,,,,
,S,001,2022-04-28_21h13.56.147,classification_task,2021.2.3,MacIntel,76.92307692,5e7bbca73554b20a08fc2f64,626b377229c10585ec392f8a,626b3b86b2fbd86f2a040545,,,,,"Which game did you play the most this year? (Enter ""None"" if you didn't play any)",,,0.7,0,Overcooked,,,,,,,,,,,,,,,,,,,,,,,,,,,,,,,,,,,,,,,,,,,,,,,,,,,,,,,,,,
,S,001,2022-04-28_21h13.56.147,classification_task,2021.2.3,MacIntel,76.92307692,5e7bbca73554b20a08fc2f64,626b377229c10585ec392f8a,626b3b86b2fbd86f2a040545,,,,,Visual perception,,,0.7,0,,,,,,,,,,,,,,,,,,,,,,,,,,,,,,,,,,,,,,,,,,,,,,,,,,,,,,,,,,,
,S,001,2022-04-28_21h13.56.147,classification_task,2021.2.3,MacIntel,76.92307692,5e7bbca73554b20a08fc2f64,626b377229c10585ec392f8a,626b3b86b2fbd86f2a040545,,,,,Do you have any form of color blindness?,,,0.7,0,No,24.451,,,,,,,,,,,,,,,,,,,,,,,,,,,,,,,,,,,,,,,,,,,,,,,,,,,,,,,,,
,S,001,2022-04-28_21h13.56.147,classification_task,2021.2.3,MacIntel,76.92307692,5e7bbca73554b20a08fc2f64,626b377229c10585ec392f8a,626b3b86b2fbd86f2a040545,,,,,Do you use software to change the colour temperature of your screen (e.g. f.lux)?,,,0.7,0,No,27.885,,,,,,,,,,,,,,,,,,,,,,,,,,,,,,,,,,,,,,,,,,,,,,,,,,,,,,,,,
,S,001,2022-04-28_21h13.56.147,classification_task,2021.2.3,MacIntel,76.92307692,5e7bbca73554b20a08fc2f64,626b377229c10585ec392f8a,626b3b86b2fbd86f2a040545,,,,,,,,,,,,space,27.03,space,7.127,0,0,0,0,1,,,,,,,,,,,,,,,,,,,,,,,,,,,,,,,,,,,,,,,,,,,,,,,,
,S,001,2022-04-28_21h13.56.147,classification_task,2021.2.3,MacIntel,76.92307692,5e7bbca73554b20a08fc2f64,626b377229c10585ec392f8a,626b3b86b2fbd86f2a040545,,,,,,,,,,,,,,space,10.82,1,0,1,0,1,,,,,,,,,,,,,,,,,,,,,,,,,,,,,,,,,,,,,,,,,,,,,,,,
,S,001,2022-04-28_21h13.56.147,classification_task,2021.2.3,MacIntel,76.92307692,5e7bbca73554b20a08fc2f64,626b377229c10585ec392f8a,626b3b86b2fbd86f2a040545,,,,,,,,,,,,,,space,25.545,2,0,2,0,1,,,,,,,,,,,,,,,,,,,,,,,,,,,,,,,,,,,,,,,,,,,,,,,,
,S,001,2022-04-28_21h13.56.147,classification_task,2021.2.3,MacIntel,76.92307692,5e7bbca73554b20a08fc2f64,626b377229c10585ec392f8a,626b3b86b2fbd86f2a040545,,,,,,,,,,,,,,space,6.313,3,0,3,0,1,,,,,,,,,,,,,,,,,,,,,,,,,,,,,,,,,,,,,,,,,,,,,,,,
,S,001,2022-04-28_21h13.56.147,classification_task,2021.2.3,MacIntel,76.92307692,5e7bbca73554b20a08fc2f64,626b377229c10585ec392f8a,626b3b86b2fbd86f2a040545,,,,,,,,,,,,,,space,14.653,4,0,4,0,1,,,,,,,,,,,,,,,,,,,,,,,,,,,,,,,,,,,,,,,,,,,,,,,,
,S,001,2022-04-28_21h13.56.147,classification_task,2021.2.3,MacIntel,76.92307692,5e7bbca73554b20a08fc2f64,626b377229c10585ec392f8a,626b3b86b2fbd86f2a040545,,,,,,,,,,,,,,,,,,,,,space,14.408,,0,"[""0.080"",""0.223"",""0.760"",""0.711""]","[1,1,0,1]",0,0,0,0,1,1,0,,,1,FALSE,,,,,,,,,,,,,,,,,,,,,,,,,,,,,,,
,S,001,2022-04-28_21h13.56.147,classification_task,2021.2.3,MacIntel,76.92307692,5e7bbca73554b20a08fc2f64,626b377229c10585ec392f8a,626b3b86b2fbd86f2a040545,,,,,,,,,,,,,,,,,,,,,,,l,1,"[""0.044"",""0.333"",""0.443"",""0.763""]","[1,1,1,0]",0,1,1,1,1,1,1,,,1,FALSE,9.15,,,,,,,,,,,,,,,,,,,,,,,,,,,,,,
,S,001,2022-04-28_21h13.56.147,classification_task,2021.2.3,MacIntel,76.92307692,5e7bbca73554b20a08fc2f64,626b377229c10585ec392f8a,626b3b86b2fbd86f2a040545,,,,,,,,,,,,,,,,,,,,,,,a,1,"[""0.161"",""0.399"",""0.674"",""0.748""]","[1,1,1,0]",0,2,2,2,1,0,1,,,1,FALSE,9.394,,,,,,,,,,,,,,,,,,,,,,,,,,,,,,
,S,001,2022-04-28_21h13.56.147,classification_task,2021.2.3,MacIntel,76.92307692,5e7bbca73554b20a08fc2f64,626b377229c10585ec392f8a,626b3b86b2fbd86f2a040545,,,,,,,,,,,,,,,,,,,,,,,,0,"[""0.044"",""0.477"",""0.443"",""0.824""]","[1,0,1,1]",0,3,3,3,1,1,1,,,1,FALSE,,,,,,,,,,,,,,,,,,,,,,,,,,,,,,,
,S,001,2022-04-28_21h13.56.147,classification_task,2021.2.3,MacIntel,76.92307692,5e7bbca73554b20a08fc2f64,626b377229c10585ec392f8a,626b3b86b2fbd86f2a040545,,,,,,,,,,,,,,,,,,,,,,,,0,"[""0.266"",""0.542"",""0.584"",""0.763""]","[1,1,1,0]",0,4,4,4,1,0,0,,,1,FALSE,,,,,,,,,,,,,,,,,,,,,,,,,,,,,,,
,S,001,2022-04-28_21h13.56.147,classification_task,2021.2.3,MacIntel,76.92307692,5e7bbca73554b20a08fc2f64,626b377229c10585ec392f8a,626b3b86b2fbd86f2a040545,,,,,,,,,,,,,,,,,,,,,,,,0,"[""0.763"",""0.542"",""0.584"",""0.882""]","[0,1,1,1]",0,5,5,5,1,0,0,,,1,FALSE,,,,,,,,,,,,,,,,,,,,,,,,,,,,,,,
,S,001,2022-04-28_21h13.56.147,classification_task,2021.2.3,MacIntel,76.92307692,5e7bbca73554b20a08fc2f64,626b377229c10585ec392f8a,626b3b86b2fbd86f2a040545,,,,,,,,,,,,,,,,,,,,,,,l,1,"[""0.080"",""0.126"",""0.634"",""0.711""]","[1,0,1,1]",0,6,6,6,1,1,0,,,1,FALSE,7.181,,,,,,,,,,,,,,,,,,,,,,,,,,,,,,
,S,001,2022-04-28_21h13.56.147,classification_task,2021.2.3,MacIntel,76.92307692,5e7bbca73554b20a08fc2f64,626b377229c10585ec392f8a,626b3b86b2fbd86f2a040545,,,,,,,,,,,,,,,,,,,,,,,l,1,"[""0.496"",""0.333"",""0.443"",""0.824""]","[0,1,1,1]",0,7,7,7,1,1,1,,,1,FALSE,9.162,,,,,,,,,,,,,,,,,,,,,,,,,,,,,,
,S,001,2022-04-28_21h13.56.147,classification_task,2021.2.3,MacIntel,76.92307692,5e7bbca73554b20a08fc2f64,626b377229c10585ec392f8a,626b3b86b2fbd86f2a040545,,,,,,,,,,,,,,,,,,,,,,,,0,"[""0.748"",""0.223"",""0.634"",""0.711""]","[0,1,1,1]",0,8,8,8,1,1,0,,,1,FALSE,,,,,,,,,,,,,,,,,,,,,,,,,,,,,,,
,S,001,2022-04-28_21h13.56.147,classification_task,2021.2.3,MacIntel,76.92307692,5e7bbca73554b20a08fc2f64,626b377229c10585ec392f8a,626b3b86b2fbd86f2a040545,,,,,,,,,,,,,,,,,,,,,,,l,1,"[""0.080"",""0.223"",""0.634"",""0.760""]","[1,1,1,0]",0,9,9,9,1,1,0,,,1,FALSE,5.078,,,,,,,,,,,,,,,,,,,,,,,,,,,,,,
,S,001,2022-04-28_21h13.56.147,classification_task,2021.2.3,MacIntel,76.92307692,5e7bbca73554b20a08fc2f64,626b377229c10585ec392f8a,626b3b86b2fbd86f2a040545,,,,,,,,,,,,,,,,,,,,,,,l,0,"[""0.505"",""0.399"",""0.674"",""0.966""]","[0,1,1,1]",0,10,10,10,1,0,1,,,1,FALSE,6.246,,,,,,,,,,,,,,,,,,,,,,,,,,,,,,
,S,001,2022-04-28_21h13.56.147,classification_task,2021.2.3,MacIntel,76.92307692,5e7bbca73554b20a08fc2f64,626b377229c10585ec392f8a,626b3b86b2fbd86f2a040545,,,,,,,,,,,,,,,,,,,,,,,,0,"[""0.266"",""0.542"",""0.300"",""0.882""]","[1,1,0,1]",0,11,11,11,1,0,0,,,1,FALSE,,,,,,,,,,,,,,,,,,,,,,,,,,,,,,,
,S,001,2022-04-28_21h13.56.147,classification_task,2021.2.3,MacIntel,76.92307692,5e7bbca73554b20a08fc2f64,626b377229c10585ec392f8a,626b3b86b2fbd86f2a040545,,,,,,,,,,,,,,,,,,,,,,,a,1,"[""0.161"",""0.399"",""0.760"",""0.966""]","[1,1,0,1]",0,12,12,12,1,0,1,,,1,FALSE,4.492,,,,,,,,,,,,,,,,,,,,,,,,,,,,,,
,S,001,2022-04-28_21h13.56.147,classification_task,2021.2.3,MacIntel,76.92307692,5e7bbca73554b20a08fc2f64,626b377229c10585ec392f8a,626b3b86b2fbd86f2a040545,,,,,,,,,,,,,,,,,,,,,,,a,1,"[""0.161"",""0.748"",""0.674"",""0.966""]","[1,0,1,1]",0,13,13,13,1,0,1,,,1,FALSE,4.426,,,,,,,,,,,,,,,,,,,,,,,,,,,,,,
,S,001,2022-04-28_21h13.56.147,classification_task,2021.2.3,MacIntel,76.92307692,5e7bbca73554b20a08fc2f64,626b377229c10585ec392f8a,626b3b86b2fbd86f2a040545,,,,,,,,,,,,,,,,,,,,,,,l,1,"[""0.044"",""0.333"",""0.760"",""0.824""]","[1,1,0,1]",0,14,14,14,1,1,1,,,1,FALSE,2.411,,,,,,,,,,,,,,,,,,,,,,,,,,,,,,
,S,001,2022-04-28_21h13.56.147,classification_task,2021.2.3,MacIntel,76.92307692,5e7bbca73554b20a08fc2f64,626b377229c10585ec392f8a,626b3b86b2fbd86f2a040545,,,,,,,,,,,,,,,,,,,,,,,a,1,"[""0.266"",""0.760"",""0.584"",""0.882""]","[1,0,1,1]",0,15,15,15,1,0,0,,,1,FALSE,5.352,,,,,,,,,,,,,,,,,,,,,,,,,,,,,,
,S,001,2022-04-28_21h13.56.147,classification_task,2021.2.3,MacIntel,76.92307692,5e7bbca73554b20a08fc2f64,626b377229c10585ec392f8a,626b3b86b2fbd86f2a040545,,,,,,,,,,,,,,,,,,,,,,,a,1,"[""0.161"",""0.399"",""0.674"",""0.760""]","[1,1,1,0]",0,16,16,16,1,0,1,,,1,FALSE,3.942,,,,,,,,,,,,,,,,,,,,,,,,,,,,,,
,S,001,2022-04-28_21h13.56.147,classification_task,2021.2.3,MacIntel,76.92307692,5e7bbca73554b20a08fc2f64,626b377229c10585ec392f8a,626b3b86b2fbd86f2a040545,,,,,,,,,,,,,,,,,,,,,,,l,1,"[""0.044"",""0.333"",""0.748"",""0.824""]","[1,1,0,1]",0,17,17,17,1,1,1,,,1,FALSE,2.822,,,,,,,,,,,,,,,,,,,,,,,,,,,,,,
,S,001,2022-04-28_21h13.56.147,classification_task,2021.2.3,MacIntel,76.92307692,5e7bbca73554b20a08fc2f64,626b377229c10585ec392f8a,626b3b86b2fbd86f2a040545,,,,,,,,,,,,,,,,,,,,,,,l,1,"[""0.044"",""0.333"",""0.443"",""0.496""]","[1,1,1,0]",0,18,18,18,1,1,1,,,1,FALSE,2.684,,,,,,,,,,,,,,,,,,,,,,,,,,,,,,
,S,001,2022-04-28_21h13.56.147,classification_task,2021.2.3,MacIntel,76.92307692,5e7bbca73554b20a08fc2f64,626b377229c10585ec392f8a,626b3b86b2fbd86f2a040545,,,,,,,,,,,,,,,,,,,,,,,l,1,"[""0.080"",""0.763"",""0.634"",""0.711""]","[1,0,1,1]",0,19,19,19,1,1,0,,,1,FALSE,3.099,,,,,,,,,,,,,,,,,,,,,,,,,,,,,,
,S,001,2022-04-28_21h13.56.147,classification_task,2021.2.3,MacIntel,76.92307692,5e7bbca73554b20a08fc2f64,626b377229c10585ec392f8a,626b3b86b2fbd86f2a040545,,,,,,,,,,,,,,,,,,,,,,,a,1,"[""0.161"",""0.763"",""0.674"",""0.966""]","[1,0,1,1]",0,20,20,20,1,0,1,,,1,FALSE,2.468,,,,,,,,,,,,,,,,,,,,,,,,,,,,,,
,S,001,2022-04-28_21h13.56.147,classification_task,2021.2.3,MacIntel,76.92307692,5e7bbca73554b20a08fc2f64,626b377229c10585ec392f8a,626b3b86b2fbd86f2a040545,,,,,,,,,,,,,,,,,,,,,,,l,1,"[""0.080"",""0.223"",""0.496"",""0.711""]","[1,1,0,1]",0,21,21,21,1,1,0,,,1,FALSE,2.35,,,,,,,,,,,,,,,,,,,,,,,,,,,,,,
,S,001,2022-04-28_21h13.56.147,classification_task,2021.2.3,MacIntel,76.92307692,5e7bbca73554b20a08fc2f64,626b377229c10585ec392f8a,626b3b86b2fbd86f2a040545,,,,,,,,,,,,,,,,,,,,,,,a,1,"[""0.266"",""0.505"",""0.584"",""0.882""]","[1,0,1,1]",0,22,22,22,1,0,0,,,1,FALSE,3.109,,,,,,,,,,,,,,,,,,,,,,,,,,,,,,
,S,001,2022-04-28_21h13.56.147,classification_task,2021.2.3,MacIntel,76.92307692,5e7bbca73554b20a08fc2f64,626b377229c10585ec392f8a,626b3b86b2fbd86f2a040545,,,,,,,,,,,,,,,,,,,,,,,l,0,"[""0.266"",""0.542"",""0.584"",""0.126""]","[1,1,1,0]",0,23,23,23,1,0,0,,,1,FALSE,4.005,,,,,,,,,,,,,,,,,,,,,,,,,,,,,,
,S,001,2022-04-28_21h13.56.147,classification_task,2021.2.3,MacIntel,76.92307692,5e7bbca73554b20a08fc2f64,626b377229c10585ec392f8a,626b3b86b2fbd86f2a040545,,,,,,,,,,,,,,,,,,,,,,,l,1,"[""0.044"",""0.300"",""0.443"",""0.824""]","[1,0,1,1]",0,24,24,24,1,1,1,,,1,FALSE,6.117,,,,,,,,,,,,,,,,,,,,,,,,,,,,,,
,S,001,2022-04-28_21h13.56.147,classification_task,2021.2.3,MacIntel,76.92307692,5e7bbca73554b20a08fc2f64,626b377229c10585ec392f8a,626b3b86b2fbd86f2a040545,,,,,,,,,,,,,,,,,,,,,,,a,1,"[""0.266"",""0.542"",""0.760"",""0.882""]","[1,1,0,1]",0,25,25,25,1,0,0,,,1,FALSE,5.327,,,,,,,,,,,,,,,,,,,,,,,,,,,,,,
,S,001,2022-04-28_21h13.56.147,classification_task,2021.2.3,MacIntel,76.92307692,5e7bbca73554b20a08fc2f64,626b377229c10585ec392f8a,626b3b86b2fbd86f2a040545,,,,,,,,,,,,,,,,,,,,,,,a,1,"[""0.161"",""0.399"",""0.753"",""0.966""]","[1,1,0,1]",0,26,26,26,1,0,1,,,1,FALSE,3.36,,,,,,,,,,,,,,,,,,,,,,,,,,,,,,
,S,001,2022-04-28_21h13.56.147,classification_task,2021.2.3,MacIntel,76.92307692,5e7bbca73554b20a08fc2f64,626b377229c10585ec392f8a,626b3b86b2fbd86f2a040545,,,,,,,,,,,,,,,,,,,,,,,l,1,"[""0.505"",""0.333"",""0.443"",""0.824""]","[0,1,1,1]",0,27,27,27,1,1,1,,,1,FALSE,2.3,,,,,,,,,,,,,,,,,,,,,,,,,,,,,,
,S,001,2022-04-28_21h13.56.147,classification_task,2021.2.3,MacIntel,76.92307692,5e7bbca73554b20a08fc2f64,626b377229c10585ec392f8a,626b3b86b2fbd86f2a040545,,,,,,,,,,,,,,,,,,,,,,,a,1,"[""0.763"",""0.399"",""0.674"",""0.966""]","[0,1,1,1]",0,28,28,28,1,0,1,,,1,FALSE,3.385,,,,,,,,,,,,,,,,,,,,,,,,,,,,,,
,S,001,2022-04-28_21h13.56.147,classification_task,2021.2.3,MacIntel,76.92307692,5e7bbca73554b20a08fc2f64,626b377229c10585ec392f8a,626b3b86b2fbd86f2a040545,,,,,,,,,,,,,,,,,,,,,,,l,1,"[""0.080"",""0.223"",""0.634"",""0.126""]","[1,1,1,0]",0,29,29,29,1,1,0,,,1,FALSE,3.144,,,,,,,,,,,,,,,,,,,,,,,,,,,,,,
,S,001,2022-04-28_21h13.56.147,classification_task,2021.2.3,MacIntel,76.92307692,5e7bbca73554b20a08fc2f64,626b377229c10585ec392f8a,626b3b86b2fbd86f2a040545,,,,,,,,,,,,,,,,,,,,,,,a,1,"[""0.788"",""0.542"",""0.584"",""0.882""]","[0,1,1,1]",0,30,30,30,1,0,0,,,1,FALSE,3.384,,,,,,,,,,,,,,,,,,,,,,,,,,,,,,
,S,001,2022-04-28_21h13.56.147,classification_task,2021.2.3,MacIntel,76.92307692,5e7bbca73554b20a08fc2f64,626b377229c10585ec392f8a,626b3b86b2fbd86f2a040545,,,,,,,,,,,,,,,,,,,,,,,l,1,"[""0.477"",""0.223"",""0.634"",""0.711""]","[0,1,1,1]",0,31,31,31,1,1,0,,,1,FALSE,1.947,,,,,,,,,,,,,,,,,,,,,,,,,,,,,,
,S,001,2022-04-28_21h13.56.147,classification_task,2021.2.3,MacIntel,76.92307692,5e7bbca73554b20a08fc2f64,626b377229c10585ec392f8a,626b3b86b2fbd86f2a040545,,,,,,,,,,,,,,,,,,,,,,,l,0,"[""0.266"",""0.496"",""0.584"",""0.882""]","[1,0,1,1]",0,32,32,32,1,0,0,,,1,FALSE,6.604,,,,,,,,,,,,,,,,,,,,,,,,,,,,,,
,S,001,2022-04-28_21h13.56.147,classification_task,2021.2.3,MacIntel,76.92307692,5e7bbca73554b20a08fc2f64,626b377229c10585ec392f8a,626b3b86b2fbd86f2a040545,,,,,,,,,,,,,,,,,,,,,,,a,0,"[""0.080"",""0.223"",""0.634"",""0.496""]","[1,1,1,0]",0,33,33,33,1,1,0,,,1,FALSE,3.619,,,,,,,,,,,,,,,,,,,,,,,,,,,,,,
,S,001,2022-04-28_21h13.56.147,classification_task,2021.2.3,MacIntel,76.92307692,5e7bbca73554b20a08fc2f64,626b377229c10585ec392f8a,626b3b86b2fbd86f2a040545,,,,,,,,,,,,,,,,,,,,,,,l,1,"[""0.760"",""0.333"",""0.443"",""0.824""]","[0,1,1,1]",0,34,34,34,1,1,1,,,1,FALSE,5.971,,,,,,,,,,,,,,,,,,,,,,,,,,,,,,
,S,001,2022-04-28_21h13.56.147,classification_task,2021.2.3,MacIntel,76.92307692,5e7bbca73554b20a08fc2f64,626b377229c10585ec392f8a,626b3b86b2fbd86f2a040545,,,,,,,,,,,,,,,,,,,,,,,l,1,"[""0.126"",""0.223"",""0.634"",""0.711""]","[0,1,1,1]",0,35,35,35,1,1,0,,,1,FALSE,1.786,,,,,,,,,,,,,,,,,,,,,,,,,,,,,,
,S,001,2022-04-28_21h13.56.147,classification_task,2021.2.3,MacIntel,76.92307692,5e7bbca73554b20a08fc2f64,626b377229c10585ec392f8a,626b3b86b2fbd86f2a040545,,,,,,,,,,,,,,,,,,,,,,,a,0,"[""0.044"",""0.333"",""0.443"",""0.495""]","[1,1,1,0]",0,36,36,36,1,1,1,,,1,FALSE,2.482,,,,,,,,,,,,,,,,,,,,,,,,,,,,,,
,S,001,2022-04-28_21h13.56.147,classification_task,2021.2.3,MacIntel,76.92307692,5e7bbca73554b20a08fc2f64,626b377229c10585ec392f8a,626b3b86b2fbd86f2a040545,,,,,,,,,,,,,,,,,,,,,,,l,1,"[""0.080"",""0.505"",""0.634"",""0.711""]","[1,0,1,1]",0,37,37,37,1,1,0,,,1,FALSE,2.285,,,,,,,,,,,,,,,,,,,,,,,,,,,,,,
,S,001,2022-04-28_21h13.56.147,classification_task,2021.2.3,MacIntel,76.92307692,5e7bbca73554b20a08fc2f64,626b377229c10585ec392f8a,626b3b86b2fbd86f2a040545,,,,,,,,,,,,,,,,,,,,,,,l,0,"[""0.767"",""0.542"",""0.584"",""0.882""]","[0,1,1,1]",0,38,38,38,1,0,0,,,1,FALSE,0.933,,,,,,,,,,,,,,,,,,,,,,,,,,,,,,
,S,001,2022-04-28_21h13.56.147,classification_task,2021.2.3,MacIntel,76.92307692,5e7bbca73554b20a08fc2f64,626b377229c10585ec392f8a,626b3b86b2fbd86f2a040545,,,,,,,,,,,,,,,,,,,,,,,a,1,"[""0.161"",""0.399"",""0.918"",""0.966""]","[1,1,0,1]",0,39,39,39,1,0,1,,,1,FALSE,1.753,,,,,,,,,,,,,,,,,,,,,,,,,,,,,,
,S,001,2022-04-28_21h13.56.147,classification_task,2021.2.3,MacIntel,76.92307692,5e7bbca73554b20a08fc2f64,626b377229c10585ec392f8a,626b3b86b2fbd86f2a040545,,,,,,,,,,,,,,,,,,,,,,,a,0,"[""0.044"",""0.333"",""0.505"",""0.824""]","[1,1,0,1]",0,40,40,40,1,1,1,,,1,FALSE,1.386,,,,,,,,,,,,,,,,,,,,,,,,,,,,,,
,S,001,2022-04-28_21h13.56.147,classification_task,2021.2.3,MacIntel,76.92307692,5e7bbca73554b20a08fc2f64,626b377229c10585ec392f8a,626b3b86b2fbd86f2a040545,,,,,,,,,,,,,,,,,,,,,,,l,1,"[""0.080"",""0.223"",""0.505"",""0.711""]","[1,1,0,1]",0,41,41,41,1,1,0,,,1,FALSE,1.897,,,,,,,,,,,,,,,,,,,,,,,,,,,,,,
,S,001,2022-04-28_21h13.56.147,classification_task,2021.2.3,MacIntel,76.92307692,5e7bbca73554b20a08fc2f64,626b377229c10585ec392f8a,626b3b86b2fbd86f2a040545,,,,,,,,,,,,,,,,,,,,,,,l,1,"[""0.044"",""0.505"",""0.443"",""0.824""]","[1,0,1,1]",0,42,42,42,1,1,1,,,1,FALSE,4.587,,,,,,,,,,,,,,,,,,,,,,,,,,,,,,
,S,001,2022-04-28_21h13.56.147,classification_task,2021.2.3,MacIntel,76.92307692,5e7bbca73554b20a08fc2f64,626b377229c10585ec392f8a,626b3b86b2fbd86f2a040545,,,,,,,,,,,,,,,,,,,,,,,a,1,"[""0.266"",""0.542"",""0.505"",""0.882""]","[1,1,0,1]",0,43,43,43,1,0,0,,,1,FALSE,1.292,,,,,,,,,,,,,,,,,,,,,,,,,,,,,,
,S,001,2022-04-28_21h13.56.147,classification_task,2021.2.3,MacIntel,76.92307692,5e7bbca73554b20a08fc2f64,626b377229c10585ec392f8a,626b3b86b2fbd86f2a040545,,,,,,,,,,,,,,,,,,,,,,,l,0,"[""0.161"",""0.399"",""0.674"",""0.748""]","[1,1,1,0]",0,44,44,44,1,0,1,,,1,FALSE,1.335,,,,,,,,,,,,,,,,,,,,,,,,,,,,,,
,S,001,2022-04-28_21h13.56.147,classification_task,2021.2.3,MacIntel,76.92307692,5e7bbca73554b20a08fc2f64,626b377229c10585ec392f8a,626b3b86b2fbd86f2a040545,,,,,,,,,,,,,,,,,,,,,,,l,0,"[""0.161"",""0.788"",""0.674"",""0.966""]","[1,0,1,1]",0,45,45,45,1,0,1,,,1,FALSE,1.389,,,,,,,,,,,,,,,,,,,,,,,,,,,,,,
,S,001,2022-04-28_21h13.56.147,classification_task,2021.2.3,MacIntel,76.92307692,5e7bbca73554b20a08fc2f64,626b377229c10585ec392f8a,626b3b86b2fbd86f2a040545,,,,,,,,,,,,,,,,,,,,,,,a,1,"[""0.266"",""0.542"",""0.584"",""0.753""]","[1,1,1,0]",0,46,46,46,1,0,0,,,1,FALSE,0.751,,,,,,,,,,,,,,,,,,,,,,,,,,,,,,
,S,001,2022-04-28_21h13.56.147,classification_task,2021.2.3,MacIntel,76.92307692,5e7bbca73554b20a08fc2f64,626b377229c10585ec392f8a,626b3b86b2fbd86f2a040545,,,,,,,,,,,,,,,,,,,,,,,a,1,"[""0.760"",""0.399"",""0.674"",""0.966""]","[0,1,1,1]",0,47,47,47,1,0,1,,,1,FALSE,0.745,,,,,,,,,,,,,,,,,,,,,,,,,,,,,,
,S,001,2022-04-28_21h13.56.147,classification_task,2021.2.3,MacIntel,76.92307692,5e7bbca73554b20a08fc2f64,626b377229c10585ec392f8a,626b3b86b2fbd86f2a040545,,,,,,,,,,,,,,,,,,,,,,,l,1,"[""0.044"",""0.763"",""0.443"",""0.824""]","[1,0,1,1]",0,48,48,48,1,1,1,,,1,FALSE,1.957,,,,,,,,,,,,,,,,,,,,,,,,,,,,,,
,S,001,2022-04-28_21h13.56.147,classification_task,2021.2.3,MacIntel,76.92307692,5e7bbca73554b20a08fc2f64,626b377229c10585ec392f8a,626b3b86b2fbd86f2a040545,,,,,,,,,,,,,,,,,,,,,,,a,0,"[""0.477"",""0.333"",""0.443"",""0.824""]","[0,1,1,1]",0,49,49,49,1,1,1,,,1,FALSE,1.049,,,,,,,,,,,,,,,,,,,,,,,,,,,,,,
,S,001,2022-04-28_21h13.56.147,classification_task,2021.2.3,MacIntel,76.92307692,5e7bbca73554b20a08fc2f64,626b377229c10585ec392f8a,626b3b86b2fbd86f2a040545,,,,,,,,,,,,,,,,,,,,,,,l,0,"[""0.266"",""0.542"",""0.760"",""0.882""]","[1,1,0,1]",0,50,50,50,1,0,0,,,1,FALSE,1.259,,,,,,,,,,,,,,,,,,,,,,,,,,,,,,
,S,001,2022-04-28_21h13.56.147,classification_task,2021.2.3,MacIntel,76.92307692,5e7bbca73554b20a08fc2f64,626b377229c10585ec392f8a,626b3b86b2fbd86f2a040545,,,,,,,,,,,,,,,,,,,,,,,a,0,"[""0.080"",""0.223"",""0.767"",""0.711""]","[1,1,0,1]",0,51,51,51,1,1,0,,,1,FALSE,0.599,,,,,,,,,,,,,,,,,,,,,,,,,,,,,,
,S,001,2022-04-28_21h13.56.147,classification_task,2021.2.3,MacIntel,76.92307692,5e7bbca73554b20a08fc2f64,626b377229c10585ec392f8a,626b3b86b2fbd86f2a040545,,,,,,,,,,,,,,,,,,,,,,,a,0,"[""0.080"",""0.223"",""0.634"",""0.126""]","[1,1,1,0]",0,52,52,52,1,1,0,,,1,FALSE,1.851,,,,,,,,,,,,,,,,,,,,,,,,,,,,,,
,S,001,2022-04-28_21h13.56.147,classification_task,2021.2.3,MacIntel,76.92307692,5e7bbca73554b20a08fc2f64,626b377229c10585ec392f8a,626b3b86b2fbd86f2a040545,,,,,,,,,,,,,,,,,,,,,,,l,0,"[""0.161"",""0.399"",""0.300"",""0.966""]","[1,1,0,1]",0,53,53,53,1,0,1,,,1,FALSE,0.667,,,,,,,,,,,,,,,,,,,,,,,,,,,,,,
,S,001,2022-04-28_21h13.56.147,classification_task,2021.2.3,MacIntel,76.92307692,5e7bbca73554b20a08fc2f64,626b377229c10585ec392f8a,626b3b86b2fbd86f2a040545,,,,,,,,,,,,,,,,,,,,,,,a,1,"[""0.266"",""0.542"",""0.584"",""0.767""]","[1,1,1,0]",0,54,54,54,1,0,0,,,1,FALSE,0.573,,,,,,,,,,,,,,,,,,,,,,,,,,,,,,
,S,001,2022-04-28_21h13.56.147,classification_task,2021.2.3,MacIntel,76.92307692,5e7bbca73554b20a08fc2f64,626b377229c10585ec392f8a,626b3b86b2fbd86f2a040545,,,,,,,,,,,,,,,,,,,,,,,a,1,"[""0.161"",""0.496"",""0.674"",""0.966""]","[1,0,1,1]",0,55,55,55,1,0,1,,,1,FALSE,0.547,,,,,,,,,,,,,,,,,,,,,,,,,,,,,,
,S,001,2022-04-28_21h13.56.147,classification_task,2021.2.3,MacIntel,76.92307692,5e7bbca73554b20a08fc2f64,626b377229c10585ec392f8a,626b3b86b2fbd86f2a040545,,,,,,,,,,,,,,,,,,,,,,,a,1,"[""0.918"",""0.542"",""0.584"",""0.882""]","[0,1,1,1]",0,56,56,56,1,0,0,,,1,FALSE,0.649,,,,,,,,,,,,,,,,,,,,,,,,,,,,,,
,S,001,2022-04-28_21h13.56.147,classification_task,2021.2.3,MacIntel,76.92307692,5e7bbca73554b20a08fc2f64,626b377229c10585ec392f8a,626b3b86b2fbd86f2a040545,,,,,,,,,,,,,,,,,,,,,,,a,1,"[""0.918"",""0.399"",""0.674"",""0.966""]","[0,1,1,1]",0,57,57,57,1,0,1,,,1,FALSE,0.615,,,,,,,,,,,,,,,,,,,,,,,,,,,,,,
,S,001,2022-04-28_21h13.56.147,classification_task,2021.2.3,MacIntel,76.92307692,5e7bbca73554b20a08fc2f64,626b377229c10585ec392f8a,626b3b86b2fbd86f2a040545,,,,,,,,,,,,,,,,,,,,,,,a,0,"[""0.080"",""0.748"",""0.634"",""0.711""]","[1,0,1,1]",0,58,58,58,1,1,0,,,1,FALSE,0.77,,,,,,,,,,,,,,,,,,,,,,,,,,,,,,
,S,001,2022-04-28_21h13.56.147,classification_task,2021.2.3,MacIntel,76.92307692,5e7bbca73554b20a08fc2f64,626b377229c10585ec392f8a,626b3b86b2fbd86f2a040545,,,,,,,,,,,,,,,,,,,,,,,a,1,"[""0.266"",""0.300"",""0.584"",""0.882""]","[1,0,1,1]",0,59,59,59,1,0,0,,,1,FALSE,2.351,,,,,,,,,,,,,,,,,,,,,,,,,,,,,,
,S,001,2022-04-28_21h13.56.147,classification_task,2021.2.3,MacIntel,76.92307692,5e7bbca73554b20a08fc2f64,626b377229c10585ec392f8a,626b3b86b2fbd86f2a040545,,,,,,,,,,,,,,,,,,,,,,,l,1,"[""0.044"",""0.333"",""0.443"",""0.477""]","[1,1,1,0]",0,60,60,60,1,1,1,,,1,FALSE,0.885,,,,,,,,,,,,,,,,,,,,,,,,,,,,,,
,S,001,2022-04-28_21h13.56.147,classification_task,2021.2.3,MacIntel,76.92307692,5e7bbca73554b20a08fc2f64,626b377229c10585ec392f8a,626b3b86b2fbd86f2a040545,,,,,,,,,,,,,,,,,,,,,,,l,0,"[""0.161"",""0.399"",""0.674"",""0.126""]","[1,1,1,0]",0,61,61,61,1,0,1,,,1,FALSE,1.049,,,,,,,,,,,,,,,,,,,,,,,,,,,,,,
,S,001,2022-04-28_21h13.56.147,classification_task,2021.2.3,MacIntel,76.92307692,5e7bbca73554b20a08fc2f64,626b377229c10585ec392f8a,626b3b86b2fbd86f2a040545,,,,,,,,,,,,,,,,,,,,,,,a,0,"[""0.044"",""0.333"",""0.767"",""0.824""]","[1,1,0,1]",0,62,62,62,1,1,1,,,1,FALSE,0.646,,,,,,,,,,,,,,,,,,,,,,,,,,,,,,
,S,001,2022-04-28_21h13.56.147,classification_task,2021.2.3,MacIntel,76.92307692,5e7bbca73554b20a08fc2f64,626b377229c10585ec392f8a,626b3b86b2fbd86f2a040545,,,,,,,,,,,,,,,,,,,,,,,l,1,"[""0.126"",""0.223"",""0.634"",""0.711""]","[0,1,1,1]",0,63,63,63,1,1,0,,,1,FALSE,3.77,,,,,,,,,,,,,,,,,,,,,,,,,,,,,,
,S,001,2022-04-28_21h13.56.147,classification_task,2021.2.3,MacIntel,76.92307692,5e7bbca73554b20a08fc2f64,626b377229c10585ec392f8a,626b3b86b2fbd86f2a040545,,,,,,,,,,,,,,,,,,,,,,,,,,,,,,,,,,,,,,,0, ,,0,5.558495003,462.639,0,0,0,0,1,2,1,,,,,,,,,,,,,,,,,
,S,001,2022-04-28_21h13.56.147,classification_task,2021.2.3,MacIntel,76.92307692,5e7bbca73554b20a08fc2f64,626b377229c10585ec392f8a,626b3b86b2fbd86f2a040545,,,,,,,,,,,,,,,,,,,,,,,,,,,,,,,,,,,,,,,1,  ,,0,6.499118166,467.639,0,0,0,0,1,2,1,,,,,,,,,,,,,,,,,
,S,001,2022-04-28_21h13.56.147,classification_task,2021.2.3,MacIntel,76.92307692,5e7bbca73554b20a08fc2f64,626b377229c10585ec392f8a,626b3b86b2fbd86f2a040545,,,,,,,,,,,,,,,,,,,,,,,,,,,,,,,,,,,,,,,2,  ,,0,4.676660788,473.144,0,0,0,0,1,2,1,,,,,,,,,,,,,,,,,
,S,001,2022-04-28_21h13.56.147,classification_task,2021.2.3,MacIntel,76.92307692,5e7bbca73554b20a08fc2f64,626b377229c10585ec392f8a,626b3b86b2fbd86f2a040545,,,,,,,,,,,,,,,,,,,,,,,,,,,,,,,,,,,,,,,,,,,,,0,0,0,0,1,,1,,,,,,,,,,,,,,,,,
,S,001,2022-04-28_21h13.56.147,classification_task,2021.2.3,MacIntel,76.92307692,5e7bbca73554b20a08fc2f64,626b377229c10585ec392f8a,626b3b86b2fbd86f2a040545,,,,,,,,,,,,,,,,,,,,,space,9.004,l,1,"[""0.080"",""0.223"",""0.505"",""0.711""]","[1,1,0,1]",0,0,0,0,1,1,0,,,1,FALSE,6.291,,,,,,,,,,,,,,,,,,,,,,,,,,,,,,
,S,001,2022-04-28_21h13.56.147,classification_task,2021.2.3,MacIntel,76.92307692,5e7bbca73554b20a08fc2f64,626b377229c10585ec392f8a,626b3b86b2fbd86f2a040545,,,,,,,,,,,,,,,,,,,,,,,a,1,"[""0.161"",""0.399"",""0.767"",""0.966""]","[1,1,0,1]",0,1,1,1,1,0,1,,,1,FALSE,5.474,,,,,,,,,,,,,,,,,,,,,,,,,,,,,,
,S,001,2022-04-28_21h13.56.147,classification_task,2021.2.3,MacIntel,76.92307692,5e7bbca73554b20a08fc2f64,626b377229c10585ec392f8a,626b3b86b2fbd86f2a040545,,,,,,,,,,,,,,,,,,,,,,,l,1,"[""0.760"",""0.223"",""0.634"",""0.711""]","[0,1,1,1]",0,2,2,2,1,1,0,,,1,FALSE,1.333,,,,,,,,,,,,,,,,,,,,,,,,,,,,,,
,S,001,2022-04-28_21h13.56.147,classification_task,2021.2.3,MacIntel,76.92307692,5e7bbca73554b20a08fc2f64,626b377229c10585ec392f8a,626b3b86b2fbd86f2a040545,,,,,,,,,,,,,,,,,,,,,,,l,0,"[""0.266"",""0.542"",""0.584"",""0.505""]","[1,1,1,0]",0,3,3,3,1,0,0,,,1,FALSE,1.107,,,,,,,,,,,,,,,,,,,,,,,,,,,,,,
,S,001,2022-04-28_21h13.56.147,classification_task,2021.2.3,MacIntel,76.92307692,5e7bbca73554b20a08fc2f64,626b377229c10585ec392f8a,626b3b86b2fbd86f2a040545,,,,,,,,,,,,,,,,,,,,,,,l,1,"[""0.044"",""0.333"",""0.443"",""0.505""]","[1,1,1,0]",0,4,4,4,1,1,1,,,1,FALSE,2.929,,,,,,,,,,,,,,,,,,,,,,,,,,,,,,
,S,001,2022-04-28_21h13.56.147,classification_task,2021.2.3,MacIntel,76.92307692,5e7bbca73554b20a08fc2f64,626b377229c10585ec392f8a,626b3b86b2fbd86f2a040545,,,,,,,,,,,,,,,,,,,,,,,l,1,"[""0.044"",""0.300"",""0.443"",""0.824""]","[1,0,1,1]",0,5,5,5,1,1,1,,,1,FALSE,2.233,,,,,,,,,,,,,,,,,,,,,,,,,,,,,,
,S,001,2022-04-28_21h13.56.147,classification_task,2021.2.3,MacIntel,76.92307692,5e7bbca73554b20a08fc2f64,626b377229c10585ec392f8a,626b3b86b2fbd86f2a040545,,,,,,,,,,,,,,,,,,,,,,,a,1,"[""0.748"",""0.399"",""0.674"",""0.966""]","[0,1,1,1]",0,6,6,6,1,0,1,,,1,FALSE,1.041,,,,,,,,,,,,,,,,,,,,,,,,,,,,,,
,S,001,2022-04-28_21h13.56.147,classification_task,2021.2.3,MacIntel,76.92307692,5e7bbca73554b20a08fc2f64,626b377229c10585ec392f8a,626b3b86b2fbd86f2a040545,,,,,,,,,,,,,,,,,,,,,,,a,1,"[""0.266"",""0.542"",""0.505"",""0.882""]","[1,1,0,1]",0,7,7,7,1,0,0,,,1,FALSE,1.168,,,,,,,,,,,,,,,,,,,,,,,,,,,,,,
,S,001,2022-04-28_21h13.56.147,classification_task,2021.2.3,MacIntel,76.92307692,5e7bbca73554b20a08fc2f64,626b377229c10585ec392f8a,626b3b86b2fbd86f2a040545,,,,,,,,,,,,,,,,,,,,,,,a,1,"[""0.266"",""0.126"",""0.584"",""0.882""]","[1,0,1,1]",0,8,8,8,1,0,0,,,1,FALSE,0.96,,,,,,,,,,,,,,,,,,,,,,,,,,,,,,
,S,001,2022-04-28_21h13.56.147,classification_task,2021.2.3,MacIntel,76.92307692,5e7bbca73554b20a08fc2f64,626b377229c10585ec392f8a,626b3b86b2fbd86f2a040545,,,,,,,,,,,,,,,,,,,,,,,a,0,"[""0.080"",""0.477"",""0.634"",""0.711""]","[1,0,1,1]",0,9,9,9,1,1,0,,,1,FALSE,0.564,,,,,,,,,,,,,,,,,,,,,,,,,,,,,,
,S,001,2022-04-28_21h13.56.147,classification_task,2021.2.3,MacIntel,76.92307692,5e7bbca73554b20a08fc2f64,626b377229c10585ec392f8a,626b3b86b2fbd86f2a040545,,,,,,,,,,,,,,,,,,,,,,,a,1,"[""0.161"",""0.477"",""0.674"",""0.966""]","[1,0,1,1]",0,10,10,10,1,0,1,,,1,FALSE,1.23,,,,,,,,,,,,,,,,,,,,,,,,,,,,,,
,S,001,2022-04-28_21h13.56.147,classification_task,2021.2.3,MacIntel,76.92307692,5e7bbca73554b20a08fc2f64,626b377229c10585ec392f8a,626b3b86b2fbd86f2a040545,,,,,,,,,,,,,,,,,,,,,,,l,1,"[""0.918"",""0.333"",""0.443"",""0.824""]","[0,1,1,1]",0,11,11,11,1,1,1,,,1,FALSE,0.844,,,,,,,,,,,,,,,,,,,,,,,,,,,,,,
,S,001,2022-04-28_21h13.56.147,classification_task,2021.2.3,MacIntel,76.92307692,5e7bbca73554b20a08fc2f64,626b377229c10585ec392f8a,626b3b86b2fbd86f2a040545,,,,,,,,,,,,,,,,,,,,,,,a,0,"[""0.080"",""0.223"",""0.634"",""0.760""]","[1,1,1,0]",0,12,12,12,1,1,0,,,1,FALSE,0.785,,,,,,,,,,,,,,,,,,,,,,,,,,,,,,
,S,001,2022-04-28_21h13.56.147,classification_task,2021.2.3,MacIntel,76.92307692,5e7bbca73554b20a08fc2f64,626b377229c10585ec392f8a,626b3b86b2fbd86f2a040545,,,,,,,,,,,,,,,,,,,,,,,l,0,"[""0.505"",""0.542"",""0.584"",""0.882""]","[0,1,1,1]",0,13,13,13,1,0,0,,,1,FALSE,0.455,,,,,,,,,,,,,,,,,,,,,,,,,,,,,,
,S,001,2022-04-28_21h13.56.147,classification_task,2021.2.3,MacIntel,76.92307692,5e7bbca73554b20a08fc2f64,626b377229c10585ec392f8a,626b3b86b2fbd86f2a040545,,,,,,,,,,,,,,,,,,,,,,,a,1,"[""0.161"",""0.399"",""0.674"",""0.477""]","[1,1,1,0]",0,14,14,14,1,0,1,,,1,FALSE,1.117,,,,,,,,,,,,,,,,,,,,,,,,,,,,,,
,S,001,2022-04-28_21h13.56.147,classification_task,2021.2.3,MacIntel,76.92307692,5e7bbca73554b20a08fc2f64,626b377229c10585ec392f8a,626b3b86b2fbd86f2a040545,,,,,,,,,,,,,,,,,,,,,,,l,1,"[""0.044"",""0.333"",""0.505"",""0.824""]","[1,1,0,1]",0,15,15,15,1,1,1,,,1,FALSE,0.781,,,,,,,,,,,,,,,,,,,,,,,,,,,,,,
,S,001,2022-04-28_21h13.56.147,classification_task,2021.2.3,MacIntel,76.92307692,5e7bbca73554b20a08fc2f64,626b377229c10585ec392f8a,626b3b86b2fbd86f2a040545,,,,,,,,,,,,,,,,,,,,,,,a,1,"[""0.266"",""0.542"",""0.584"",""0.496""]","[1,1,1,0]",0,16,16,16,1,0,0,,,1,FALSE,0.873,,,,,,,,,,,,,,,,,,,,,,,,,,,,,,
,S,001,2022-04-28_21h13.56.147,classification_task,2021.2.3,MacIntel,76.92307692,5e7bbca73554b20a08fc2f64,626b377229c10585ec392f8a,626b3b86b2fbd86f2a040545,,,,,,,,,,,,,,,,,,,,,,,l,1,"[""0.080"",""0.223"",""0.634"",""0.763""]","[1,1,1,0]",0,17,17,17,1,1,0,,,1,FALSE,0.735,,,,,,,,,,,,,,,,,,,,,,,,,,,,,,
,S,001,2022-04-28_21h13.56.147,classification_task,2021.2.3,MacIntel,76.92307692,5e7bbca73554b20a08fc2f64,626b377229c10585ec392f8a,626b3b86b2fbd86f2a040545,,,,,,,,,,,,,,,,,,,,,,,a,1,"[""0.760"",""0.399"",""0.674"",""0.966""]","[0,1,1,1]",0,18,18,18,1,0,1,,,1,FALSE,1.174,,,,,,,,,,,,,,,,,,,,,,,,,,,,,,
,S,001,2022-04-28_21h13.56.147,classification_task,2021.2.3,MacIntel,76.92307692,5e7bbca73554b20a08fc2f64,626b377229c10585ec392f8a,626b3b86b2fbd86f2a040545,,,,,,,,,,,,,,,,,,,,,,,l,1,"[""0.080"",""0.223"",""0.477"",""0.711""]","[1,1,0,1]",0,19,19,19,1,1,0,,,1,FALSE,0.921,,,,,,,,,,,,,,,,,,,,,,,,,,,,,,
,S,001,2022-04-28_21h13.56.147,classification_task,2021.2.3,MacIntel,76.92307692,5e7bbca73554b20a08fc2f64,626b377229c10585ec392f8a,626b3b86b2fbd86f2a040545,,,,,,,,,,,,,,,,,,,,,,,l,1,"[""0.044"",""0.333"",""0.443"",""0.748""]","[1,1,1,0]",0,20,20,20,1,1,1,,,1,FALSE,0.929,,,,,,,,,,,,,,,,,,,,,,,,,,,,,,
,S,001,2022-04-28_21h13.56.147,classification_task,2021.2.3,MacIntel,76.92307692,5e7bbca73554b20a08fc2f64,626b377229c10585ec392f8a,626b3b86b2fbd86f2a040545,,,,,,,,,,,,,,,,,,,,,,,l,0,"[""0.760"",""0.542"",""0.584"",""0.882""]","[0,1,1,1]",0,21,21,21,1,0,0,,,1,FALSE,0.823,,,,,,,,,,,,,,,,,,,,,,,,,,,,,,
,S,001,2022-04-28_21h13.56.147,classification_task,2021.2.3,MacIntel,76.92307692,5e7bbca73554b20a08fc2f64,626b377229c10585ec392f8a,626b3b86b2fbd86f2a040545,,,,,,,,,,,,,,,,,,,,,,,a,0,"[""0.753"",""0.223"",""0.634"",""0.711""]","[0,1,1,1]",0,22,22,22,1,1,0,,,1,FALSE,0.965,,,,,,,,,,,,,,,,,,,,,,,,,,,,,,
,S,001,2022-04-28_21h13.56.147,classification_task,2021.2.3,MacIntel,76.92307692,5e7bbca73554b20a08fc2f64,626b377229c10585ec392f8a,626b3b86b2fbd86f2a040545,,,,,,,,,,,,,,,,,,,,,,,a,1,"[""0.161"",""0.399"",""0.674"",""0.753""]","[1,1,1,0]",0,23,23,23,1,0,1,,,1,FALSE,1.36,,,,,,,,,,,,,,,,,,,,,,,,,,,,,,
,S,001,2022-04-28_21h13.56.147,classification_task,2021.2.3,MacIntel,76.92307692,5e7bbca73554b20a08fc2f64,626b377229c10585ec392f8a,626b3b86b2fbd86f2a040545,,,,,,,,,,,,,,,,,,,,,,,a,1,"[""0.161"",""0.126"",""0.674"",""0.966""]","[1,0,1,1]",0,24,24,24,1,0,1,,,1,FALSE,0.594,,,,,,,,,,,,,,,,,,,,,,,,,,,,,,
,S,001,2022-04-28_21h13.56.147,classification_task,2021.2.3,MacIntel,76.92307692,5e7bbca73554b20a08fc2f64,626b377229c10585ec392f8a,626b3b86b2fbd86f2a040545,,,,,,,,,,,,,,,,,,,,,,,l,1,"[""0.495"",""0.333"",""0.443"",""0.824""]","[0,1,1,1]",0,25,25,25,1,1,1,,,1,FALSE,0.638,,,,,,,,,,,,,,,,,,,,,,,,,,,,,,
,S,001,2022-04-28_21h13.56.147,classification_task,2021.2.3,MacIntel,76.92307692,5e7bbca73554b20a08fc2f64,626b377229c10585ec392f8a,626b3b86b2fbd86f2a040545,,,,,,,,,,,,,,,,,,,,,,,a,1,"[""0.161"",""0.399"",""0.748"",""0.966""]","[1,1,0,1]",0,26,26,26,1,0,1,,,1,FALSE,0.586,,,,,,,,,,,,,,,,,,,,,,,,,,,,,,
,S,001,2022-04-28_21h13.56.147,classification_task,2021.2.3,MacIntel,76.92307692,5e7bbca73554b20a08fc2f64,626b377229c10585ec392f8a,626b3b86b2fbd86f2a040545,,,,,,,,,,,,,,,,,,,,,,,l,0,"[""0.266"",""0.477"",""0.584"",""0.882""]","[1,0,1,1]",0,27,27,27,1,0,0,,,1,FALSE,1.06,,,,,,,,,,,,,,,,,,,,,,,,,,,,,,
,S,001,2022-04-28_21h13.56.147,classification_task,2021.2.3,MacIntel,76.92307692,5e7bbca73554b20a08fc2f64,626b377229c10585ec392f8a,626b3b86b2fbd86f2a040545,,,,,,,,,,,,,,,,,,,,,,,l,1,"[""0.080"",""0.495"",""0.634"",""0.711""]","[1,0,1,1]",0,28,28,28,1,1,0,,,1,FALSE,0.551,,,,,,,,,,,,,,,,,,,,,,,,,,,,,,
,S,001,2022-04-28_21h13.56.147,classification_task,2021.2.3,MacIntel,76.92307692,5e7bbca73554b20a08fc2f64,626b377229c10585ec392f8a,626b3b86b2fbd86f2a040545,,,,,,,,,,,,,,,,,,,,,,,a,0,"[""0.044"",""0.495"",""0.443"",""0.824""]","[1,0,1,1]",0,29,29,29,1,1,1,,,1,FALSE,0.926,,,,,,,,,,,,,,,,,,,,,,,,,,,,,,
,S,001,2022-04-28_21h13.56.147,classification_task,2021.2.3,MacIntel,76.92307692,5e7bbca73554b20a08fc2f64,626b377229c10585ec392f8a,626b3b86b2fbd86f2a040545,,,,,,,,,,,,,,,,,,,,,,,a,1,"[""0.266"",""0.542"",""0.495"",""0.882""]","[1,1,0,1]",0,30,30,30,1,0,0,,,1,FALSE,0.759,,,,,,,,,,,,,,,,,,,,,,,,,,,,,,
,S,001,2022-04-28_21h13.56.147,classification_task,2021.2.3,MacIntel,76.92307692,5e7bbca73554b20a08fc2f64,626b377229c10585ec392f8a,626b3b86b2fbd86f2a040545,,,,,,,,,,,,,,,,,,,,,,,l,1,"[""0.044"",""0.333"",""0.788"",""0.824""]","[1,1,0,1]",0,31,31,31,1,1,1,,,1,FALSE,0.956,,,,,,,,,,,,,,,,,,,,,,,,,,,,,,
,S,001,2022-04-28_21h13.56.147,classification_task,2021.2.3,MacIntel,76.92307692,5e7bbca73554b20a08fc2f64,626b377229c10585ec392f8a,626b3b86b2fbd86f2a040545,,,,,,,,,,,,,,,,,,,,,,,a,0,"[""0.767"",""0.223"",""0.634"",""0.711""]","[0,1,1,1]",0,32,32,32,1,1,0,,,1,FALSE,0.694,,,,,,,,,,,,,,,,,,,,,,,,,,,,,,
,S,001,2022-04-28_21h13.56.147,classification_task,2021.2.3,MacIntel,76.92307692,5e7bbca73554b20a08fc2f64,626b377229c10585ec392f8a,626b3b86b2fbd86f2a040545,,,,,,,,,,,,,,,,,,,,,,,l,0,"[""0.266"",""0.495"",""0.584"",""0.882""]","[1,0,1,1]",0,33,33,33,1,0,0,,,1,FALSE,0.744,,,,,,,,,,,,,,,,,,,,,,,,,,,,,,
,S,001,2022-04-28_21h13.56.147,classification_task,2021.2.3,MacIntel,76.92307692,5e7bbca73554b20a08fc2f64,626b377229c10585ec392f8a,626b3b86b2fbd86f2a040545,,,,,,,,,,,,,,,,,,,,,,,a,1,"[""0.161"",""0.477"",""0.674"",""0.966""]","[1,0,1,1]",0,34,34,34,1,0,1,,,1,FALSE,0.88,,,,,,,,,,,,,,,,,,,,,,,,,,,,,,
,S,001,2022-04-28_21h13.56.147,classification_task,2021.2.3,MacIntel,76.92307692,5e7bbca73554b20a08fc2f64,626b377229c10585ec392f8a,626b3b86b2fbd86f2a040545,,,,,,,,,,,,,,,,,,,,,,,a,1,"[""0.266"",""0.542"",""0.918"",""0.882""]","[1,1,0,1]",0,35,35,35,1,0,0,,,1,FALSE,0.64,,,,,,,,,,,,,,,,,,,,,,,,,,,,,,
,S,001,2022-04-28_21h13.56.147,classification_task,2021.2.3,MacIntel,76.92307692,5e7bbca73554b20a08fc2f64,626b377229c10585ec392f8a,626b3b86b2fbd86f2a040545,,,,,,,,,,,,,,,,,,,,,,,a,1,"[""0.161"",""0.399"",""0.674"",""0.300""]","[1,1,1,0]",0,36,36,36,1,0,1,,,1,FALSE,0.769,,,,,,,,,,,,,,,,,,,,,,,,,,,,,,
,S,001,2022-04-28_21h13.56.147,classification_task,2021.2.3,MacIntel,76.92307692,5e7bbca73554b20a08fc2f64,626b377229c10585ec392f8a,626b3b86b2fbd86f2a040545,,,,,,,,,,,,,,,,,,,,,,,a,1,"[""0.161"",""0.399"",""0.505"",""0.966""]","[1,1,0,1]",0,37,37,37,1,0,1,,,1,FALSE,0.616,,,,,,,,,,,,,,,,,,,,,,,,,,,,,,
,S,001,2022-04-28_21h13.56.147,classification_task,2021.2.3,MacIntel,76.92307692,5e7bbca73554b20a08fc2f64,626b377229c10585ec392f8a,626b3b86b2fbd86f2a040545,,,,,,,,,,,,,,,,,,,,,,,l,0,"[""0.495"",""0.542"",""0.584"",""0.882""]","[0,1,1,1]",0,38,38,38,1,0,0,,,1,FALSE,1.03,,,,,,,,,,,,,,,,,,,,,,,,,,,,,,
,S,001,2022-04-28_21h13.56.147,classification_task,2021.2.3,MacIntel,76.92307692,5e7bbca73554b20a08fc2f64,626b377229c10585ec392f8a,626b3b86b2fbd86f2a040545,,,,,,,,,,,,,,,,,,,,,,,l,1,"[""0.080"",""0.477"",""0.634"",""0.711""]","[1,0,1,1]",0,39,39,39,1,1,0,,,1,FALSE,1.358,,,,,,,,,,,,,,,,,,,,,,,,,,,,,,
,S,001,2022-04-28_21h13.56.147,classification_task,2021.2.3,MacIntel,76.92307692,5e7bbca73554b20a08fc2f64,626b377229c10585ec392f8a,626b3b86b2fbd86f2a040545,,,,,,,,,,,,,,,,,,,,,,,l,1,"[""0.080"",""0.223"",""0.763"",""0.711""]","[1,1,0,1]",0,40,40,40,1,1,0,,,1,FALSE,0.463,,,,,,,,,,,,,,,,,,,,,,,,,,,,,,
,S,001,2022-04-28_21h13.56.147,classification_task,2021.2.3,MacIntel,76.92307692,5e7bbca73554b20a08fc2f64,626b377229c10585ec392f8a,626b3b86b2fbd86f2a040545,,,,,,,,,,,,,,,,,,,,,,,l,1,"[""0.044"",""0.505"",""0.443"",""0.824""]","[1,0,1,1]",0,41,41,41,1,1,1,,,1,FALSE,0.826,,,,,,,,,,,,,,,,,,,,,,,,,,,,,,
,S,001,2022-04-28_21h13.56.147,classification_task,2021.2.3,MacIntel,76.92307692,5e7bbca73554b20a08fc2f64,626b377229c10585ec392f8a,626b3b86b2fbd86f2a040545,,,,,,,,,,,,,,,,,,,,,,,l,1,"[""0.080"",""0.223"",""0.634"",""0.126""]","[1,1,1,0]",0,42,42,42,1,1,0,,,1,FALSE,0.644,,,,,,,,,,,,,,,,,,,,,,,,,,,,,,
,S,001,2022-04-28_21h13.56.147,classification_task,2021.2.3,MacIntel,76.92307692,5e7bbca73554b20a08fc2f64,626b377229c10585ec392f8a,626b3b86b2fbd86f2a040545,,,,,,,,,,,,,,,,,,,,,,,a,1,"[""0.477"",""0.399"",""0.674"",""0.966""]","[0,1,1,1]",0,43,43,43,1,0,1,,,1,FALSE,0.753,,,,,,,,,,,,,,,,,,,,,,,,,,,,,,
,S,001,2022-04-28_21h13.56.147,classification_task,2021.2.3,MacIntel,76.92307692,5e7bbca73554b20a08fc2f64,626b377229c10585ec392f8a,626b3b86b2fbd86f2a040545,,,,,,,,,,,,,,,,,,,,,,,l,1,"[""0.748"",""0.333"",""0.443"",""0.824""]","[0,1,1,1]",0,44,44,44,1,1,1,,,1,FALSE,0.784,,,,,,,,,,,,,,,,,,,,,,,,,,,,,,
,S,001,2022-04-28_21h13.56.147,classification_task,2021.2.3,MacIntel,76.92307692,5e7bbca73554b20a08fc2f64,626b377229c10585ec392f8a,626b3b86b2fbd86f2a040545,,,,,,,,,,,,,,,,,,,,,,,l,1,"[""0.044"",""0.333"",""0.477"",""0.824""]","[1,1,0,1]",0,45,45,45,1,1,1,,,1,FALSE,0.699,,,,,,,,,,,,,,,,,,,,,,,,,,,,,,
,S,001,2022-04-28_21h13.56.147,classification_task,2021.2.3,MacIntel,76.92307692,5e7bbca73554b20a08fc2f64,626b377229c10585ec392f8a,626b3b86b2fbd86f2a040545,,,,,,,,,,,,,,,,,,,,,,,l,1,"[""0.044"",""0.333"",""0.443"",""0.788""]","[1,1,1,0]",0,46,46,46,1,1,1,,,1,FALSE,0.554,,,,,,,,,,,,,,,,,,,,,,,,,,,,,,
,S,001,2022-04-28_21h13.56.147,classification_task,2021.2.3,MacIntel,76.92307692,5e7bbca73554b20a08fc2f64,626b377229c10585ec392f8a,626b3b86b2fbd86f2a040545,,,,,,,,,,,,,,,,,,,,,,,l,0,"[""0.266"",""0.542"",""0.584"",""0.767""]","[1,1,1,0]",0,47,47,47,1,0,0,,,1,FALSE,1.355,,,,,,,,,,,,,,,,,,,,,,,,,,,,,,
,S,001,2022-04-28_21h13.56.147,classification_task,2021.2.3,MacIntel,76.92307692,5e7bbca73554b20a08fc2f64,626b377229c10585ec392f8a,626b3b86b2fbd86f2a040545,,,,,,,,,,,,,,,,,,,,,,,a,1,"[""0.266"",""0.542"",""0.763"",""0.882""]","[1,1,0,1]",0,48,48,48,1,0,0,,,1,FALSE,0.622,,,,,,,,,,,,,,,,,,,,,,,,,,,,,,
,S,001,2022-04-28_21h13.56.147,classification_task,2021.2.3,MacIntel,76.92307692,5e7bbca73554b20a08fc2f64,626b377229c10585ec392f8a,626b3b86b2fbd86f2a040545,,,,,,,,,,,,,,,,,,,,,,,l,1,"[""0.044"",""0.333"",""0.918"",""0.824""]","[1,1,0,1]",0,49,49,49,1,1,1,,,1,FALSE,0.731,,,,,,,,,,,,,,,,,,,,,,,,,,,,,,
,S,001,2022-04-28_21h13.56.147,classification_task,2021.2.3,MacIntel,76.92307692,5e7bbca73554b20a08fc2f64,626b377229c10585ec392f8a,626b3b86b2fbd86f2a040545,,,,,,,,,,,,,,,,,,,,,,,a,1,"[""0.266"",""0.542"",""0.584"",""0.505""]","[1,1,1,0]",0,50,50,50,1,0,0,,,1,FALSE,0.809,,,,,,,,,,,,,,,,,,,,,,,,,,,,,,
,S,001,2022-04-28_21h13.56.147,classification_task,2021.2.3,MacIntel,76.92307692,5e7bbca73554b20a08fc2f64,626b377229c10585ec392f8a,626b3b86b2fbd86f2a040545,,,,,,,,,,,,,,,,,,,,,,,a,1,"[""0.788"",""0.542"",""0.584"",""0.882""]","[0,1,1,1]",0,51,51,51,1,0,0,,,1,FALSE,0.636,,,,,,,,,,,,,,,,,,,,,,,,,,,,,,
,S,001,2022-04-28_21h13.56.147,classification_task,2021.2.3,MacIntel,76.92307692,5e7bbca73554b20a08fc2f64,626b377229c10585ec392f8a,626b3b86b2fbd86f2a040545,,,,,,,,,,,,,,,,,,,,,,,a,1,"[""0.266"",""0.767"",""0.584"",""0.882""]","[1,0,1,1]",0,52,52,52,1,0,0,,,1,FALSE,0.543,,,,,,,,,,,,,,,,,,,,,,,,,,,,,,
,S,001,2022-04-28_21h13.56.147,classification_task,2021.2.3,MacIntel,76.92307692,5e7bbca73554b20a08fc2f64,626b377229c10585ec392f8a,626b3b86b2fbd86f2a040545,,,,,,,,,,,,,,,,,,,,,,,a,0,"[""0.080"",""0.760"",""0.634"",""0.711""]","[1,0,1,1]",0,53,53,53,1,1,0,,,1,FALSE,0.54,,,,,,,,,,,,,,,,,,,,,,,,,,,,,,
,S,001,2022-04-28_21h13.56.147,classification_task,2021.2.3,MacIntel,76.92307692,5e7bbca73554b20a08fc2f64,626b377229c10585ec392f8a,626b3b86b2fbd86f2a040545,,,,,,,,,,,,,,,,,,,,,,,a,1,"[""0.161"",""0.399"",""0.674"",""0.496""]","[1,1,1,0]",0,54,54,54,1,0,1,,,1,FALSE,1.006,,,,,,,,,,,,,,,,,,,,,,,,,,,,,,
,S,001,2022-04-28_21h13.56.147,classification_task,2021.2.3,MacIntel,76.92307692,5e7bbca73554b20a08fc2f64,626b377229c10585ec392f8a,626b3b86b2fbd86f2a040545,,,,,,,,,,,,,,,,,,,,,,,l,1,"[""0.044"",""0.333"",""0.443"",""0.748""]","[1,1,1,0]",0,55,55,55,1,1,1,,,1,FALSE,0.625,,,,,,,,,,,,,,,,,,,,,,,,,,,,,,
,S,001,2022-04-28_21h13.56.147,classification_task,2021.2.3,MacIntel,76.92307692,5e7bbca73554b20a08fc2f64,626b377229c10585ec392f8a,626b3b86b2fbd86f2a040545,,,,,,,,,,,,,,,,,,,,,,,a,1,"[""0.788"",""0.399"",""0.674"",""0.966""]","[0,1,1,1]",0,56,56,56,1,0,1,,,1,FALSE,0.622,,,,,,,,,,,,,,,,,,,,,,,,,,,,,,
,S,001,2022-04-28_21h13.56.147,classification_task,2021.2.3,MacIntel,76.92307692,5e7bbca73554b20a08fc2f64,626b377229c10585ec392f8a,626b3b86b2fbd86f2a040545,,,,,,,,,,,,,,,,,,,,,,,a,1,"[""0.161"",""0.399"",""0.477"",""0.966""]","[1,1,0,1]",0,57,57,57,1,0,1,,,1,FALSE,0.684,,,,,,,,,,,,,,,,,,,,,,,,,,,,,,
,S,001,2022-04-28_21h13.56.147,classification_task,2021.2.3,MacIntel,76.92307692,5e7bbca73554b20a08fc2f64,626b377229c10585ec392f8a,626b3b86b2fbd86f2a040545,,,,,,,,,,,,,,,,,,,,,,,a,0,"[""0.080"",""0.223"",""0.788"",""0.711""]","[1,1,0,1]",0,58,58,58,1,1,0,,,1,FALSE,1.058,,,,,,,,,,,,,,,,,,,,,,,,,,,,,,
,S,001,2022-04-28_21h13.56.147,classification_task,2021.2.3,MacIntel,76.92307692,5e7bbca73554b20a08fc2f64,626b377229c10585ec392f8a,626b3b86b2fbd86f2a040545,,,,,,,,,,,,,,,,,,,,,,,l,1,"[""0.044"",""0.760"",""0.443"",""0.824""]","[1,0,1,1]",0,59,59,59,1,1,1,,,1,FALSE,0.876,,,,,,,,,,,,,,,,,,,,,,,,,,,,,,
,S,001,2022-04-28_21h13.56.147,classification_task,2021.2.3,MacIntel,76.92307692,5e7bbca73554b20a08fc2f64,626b377229c10585ec392f8a,626b3b86b2fbd86f2a040545,,,,,,,,,,,,,,,,,,,,,,,l,1,"[""0.918"",""0.333"",""0.443"",""0.824""]","[0,1,1,1]",0,60,60,60,1,1,1,,,1,FALSE,0.568,,,,,,,,,,,,,,,,,,,,,,,,,,,,,,
,S,001,2022-04-28_21h13.56.147,classification_task,2021.2.3,MacIntel,76.92307692,5e7bbca73554b20a08fc2f64,626b377229c10585ec392f8a,626b3b86b2fbd86f2a040545,,,,,,,,,,,,,,,,,,,,,,,l,1,"[""0.080"",""0.223"",""0.634"",""0.126""]","[1,1,1,0]",0,61,61,61,1,1,0,,,1,FALSE,1.25,,,,,,,,,,,,,,,,,,,,,,,,,,,,,,
,S,001,2022-04-28_21h13.56.147,classification_task,2021.2.3,MacIntel,76.92307692,5e7bbca73554b20a08fc2f64,626b377229c10585ec392f8a,626b3b86b2fbd86f2a040545,,,,,,,,,,,,,,,,,,,,,,,l,1,"[""0.505"",""0.223"",""0.634"",""0.711""]","[0,1,1,1]",0,62,62,62,1,1,0,,,1,FALSE,0.719,,,,,,,,,,,,,,,,,,,,,,,,,,,,,,
,S,001,2022-04-28_21h13.56.147,classification_task,2021.2.3,MacIntel,76.92307692,5e7bbca73554b20a08fc2f64,626b377229c10585ec392f8a,626b3b86b2fbd86f2a040545,,,,,,,,,,,,,,,,,,,,,,,a,1,"[""0.161"",""0.505"",""0.674"",""0.966""]","[1,0,1,1]",0,63,63,63,1,0,1,,,1,FALSE,1.51,,,,,,,,,,,,,,,,,,,,,,,,,,,,,,
,S,001,2022-04-28_21h13.56.147,classification_task,2021.2.3,MacIntel,76.92307692,5e7bbca73554b20a08fc2f64,626b377229c10585ec392f8a,626b3b86b2fbd86f2a040545,,,,,,,,,,,,,,,,,,,,,,,,,,,,,,,,,,,,,,,0, ,,0,5.117577895,153.418,0,1,1,1,1,2,2,,,,,,,,,,,,,,,,,
,S,001,2022-04-28_21h13.56.147,classification_task,2021.2.3,MacIntel,76.92307692,5e7bbca73554b20a08fc2f64,626b377229c10585ec392f8a,626b3b86b2fbd86f2a040545,,,,,,,,,,,,,,,,,,,,,,,,,,,,,,,,,,,,,,,1,  ,,0,4.029982363,157.286,0,1,1,1,1,2,2,,,,,,,,,,,,,,,,,
,S,001,2022-04-28_21h13.56.147,classification_task,2021.2.3,MacIntel,76.92307692,5e7bbca73554b20a08fc2f64,626b377229c10585ec392f8a,626b3b86b2fbd86f2a040545,,,,,,,,,,,,,,,,,,,,,,,,,,,,,,,,,,,,,,,2,  ,,0,3.0893592,160.653,0,1,1,1,1,2,2,,,,,,,,,,,,,,,,,
,S,001,2022-04-28_21h13.56.147,classification_task,2021.2.3,MacIntel,76.92307692,5e7bbca73554b20a08fc2f64,626b377229c10585ec392f8a,626b3b86b2fbd86f2a040545,,,,,,,,,,,,,,,,,,,,,,,,,,,,,,,,,,,,,,,,,,,,,0,1,1,1,1,,2,,,,,,,,,,,,,,,,,
,S,001,2022-04-28_21h13.56.147,classification_task,2021.2.3,MacIntel,76.92307692,5e7bbca73554b20a08fc2f64,626b377229c10585ec392f8a,626b3b86b2fbd86f2a040545,,,,,,,,,,,,,,,,,,,,,space,5.543,a,1,"[""0.918"",""0.542"",""0.584"",""0.882""]","[0,1,1,1]",0,0,0,0,1,0,0,,,1,FALSE,2.861,,,,,,,,,,,,,,,,,,,,,,,,,,,,,,
,S,001,2022-04-28_21h13.56.147,classification_task,2021.2.3,MacIntel,76.92307692,5e7bbca73554b20a08fc2f64,626b377229c10585ec392f8a,626b3b86b2fbd86f2a040545,,,,,,,,,,,,,,,,,,,,,,,l,0,"[""0.748"",""0.399"",""0.674"",""0.966""]","[0,1,1,1]",0,1,1,1,1,0,1,,,1,FALSE,0.991,,,,,,,,,,,,,,,,,,,,,,,,,,,,,,
,S,001,2022-04-28_21h13.56.147,classification_task,2021.2.3,MacIntel,76.92307692,5e7bbca73554b20a08fc2f64,626b377229c10585ec392f8a,626b3b86b2fbd86f2a040545,,,,,,,,,,,,,,,,,,,,,,,a,0,"[""0.044"",""0.477"",""0.443"",""0.824""]","[1,0,1,1]",0,2,2,2,1,1,1,,,1,FALSE,1.033,,,,,,,,,,,,,,,,,,,,,,,,,,,,,,
,S,001,2022-04-28_21h13.56.147,classification_task,2021.2.3,MacIntel,76.92307692,5e7bbca73554b20a08fc2f64,626b377229c10585ec392f8a,626b3b86b2fbd86f2a040545,,,,,,,,,,,,,,,,,,,,,,,a,1,"[""0.161"",""0.477"",""0.674"",""0.966""]","[1,0,1,1]",0,3,3,3,1,0,1,,,1,FALSE,0.858,,,,,,,,,,,,,,,,,,,,,,,,,,,,,,
,S,001,2022-04-28_21h13.56.147,classification_task,2021.2.3,MacIntel,76.92307692,5e7bbca73554b20a08fc2f64,626b377229c10585ec392f8a,626b3b86b2fbd86f2a040545,,,,,,,,,,,,,,,,,,,,,,,a,0,"[""0.080"",""0.223"",""0.505"",""0.711""]","[1,1,0,1]",0,4,4,4,1,1,0,,,1,FALSE,0.962,,,,,,,,,,,,,,,,,,,,,,,,,,,,,,
,S,001,2022-04-28_21h13.56.147,classification_task,2021.2.3,MacIntel,76.92307692,5e7bbca73554b20a08fc2f64,626b377229c10585ec392f8a,626b3b86b2fbd86f2a040545,,,,,,,,,,,,,,,,,,,,,,,l,0,"[""0.266"",""0.542"",""0.584"",""0.788""]","[1,1,1,0]",0,5,5,5,1,0,0,,,1,FALSE,0.736,,,,,,,,,,,,,,,,,,,,,,,,,,,,,,
,S,001,2022-04-28_21h13.56.147,classification_task,2021.2.3,MacIntel,76.92307692,5e7bbca73554b20a08fc2f64,626b377229c10585ec392f8a,626b3b86b2fbd86f2a040545,,,,,,,,,,,,,,,,,,,,,,,l,1,"[""0.080"",""0.760"",""0.634"",""0.711""]","[1,0,1,1]",0,6,6,6,1,1,0,,,1,FALSE,0.681,,,,,,,,,,,,,,,,,,,,,,,,,,,,,,
,S,001,2022-04-28_21h13.56.147,classification_task,2021.2.3,MacIntel,76.92307692,5e7bbca73554b20a08fc2f64,626b377229c10585ec392f8a,626b3b86b2fbd86f2a040545,,,,,,,,,,,,,,,,,,,,,,,a,1,"[""0.161"",""0.399"",""0.505"",""0.966""]","[1,1,0,1]",0,7,7,7,1,0,1,,,1,FALSE,0.769,,,,,,,,,,,,,,,,,,,,,,,,,,,,,,
,S,001,2022-04-28_21h13.56.147,classification_task,2021.2.3,MacIntel,76.92307692,5e7bbca73554b20a08fc2f64,626b377229c10585ec392f8a,626b3b86b2fbd86f2a040545,,,,,,,,,,,,,,,,,,,,,,,a,0,"[""0.080"",""0.223"",""0.634"",""0.918""]","[1,1,1,0]",0,8,8,8,1,1,0,,,1,FALSE,0.603,,,,,,,,,,,,,,,,,,,,,,,,,,,,,,
,S,001,2022-04-28_21h13.56.147,classification_task,2021.2.3,MacIntel,76.92307692,5e7bbca73554b20a08fc2f64,626b377229c10585ec392f8a,626b3b86b2fbd86f2a040545,,,,,,,,,,,,,,,,,,,,,,,a,0,"[""0.760"",""0.223"",""0.634"",""0.711""]","[0,1,1,1]",0,9,9,9,1,1,0,,,1,FALSE,0.406,,,,,,,,,,,,,,,,,,,,,,,,,,,,,,
,S,001,2022-04-28_21h13.56.147,classification_task,2021.2.3,MacIntel,76.92307692,5e7bbca73554b20a08fc2f64,626b377229c10585ec392f8a,626b3b86b2fbd86f2a040545,,,,,,,,,,,,,,,,,,,,,,,a,0,"[""0.763"",""0.333"",""0.443"",""0.824""]","[0,1,1,1]",0,10,10,10,1,1,1,,,1,FALSE,0.621,,,,,,,,,,,,,,,,,,,,,,,,,,,,,,
,S,001,2022-04-28_21h13.56.147,classification_task,2021.2.3,MacIntel,76.92307692,5e7bbca73554b20a08fc2f64,626b377229c10585ec392f8a,626b3b86b2fbd86f2a040545,,,,,,,,,,,,,,,,,,,,,,,l,0,"[""0.266"",""0.542"",""0.760"",""0.882""]","[1,1,0,1]",0,11,11,11,1,0,0,,,1,FALSE,0.465,,,,,,,,,,,,,,,,,,,,,,,,,,,,,,
,S,001,2022-04-28_21h13.56.147,classification_task,2021.2.3,MacIntel,76.92307692,5e7bbca73554b20a08fc2f64,626b377229c10585ec392f8a,626b3b86b2fbd86f2a040545,,,,,,,,,,,,,,,,,,,,,,,l,1,"[""0.044"",""0.333"",""0.443"",""0.505""]","[1,1,1,0]",0,12,12,12,1,1,1,,,1,FALSE,0.387,,,,,,,,,,,,,,,,,,,,,,,,,,,,,,
,S,001,2022-04-28_21h13.56.147,classification_task,2021.2.3,MacIntel,76.92307692,5e7bbca73554b20a08fc2f64,626b377229c10585ec392f8a,626b3b86b2fbd86f2a040545,,,,,,,,,,,,,,,,,,,,,,,a,1,"[""0.266"",""0.753"",""0.584"",""0.882""]","[1,0,1,1]",0,13,13,13,1,0,0,,,1,FALSE,0.383,,,,,,,,,,,,,,,,,,,,,,,,,,,,,,
,S,001,2022-04-28_21h13.56.147,classification_task,2021.2.3,MacIntel,76.92307692,5e7bbca73554b20a08fc2f64,626b377229c10585ec392f8a,626b3b86b2fbd86f2a040545,,,,,,,,,,,,,,,,,,,,,,,l,0,"[""0.161"",""0.399"",""0.674"",""0.753""]","[1,1,1,0]",0,14,14,14,1,0,1,,,1,FALSE,0.719,,,,,,,,,,,,,,,,,,,,,,,,,,,,,,
,S,001,2022-04-28_21h13.56.147,classification_task,2021.2.3,MacIntel,76.92307692,5e7bbca73554b20a08fc2f64,626b377229c10585ec392f8a,626b3b86b2fbd86f2a040545,,,,,,,,,,,,,,,,,,,,,,,l,1,"[""0.044"",""0.333"",""0.300"",""0.824""]","[1,1,0,1]",0,15,15,15,1,1,1,,,1,FALSE,0.651,,,,,,,,,,,,,,,,,,,,,,,,,,,,,,
,S,001,2022-04-28_21h13.56.147,classification_task,2021.2.3,MacIntel,76.92307692,5e7bbca73554b20a08fc2f64,626b377229c10585ec392f8a,626b3b86b2fbd86f2a040545,,,,,,,,,,,,,,,,,,,,,,,l,0,"[""0.161"",""0.399"",""0.674"",""0.748""]","[1,1,1,0]",0,16,16,16,1,0,1,,,1,FALSE,0.572,,,,,,,,,,,,,,,,,,,,,,,,,,,,,,
,S,001,2022-04-28_21h13.56.147,classification_task,2021.2.3,MacIntel,76.92307692,5e7bbca73554b20a08fc2f64,626b377229c10585ec392f8a,626b3b86b2fbd86f2a040545,,,,,,,,,,,,,,,,,,,,,,,l,0,"[""0.266"",""0.505"",""0.584"",""0.882""]","[1,0,1,1]",0,17,17,17,1,0,0,,,1,FALSE,0.479,,,,,,,,,,,,,,,,,,,,,,,,,,,,,,
,S,001,2022-04-28_21h13.56.147,classification_task,2021.2.3,MacIntel,76.92307692,5e7bbca73554b20a08fc2f64,626b377229c10585ec392f8a,626b3b86b2fbd86f2a040545,,,,,,,,,,,,,,,,,,,,,,,a,1,"[""0.495"",""0.399"",""0.674"",""0.966""]","[0,1,1,1]",0,18,18,18,1,0,1,,,1,FALSE,0.329,,,,,,,,,,,,,,,,,,,,,,,,,,,,,,
,S,001,2022-04-28_21h13.56.147,classification_task,2021.2.3,MacIntel,76.92307692,5e7bbca73554b20a08fc2f64,626b377229c10585ec392f8a,626b3b86b2fbd86f2a040545,,,,,,,,,,,,,,,,,,,,,,,l,1,"[""0.044"",""0.333"",""0.788"",""0.824""]","[1,1,0,1]",0,19,19,19,1,1,1,,,1,FALSE,0.449,,,,,,,,,,,,,,,,,,,,,,,,,,,,,,
,S,001,2022-04-28_21h13.56.147,classification_task,2021.2.3,MacIntel,76.92307692,5e7bbca73554b20a08fc2f64,626b377229c10585ec392f8a,626b3b86b2fbd86f2a040545,,,,,,,,,,,,,,,,,,,,,,,l,0,"[""0.161"",""0.399"",""0.767"",""0.966""]","[1,1,0,1]",0,20,20,20,1,0,1,,,1,FALSE,0.371,,,,,,,,,,,,,,,,,,,,,,,,,,,,,,
,S,001,2022-04-28_21h13.56.147,classification_task,2021.2.3,MacIntel,76.92307692,5e7bbca73554b20a08fc2f64,626b377229c10585ec392f8a,626b3b86b2fbd86f2a040545,,,,,,,,,,,,,,,,,,,,,,,l,1,"[""0.044"",""0.333"",""0.443"",""0.748""]","[1,1,1,0]",0,21,21,21,1,1,1,,,1,FALSE,0.385,,,,,,,,,,,,,,,,,,,,,,,,,,,,,,
,S,001,2022-04-28_21h13.56.147,classification_task,2021.2.3,MacIntel,76.92307692,5e7bbca73554b20a08fc2f64,626b377229c10585ec392f8a,626b3b86b2fbd86f2a040545,,,,,,,,,,,,,,,,,,,,,,,a,1,"[""0.161"",""0.918"",""0.674"",""0.966""]","[1,0,1,1]",0,22,22,22,1,0,1,,,1,FALSE,0.488,,,,,,,,,,,,,,,,,,,,,,,,,,,,,,
,S,001,2022-04-28_21h13.56.147,classification_task,2021.2.3,MacIntel,76.92307692,5e7bbca73554b20a08fc2f64,626b377229c10585ec392f8a,626b3b86b2fbd86f2a040545,,,,,,,,,,,,,,,,,,,,,,,a,0,"[""0.080"",""0.223"",""0.634"",""0.760""]","[1,1,1,0]",0,23,23,23,1,1,0,,,1,FALSE,0.566,,,,,,,,,,,,,,,,,,,,,,,,,,,,,,
,S,001,2022-04-28_21h13.56.147,classification_task,2021.2.3,MacIntel,76.92307692,5e7bbca73554b20a08fc2f64,626b377229c10585ec392f8a,626b3b86b2fbd86f2a040545,,,,,,,,,,,,,,,,,,,,,,,a,0,"[""0.044"",""0.477"",""0.443"",""0.824""]","[1,0,1,1]",0,24,24,24,1,1,1,,,1,FALSE,1.53,,,,,,,,,,,,,,,,,,,,,,,,,,,,,,
,S,001,2022-04-28_21h13.56.147,classification_task,2021.2.3,MacIntel,76.92307692,5e7bbca73554b20a08fc2f64,626b377229c10585ec392f8a,626b3b86b2fbd86f2a040545,,,,,,,,,,,,,,,,,,,,,,,l,0,"[""0.126"",""0.542"",""0.584"",""0.882""]","[0,1,1,1]",0,25,25,25,1,0,0,,,1,FALSE,0.69,,,,,,,,,,,,,,,,,,,,,,,,,,,,,,
,S,001,2022-04-28_21h13.56.147,classification_task,2021.2.3,MacIntel,76.92307692,5e7bbca73554b20a08fc2f64,626b377229c10585ec392f8a,626b3b86b2fbd86f2a040545,,,,,,,,,,,,,,,,,,,,,,,l,1,"[""0.080"",""0.223"",""0.495"",""0.711""]","[1,1,0,1]",0,26,26,26,1,1,0,,,1,FALSE,0.685,,,,,,,,,,,,,,,,,,,,,,,,,,,,,,
,S,001,2022-04-28_21h13.56.147,classification_task,2021.2.3,MacIntel,76.92307692,5e7bbca73554b20a08fc2f64,626b377229c10585ec392f8a,626b3b86b2fbd86f2a040545,,,,,,,,,,,,,,,,,,,,,,,l,1,"[""0.753"",""0.223"",""0.634"",""0.711""]","[0,1,1,1]",0,27,27,27,1,1,0,,,1,FALSE,0.593,,,,,,,,,,,,,,,,,,,,,,,,,,,,,,
,S,001,2022-04-28_21h13.56.147,classification_task,2021.2.3,MacIntel,76.92307692,5e7bbca73554b20a08fc2f64,626b377229c10585ec392f8a,626b3b86b2fbd86f2a040545,,,,,,,,,,,,,,,,,,,,,,,a,1,"[""0.266"",""0.542"",""0.753"",""0.882""]","[1,1,0,1]",0,28,28,28,1,0,0,,,1,FALSE,0.655,,,,,,,,,,,,,,,,,,,,,,,,,,,,,,
,S,001,2022-04-28_21h13.56.147,classification_task,2021.2.3,MacIntel,76.92307692,5e7bbca73554b20a08fc2f64,626b377229c10585ec392f8a,626b3b86b2fbd86f2a040545,,,,,,,,,,,,,,,,,,,,,,,a,0,"[""0.080"",""0.496"",""0.634"",""0.711""]","[1,0,1,1]",0,29,29,29,1,1,0,,,1,FALSE,0.469,,,,,,,,,,,,,,,,,,,,,,,,,,,,,,
,S,001,2022-04-28_21h13.56.147,classification_task,2021.2.3,MacIntel,76.92307692,5e7bbca73554b20a08fc2f64,626b377229c10585ec392f8a,626b3b86b2fbd86f2a040545,,,,,,,,,,,,,,,,,,,,,,,a,0,"[""0.788"",""0.333"",""0.443"",""0.824""]","[0,1,1,1]",0,30,30,30,1,1,1,,,1,FALSE,0.102,,,,,,,,,,,,,,,,,,,,,,,,,,,,,,
,S,001,2022-04-28_21h13.56.147,classification_task,2021.2.3,MacIntel,76.92307692,5e7bbca73554b20a08fc2f64,626b377229c10585ec392f8a,626b3b86b2fbd86f2a040545,,,,,,,,,,,,,,,,,,,,,,,a,1,"[""0.266"",""0.542"",""0.584"",""0.477""]","[1,1,1,0]",0,31,31,31,1,0,0,,,1,FALSE,0.636,,,,,,,,,,,,,,,,,,,,,,,,,,,,,,
,S,001,2022-04-28_21h13.56.147,classification_task,2021.2.3,MacIntel,76.92307692,5e7bbca73554b20a08fc2f64,626b377229c10585ec392f8a,626b3b86b2fbd86f2a040545,,,,,,,,,,,,,,,,,,,,,,,a,1,"[""0.161"",""0.399"",""0.674"",""0.300""]","[1,1,1,0]",0,32,32,32,1,0,1,,,1,FALSE,0.382,,,,,,,,,,,,,,,,,,,,,,,,,,,,,,
,S,001,2022-04-28_21h13.56.147,classification_task,2021.2.3,MacIntel,76.92307692,5e7bbca73554b20a08fc2f64,626b377229c10585ec392f8a,626b3b86b2fbd86f2a040545,,,,,,,,,,,,,,,,,,,,,,,a,1,"[""0.763"",""0.542"",""0.584"",""0.882""]","[0,1,1,1]",0,33,33,33,1,0,0,,,1,FALSE,0.672,,,,,,,,,,,,,,,,,,,,,,,,,,,,,,
,S,001,2022-04-28_21h13.56.147,classification_task,2021.2.3,MacIntel,76.92307692,5e7bbca73554b20a08fc2f64,626b377229c10585ec392f8a,626b3b86b2fbd86f2a040545,,,,,,,,,,,,,,,,,,,,,,,l,0,"[""0.266"",""0.542"",""0.584"",""0.477""]","[1,1,1,0]",0,34,34,34,1,0,0,,,1,FALSE,0.705,,,,,,,,,,,,,,,,,,,,,,,,,,,,,,
,S,001,2022-04-28_21h13.56.147,classification_task,2021.2.3,MacIntel,76.92307692,5e7bbca73554b20a08fc2f64,626b377229c10585ec392f8a,626b3b86b2fbd86f2a040545,,,,,,,,,,,,,,,,,,,,,,,a,0,"[""0.044"",""0.333"",""0.505"",""0.824""]","[1,1,0,1]",0,35,35,35,1,1,1,,,1,FALSE,0.781,,,,,,,,,,,,,,,,,,,,,,,,,,,,,,
,S,001,2022-04-28_21h13.56.147,classification_task,2021.2.3,MacIntel,76.92307692,5e7bbca73554b20a08fc2f64,626b377229c10585ec392f8a,626b3b86b2fbd86f2a040545,,,,,,,,,,,,,,,,,,,,,,,a,0,"[""0.080"",""0.223"",""0.477"",""0.711""]","[1,1,0,1]",0,36,36,36,1,1,0,,,1,FALSE,0.955,,,,,,,,,,,,,,,,,,,,,,,,,,,,,,
,S,001,2022-04-28_21h13.56.147,classification_task,2021.2.3,MacIntel,76.92307692,5e7bbca73554b20a08fc2f64,626b377229c10585ec392f8a,626b3b86b2fbd86f2a040545,,,,,,,,,,,,,,,,,,,,,,,a,1,"[""0.161"",""0.495"",""0.674"",""0.966""]","[1,0,1,1]",0,37,37,37,1,0,1,,,1,FALSE,0.518,,,,,,,,,,,,,,,,,,,,,,,,,,,,,,
,S,001,2022-04-28_21h13.56.147,classification_task,2021.2.3,MacIntel,76.92307692,5e7bbca73554b20a08fc2f64,626b377229c10585ec392f8a,626b3b86b2fbd86f2a040545,,,,,,,,,,,,,,,,,,,,,,,l,1,"[""0.767"",""0.223"",""0.634"",""0.711""]","[0,1,1,1]",0,38,38,38,1,1,0,,,1,FALSE,1.033,,,,,,,,,,,,,,,,,,,,,,,,,,,,,,
,S,001,2022-04-28_21h13.56.147,classification_task,2021.2.3,MacIntel,76.92307692,5e7bbca73554b20a08fc2f64,626b377229c10585ec392f8a,626b3b86b2fbd86f2a040545,,,,,,,,,,,,,,,,,,,,,,,l,1,"[""0.044"",""0.496"",""0.443"",""0.824""]","[1,0,1,1]",0,39,39,39,1,1,1,,,1,FALSE,1.035,,,,,,,,,,,,,,,,,,,,,,,,,,,,,,
,S,001,2022-04-28_21h13.56.147,classification_task,2021.2.3,MacIntel,76.92307692,5e7bbca73554b20a08fc2f64,626b377229c10585ec392f8a,626b3b86b2fbd86f2a040545,,,,,,,,,,,,,,,,,,,,,,,l,0,"[""0.496"",""0.399"",""0.674"",""0.966""]","[0,1,1,1]",0,40,40,40,1,0,1,,,1,FALSE,0.83,,,,,,,,,,,,,,,,,,,,,,,,,,,,,,
,S,001,2022-04-28_21h13.56.147,classification_task,2021.2.3,MacIntel,76.92307692,5e7bbca73554b20a08fc2f64,626b377229c10585ec392f8a,626b3b86b2fbd86f2a040545,,,,,,,,,,,,,,,,,,,,,,,l,0,"[""0.266"",""0.542"",""0.788"",""0.882""]","[1,1,0,1]",0,41,41,41,1,0,0,,,1,FALSE,1.02,,,,,,,,,,,,,,,,,,,,,,,,,,,,,,
,S,001,2022-04-28_21h13.56.147,classification_task,2021.2.3,MacIntel,76.92307692,5e7bbca73554b20a08fc2f64,626b377229c10585ec392f8a,626b3b86b2fbd86f2a040545,,,,,,,,,,,,,,,,,,,,,,,a,0,"[""0.044"",""0.333"",""0.443"",""0.495""]","[1,1,1,0]",0,42,42,42,1,1,1,,,1,FALSE,0.332,,,,,,,,,,,,,,,,,,,,,,,,,,,,,,
,S,001,2022-04-28_21h13.56.147,classification_task,2021.2.3,MacIntel,76.92307692,5e7bbca73554b20a08fc2f64,626b377229c10585ec392f8a,626b3b86b2fbd86f2a040545,,,,,,,,,,,,,,,,,,,,,,,a,0,"[""0.080"",""0.300"",""0.634"",""0.711""]","[1,0,1,1]",0,43,43,43,1,1,0,,,1,FALSE,0.357,,,,,,,,,,,,,,,,,,,,,,,,,,,,,,
,S,001,2022-04-28_21h13.56.147,classification_task,2021.2.3,MacIntel,76.92307692,5e7bbca73554b20a08fc2f64,626b377229c10585ec392f8a,626b3b86b2fbd86f2a040545,,,,,,,,,,,,,,,,,,,,,,,a,0,"[""0.300"",""0.333"",""0.443"",""0.824""]","[0,1,1,1]",0,44,44,44,1,1,1,,,1,FALSE,0.317,,,,,,,,,,,,,,,,,,,,,,,,,,,,,,
,S,001,2022-04-28_21h13.56.147,classification_task,2021.2.3,MacIntel,76.92307692,5e7bbca73554b20a08fc2f64,626b377229c10585ec392f8a,626b3b86b2fbd86f2a040545,,,,,,,,,,,,,,,,,,,,,,,a,0,"[""0.080"",""0.223"",""0.634"",""0.477""]","[1,1,1,0]",0,45,45,45,1,1,0,,,1,FALSE,0.472,,,,,,,,,,,,,,,,,,,,,,,,,,,,,,
,S,001,2022-04-28_21h13.56.147,classification_task,2021.2.3,MacIntel,76.92307692,5e7bbca73554b20a08fc2f64,626b377229c10585ec392f8a,626b3b86b2fbd86f2a040545,,,,,,,,,,,,,,,,,,,,,,,l,0,"[""0.161"",""0.399"",""0.477"",""0.966""]","[1,1,0,1]",0,46,46,46,1,0,1,,,1,FALSE,0.549,,,,,,,,,,,,,,,,,,,,,,,,,,,,,,
,S,001,2022-04-28_21h13.56.147,classification_task,2021.2.3,MacIntel,76.92307692,5e7bbca73554b20a08fc2f64,626b377229c10585ec392f8a,626b3b86b2fbd86f2a040545,,,,,,,,,,,,,,,,,,,,,,,a,1,"[""0.266"",""0.753"",""0.584"",""0.882""]","[1,0,1,1]",0,47,47,47,1,0,0,,,1,FALSE,0.482,,,,,,,,,,,,,,,,,,,,,,,,,,,,,,
,S,001,2022-04-28_21h13.56.147,classification_task,2021.2.3,MacIntel,76.92307692,5e7bbca73554b20a08fc2f64,626b377229c10585ec392f8a,626b3b86b2fbd86f2a040545,,,,,,,,,,,,,,,,,,,,,,,a,0,"[""0.080"",""0.223"",""0.634"",""0.495""]","[1,1,1,0]",0,48,48,48,1,1,0,,,1,FALSE,0.568,,,,,,,,,,,,,,,,,,,,,,,,,,,,,,
,S,001,2022-04-28_21h13.56.147,classification_task,2021.2.3,MacIntel,76.92307692,5e7bbca73554b20a08fc2f64,626b377229c10585ec392f8a,626b3b86b2fbd86f2a040545,,,,,,,,,,,,,,,,,,,,,,,a,1,"[""0.161"",""0.399"",""0.300"",""0.966""]","[1,1,0,1]",0,49,49,49,1,0,1,,,1,FALSE,0.581,,,,,,,,,,,,,,,,,,,,,,,,,,,,,,
,S,001,2022-04-28_21h13.56.147,classification_task,2021.2.3,MacIntel,76.92307692,5e7bbca73554b20a08fc2f64,626b377229c10585ec392f8a,626b3b86b2fbd86f2a040545,,,,,,,,,,,,,,,,,,,,,,,a,0,"[""0.080"",""0.760"",""0.634"",""0.711""]","[1,0,1,1]",0,50,50,50,1,1,0,,,1,FALSE,0.564,,,,,,,,,,,,,,,,,,,,,,,,,,,,,,
,S,001,2022-04-28_21h13.56.147,classification_task,2021.2.3,MacIntel,76.92307692,5e7bbca73554b20a08fc2f64,626b377229c10585ec392f8a,626b3b86b2fbd86f2a040545,,,,,,,,,,,,,,,,,,,,,,,a,0,"[""0.080"",""0.223"",""0.918"",""0.711""]","[1,1,0,1]",0,51,51,51,1,1,0,,,1,FALSE,0.437,,,,,,,,,,,,,,,,,,,,,,,,,,,,,,
,S,001,2022-04-28_21h13.56.147,classification_task,2021.2.3,MacIntel,76.92307692,5e7bbca73554b20a08fc2f64,626b377229c10585ec392f8a,626b3b86b2fbd86f2a040545,,,,,,,,,,,,,,,,,,,,,,,l,0,"[""0.266"",""0.542"",""0.584"",""0.477""]","[1,1,1,0]",0,52,52,52,1,0,0,,,1,FALSE,0.306,,,,,,,,,,,,,,,,,,,,,,,,,,,,,,
,S,001,2022-04-28_21h13.56.147,classification_task,2021.2.3,MacIntel,76.92307692,5e7bbca73554b20a08fc2f64,626b377229c10585ec392f8a,626b3b86b2fbd86f2a040545,,,,,,,,,,,,,,,,,,,,,,,l,1,"[""0.044"",""0.333"",""0.443"",""0.748""]","[1,1,1,0]",0,53,53,53,1,1,1,,,1,FALSE,0.253,,,,,,,,,,,,,,,,,,,,,,,,,,,,,,
,S,001,2022-04-28_21h13.56.147,classification_task,2021.2.3,MacIntel,76.92307692,5e7bbca73554b20a08fc2f64,626b377229c10585ec392f8a,626b3b86b2fbd86f2a040545,,,,,,,,,,,,,,,,,,,,,,,a,1,"[""0.753"",""0.542"",""0.584"",""0.882""]","[0,1,1,1]",0,54,54,54,1,0,0,,,1,FALSE,0.23,,,,,,,,,,,,,,,,,,,,,,,,,,,,,,
,S,001,2022-04-28_21h13.56.147,classification_task,2021.2.3,MacIntel,76.92307692,5e7bbca73554b20a08fc2f64,626b377229c10585ec392f8a,626b3b86b2fbd86f2a040545,,,,,,,,,,,,,,,,,,,,,,,a,0,"[""0.044"",""0.333"",""0.760"",""0.824""]","[1,1,0,1]",0,55,55,55,1,1,1,,,1,FALSE,0.831,,,,,,,,,,,,,,,,,,,,,,,,,,,,,,
,S,001,2022-04-28_21h13.56.147,classification_task,2021.2.3,MacIntel,76.92307692,5e7bbca73554b20a08fc2f64,626b377229c10585ec392f8a,626b3b86b2fbd86f2a040545,,,,,,,,,,,,,,,,,,,,,,,l,0,"[""0.266"",""0.542"",""0.505"",""0.882""]","[1,1,0,1]",0,56,56,56,1,0,0,,,1,FALSE,0.404,,,,,,,,,,,,,,,,,,,,,,,,,,,,,,
,S,001,2022-04-28_21h13.56.147,classification_task,2021.2.3,MacIntel,76.92307692,5e7bbca73554b20a08fc2f64,626b377229c10585ec392f8a,626b3b86b2fbd86f2a040545,,,,,,,,,,,,,,,,,,,,,,,a,0,"[""0.477"",""0.333"",""0.443"",""0.824""]","[0,1,1,1]",0,57,57,57,1,1,1,,,1,FALSE,0.587,,,,,,,,,,,,,,,,,,,,,,,,,,,,,,
,S,001,2022-04-28_21h13.56.147,classification_task,2021.2.3,MacIntel,76.92307692,5e7bbca73554b20a08fc2f64,626b377229c10585ec392f8a,626b3b86b2fbd86f2a040545,,,,,,,,,,,,,,,,,,,,,,,a,1,"[""0.266"",""0.760"",""0.584"",""0.882""]","[1,0,1,1]",0,58,58,58,1,0,0,,,1,FALSE,0.906,,,,,,,,,,,,,,,,,,,,,,,,,,,,,,
,S,001,2022-04-28_21h13.56.147,classification_task,2021.2.3,MacIntel,76.92307692,5e7bbca73554b20a08fc2f64,626b377229c10585ec392f8a,626b3b86b2fbd86f2a040545,,,,,,,,,,,,,,,,,,,,,,,a,0,"[""0.918"",""0.223"",""0.634"",""0.711""]","[0,1,1,1]",0,59,59,59,1,1,0,,,1,FALSE,0.456,,,,,,,,,,,,,,,,,,,,,,,,,,,,,,
,S,001,2022-04-28_21h13.56.147,classification_task,2021.2.3,MacIntel,76.92307692,5e7bbca73554b20a08fc2f64,626b377229c10585ec392f8a,626b3b86b2fbd86f2a040545,,,,,,,,,,,,,,,,,,,,,,,a,1,"[""0.760"",""0.399"",""0.674"",""0.966""]","[0,1,1,1]",0,60,60,60,1,0,1,,,1,FALSE,0.869,,,,,,,,,,,,,,,,,,,,,,,,,,,,,,
,S,001,2022-04-28_21h13.56.147,classification_task,2021.2.3,MacIntel,76.92307692,5e7bbca73554b20a08fc2f64,626b377229c10585ec392f8a,626b3b86b2fbd86f2a040545,,,,,,,,,,,,,,,,,,,,,,,a,1,"[""0.161"",""0.399"",""0.674"",""0.477""]","[1,1,1,0]",0,61,61,61,1,0,1,,,1,FALSE,0.5,,,,,,,,,,,,,,,,,,,,,,,,,,,,,,
,S,001,2022-04-28_21h13.56.147,classification_task,2021.2.3,MacIntel,76.92307692,5e7bbca73554b20a08fc2f64,626b377229c10585ec392f8a,626b3b86b2fbd86f2a040545,,,,,,,,,,,,,,,,,,,,,,,a,1,"[""0.161"",""0.496"",""0.674"",""0.966""]","[1,0,1,1]",0,62,62,62,1,0,1,,,1,FALSE,0.825,,,,,,,,,,,,,,,,,,,,,,,,,,,,,,
,S,001,2022-04-28_21h13.56.147,classification_task,2021.2.3,MacIntel,76.92307692,5e7bbca73554b20a08fc2f64,626b377229c10585ec392f8a,626b3b86b2fbd86f2a040545,,,,,,,,,,,,,,,,,,,,,,,a,0,"[""0.044"",""0.505"",""0.443"",""0.824""]","[1,0,1,1]",0,63,63,63,1,1,1,,,1,FALSE,0.803,,,,,,,,,,,,,,,,,,,,,,,,,,,,,,
,S,001,2022-04-28_21h13.56.147,classification_task,2021.2.3,MacIntel,76.92307692,5e7bbca73554b20a08fc2f64,626b377229c10585ec392f8a,626b3b86b2fbd86f2a040545,,,,,,,,,,,,,,,,,,,,,,,,,,,,,,,,,,,,,,,0, ,,0,4.470899471,119.614,0,2,2,2,1,2,3,,,,,,,,,,,,,,,,,
,S,001,2022-04-28_21h13.56.147,classification_task,2021.2.3,MacIntel,76.92307692,5e7bbca73554b20a08fc2f64,626b377229c10585ec392f8a,626b3b86b2fbd86f2a040545,,,,,,,,,,,,,,,,,,,,,,,,,,,,,,,,,,,,,,,1,  ,,0,3.559670782,121,0,2,2,2,1,2,3,,,,,,,,,,,,,,,,,
,S,001,2022-04-28_21h13.56.147,classification_task,2021.2.3,MacIntel,76.92307692,5e7bbca73554b20a08fc2f64,626b377229c10585ec392f8a,626b3b86b2fbd86f2a040545,,,,,,,,,,,,,,,,,,,,,,,,,,,,,,,,,,,,,,,2,  ,,0,2.677836567,121.929,0,2,2,2,1,2,3,,,,,,,,,,,,,,,,,
,S,001,2022-04-28_21h13.56.147,classification_task,2021.2.3,MacIntel,76.92307692,5e7bbca73554b20a08fc2f64,626b377229c10585ec392f8a,626b3b86b2fbd86f2a040545,,,,,,,,,,,,,,,,,,,,,,,,,,,,,,,,,,,,,,,,,,,,,0,2,2,2,1,,3,,,,,,,,,,,,,,,,,
,S,001,2022-04-28_21h13.56.147,classification_task,2021.2.3,MacIntel,76.92307692,5e7bbca73554b20a08fc2f64,626b377229c10585ec392f8a,626b3b86b2fbd86f2a040545,,,,,,,,,,,,,,,,,,,,,,,,,,,,,,,,,,,,,,,,,,,,,,,,,,,,,I believe the aid is a competent performer,,0.7,0,4,778.499,0,0,0,0,1,0,,,,
,S,001,2022-04-28_21h13.56.147,classification_task,2021.2.3,MacIntel,76.92307692,5e7bbca73554b20a08fc2f64,626b377229c10585ec392f8a,626b3b86b2fbd86f2a040545,,,,,,,,,,,,,,,,,,,,,,,,,,,,,,,,,,,,,,,,,,,,,,,,,,,,,I trust the aid,,0.7,0,3,781.219,0,0,0,0,1,0,,,,
,S,001,2022-04-28_21h13.56.147,classification_task,2021.2.3,MacIntel,76.92307692,5e7bbca73554b20a08fc2f64,626b377229c10585ec392f8a,626b3b86b2fbd86f2a040545,,,,,,,,,,,,,,,,,,,,,,,,,,,,,,,,,,,,,,,,,,,,,,,,,,,,,I have confidence in the advice given by the aid,,0.7,0,4,784.273,0,0,0,0,1,0,,,,
,S,001,2022-04-28_21h13.56.147,classification_task,2021.2.3,MacIntel,76.92307692,5e7bbca73554b20a08fc2f64,626b377229c10585ec392f8a,626b3b86b2fbd86f2a040545,,,,,,,,,,,,,,,,,,,,,,,,,,,,,,,,,,,,,,,,,,,,,,,,,,,,,I can depend on the aid,,0.7,0,4,787.939,0,0,0,0,1,0,,,,
,S,001,2022-04-28_21h13.56.147,classification_task,2021.2.3,MacIntel,76.92307692,5e7bbca73554b20a08fc2f64,626b377229c10585ec392f8a,626b3b86b2fbd86f2a040545,,,,,,,,,,,,,,,,,,,,,,,,,,,,,,,,,,,,,,,,,,,,,,,,,,,,,I can rely on the aid to behave in consistent ways,,0.7,0,4,789.638,0,0,0,0,1,0,,,,
,S,001,2022-04-28_21h13.56.147,classification_task,2021.2.3,MacIntel,76.92307692,5e7bbca73554b20a08fc2f64,626b377229c10585ec392f8a,626b3b86b2fbd86f2a040545,,,,,,,,,,,,,,,,,,,,,,,,,,,,,,,,,,,,,,,,,,,,,,,,,,,,,I can rely on the aid to do its best every time I take its advice,,0.7,0,4,794.088,0,0,0,0,1,0,,,,
,S,001,2022-04-28_21h13.56.147,classification_task,2021.2.3,MacIntel,76.92307692,5e7bbca73554b20a08fc2f64,626b377229c10585ec392f8a,626b3b86b2fbd86f2a040545,,,,,,,,,,,,,,,,,,,,,,,,,,,,,,,,,,,,,,,,,,,,,,,,,,,,,"On trials you completed with assistance from the aid, how frequently did you think the aid was correct?",,0.7,0,100%,,0,0,0,0,1,0,,,,
,S,001,2022-04-28_21h13.56.147,classification_task,2021.2.3,MacIntel,76.92307692,5e7bbca73554b20a08fc2f64,626b377229c10585ec392f8a,626b3b86b2fbd86f2a040545,,,,,,,,,,,,,,,,,,,,,,,,,,,,,,,,,,,,,,,,,,,,,,,,,,,,,"On trials you completed without the aid, how frequently did you think you were correct?",,0.7,0,50%,,0,0,0,0,1,0,,,,
,S,001,2022-04-28_21h13.56.147,classification_task,2021.2.3,MacIntel,76.92307692,5e7bbca73554b20a08fc2f64,626b377229c10585ec392f8a,626b3b86b2fbd86f2a040545,,,,,,,,,,,,,,,,,,,,,,,,,,,,,,,,,,,,,,,,,,,,,,,,,,,,,,,,,,,0,0,0,0,1,,,,,
,S,001,2022-04-28_21h13.56.147,classification_task,2021.2.3,MacIntel,76.92307692,5e7bbca73554b20a08fc2f64,626b377229c10585ec392f8a,626b3b86b2fbd86f2a040545,,,,,,,,,,,,,,,,,,,,,,,,,,,,,,,,,,,,,,,,,,,,,,,,,,,,,,,,,,,,,,,,,space,8.451,831.381,
,S,001,2022-04-28_21h13.56.147,classification_task,2021.2.3,MacIntel,76.92307692,5e7bbca73554b20a08fc2f64,626b377229c10585ec392f8a,626b3b86b2fbd86f2a040545,,,,,,,,,,,,,,,,,,,,,,,,,,,,,,,,,,,,,,,,,,,,,,,,,,,,,,,,,,,,,,,,,,,,"Mozilla/5.0 (Macintosh; Intel Mac OS X 10_15_7) AppleWebKit/605.1.15 (KHTML, like Gecko) Version/14.1.2 Safari/605.1.15"
