usingWebGL,participant,session,date,expName,psychopyVersion,OS,frameRate,PROLIFIC_PID,STUDY_ID,SESSION_ID,signatures_friend,signatures_foe,band_ranges_top,band_ranges_bottom,formitemText,formtype,formundefined,formitemWidth,formindex,formresponse,formrt,key_resp_2.keys,key_resp_2.rt,tute_resp.keys,tute_resp.rt,tutorial.thisRepN,tutorial.thisTrialN,tutorial.thisN,tutorial.thisIndex,tutorial.ran,key_resp_4.keys,key_resp_4.rt,key_resp.keys,key_resp.corr,lines_presented,is_signal_presented,trials.thisRepN,trials.thisTrialN,trials.thisN,trials.thisIndex,trials.ran,vessel,active_band,lines,is_signal,supported_pos,catch_trial,key_resp.rt,debrief_formindex,debrief_formitemText,debrief_formtype,debrief_formitemWidth,debrief_formresponse,debrief_formrt,phases.thisRepN,phases.thisTrialN,phases.thisN,phases.thisIndex,phases.ran,phases.order,phase,key_resp_3.keys,trustitemText,trusttype,trustitemWidth,trustindex,trustresponse,trustrt,support_status.thisRepN,support_status.thisTrialN,support_status.thisN,support_status.thisIndex,support_status.ran,support_status.order,key_resp_5.keys,key_resp_5.rt,globalClockTime,userAgent
TRUE,SAB,001,2022-04-28_19h09.30.011,classification_task,2021.2.3,Win32,48.02843283,61073a8e6fae58a66dd57b39,626b377229c10585ec392f8a,626b3a9c2edf5519eafbdf28,,,,,,,,,,,,,,,,,,,,,,,,,,,,,,,,,,,,,,,,,,,,,,,,,,,,,,,,,,,,,,,,,,,,
,SAB,001,2022-04-28_19h09.30.011,classification_task,2021.2.3,Win32,48.02843283,61073a8e6fae58a66dd57b39,626b377229c10585ec392f8a,626b3a9c2edf5519eafbdf28,"[[""0.312"",""0.417"",""0.846"",""0.919""],[""0.232"",""0.371"",""0.880"",""0.972""]]","[[""0.044"",""0.097"",""0.650"",""0.729""],[""0.146"",""0.273"",""0.455"",""0.776""]]","[1,10]","[100,1000]",Video game experience,,,0.7,0,,,,,,,,,,,,,,,,,,,,,,,,,,,,,,,,,,,,,,,,,,,,,,,,,,,,,,,,,,,
,SAB,001,2022-04-28_19h09.30.011,classification_task,2021.2.3,Win32,48.02843283,61073a8e6fae58a66dd57b39,626b377229c10585ec392f8a,626b3a9c2edf5519eafbdf28,,,,,Approximately how many hours did you spend playing video games in the last week?,,,0.7,0,6,,,,,,,,,,,,,,,,,,,,,,,,,,,,,,,,,,,,,,,,,,,,,,,,,,,,,,,,,,
,SAB,001,2022-04-28_19h09.30.011,classification_task,2021.2.3,Win32,48.02843283,61073a8e6fae58a66dd57b39,626b377229c10585ec392f8a,626b3a9c2edf5519eafbdf28,,,,,"Which game did you play the most this year? (Enter ""None"" if you didn't play any)",,,0.7,0,"Genshin Impact, Animal Crossing, The Sims 4",,,,,,,,,,,,,,,,,,,,,,,,,,,,,,,,,,,,,,,,,,,,,,,,,,,,,,,,,,
,SAB,001,2022-04-28_19h09.30.011,classification_task,2021.2.3,Win32,48.02843283,61073a8e6fae58a66dd57b39,626b377229c10585ec392f8a,626b3a9c2edf5519eafbdf28,,,,,Visual perception,,,0.7,0,,,,,,,,,,,,,,,,,,,,,,,,,,,,,,,,,,,,,,,,,,,,,,,,,,,,,,,,,,,
,SAB,001,2022-04-28_19h09.30.011,classification_task,2021.2.3,Win32,48.02843283,61073a8e6fae58a66dd57b39,626b377229c10585ec392f8a,626b3a9c2edf5519eafbdf28,,,,,Do you have any form of color blindness?,,,0.7,0,No,23.8344,,,,,,,,,,,,,,,,,,,,,,,,,,,,,,,,,,,,,,,,,,,,,,,,,,,,,,,,,
,SAB,001,2022-04-28_19h09.30.011,classification_task,2021.2.3,Win32,48.02843283,61073a8e6fae58a66dd57b39,626b377229c10585ec392f8a,626b3a9c2edf5519eafbdf28,,,,,Do you use software to change the colour temperature of your screen (e.g. f.lux)?,,,0.7,0,No,31.1453,,,,,,,,,,,,,,,,,,,,,,,,,,,,,,,,,,,,,,,,,,,,,,,,,,,,,,,,,
,SAB,001,2022-04-28_19h09.30.011,classification_task,2021.2.3,Win32,48.02843283,61073a8e6fae58a66dd57b39,626b377229c10585ec392f8a,626b3a9c2edf5519eafbdf28,,,,,,,,,,,,space,24.3177,space,5.8741,0,0,0,0,1,,,,,,,,,,,,,,,,,,,,,,,,,,,,,,,,,,,,,,,,,,,,,,,,
,SAB,001,2022-04-28_19h09.30.011,classification_task,2021.2.3,Win32,48.02843283,61073a8e6fae58a66dd57b39,626b377229c10585ec392f8a,626b3a9c2edf5519eafbdf28,,,,,,,,,,,,,,space,7.5401,1,0,1,0,1,,,,,,,,,,,,,,,,,,,,,,,,,,,,,,,,,,,,,,,,,,,,,,,,
,SAB,001,2022-04-28_19h09.30.011,classification_task,2021.2.3,Win32,48.02843283,61073a8e6fae58a66dd57b39,626b377229c10585ec392f8a,626b3a9c2edf5519eafbdf28,,,,,,,,,,,,,,space,12.5633,2,0,2,0,1,,,,,,,,,,,,,,,,,,,,,,,,,,,,,,,,,,,,,,,,,,,,,,,,
,SAB,001,2022-04-28_19h09.30.011,classification_task,2021.2.3,Win32,48.02843283,61073a8e6fae58a66dd57b39,626b377229c10585ec392f8a,626b3a9c2edf5519eafbdf28,,,,,,,,,,,,,,space,11.5204,3,0,3,0,1,,,,,,,,,,,,,,,,,,,,,,,,,,,,,,,,,,,,,,,,,,,,,,,,
,SAB,001,2022-04-28_19h09.30.011,classification_task,2021.2.3,Win32,48.02843283,61073a8e6fae58a66dd57b39,626b377229c10585ec392f8a,626b3a9c2edf5519eafbdf28,,,,,,,,,,,,,,space,9.9942,4,0,4,0,1,,,,,,,,,,,,,,,,,,,,,,,,,,,,,,,,,,,,,,,,,,,,,,,,
,SAB,001,2022-04-28_19h09.30.011,classification_task,2021.2.3,Win32,48.02843283,61073a8e6fae58a66dd57b39,626b377229c10585ec392f8a,626b3a9c2edf5519eafbdf28,,,,,,,,,,,,,,,,,,,,,space,30.0109,,0,"[""0.606"",""0.371"",""0.880"",""0.972""]","[0,1,1,1]",0,0,0,0,1,0,1,,,0,FALSE,,,,,,,,,,,,,,,,,,,,,,,,,,,,,,,
,SAB,001,2022-04-28_19h09.30.011,classification_task,2021.2.3,Win32,48.02843283,61073a8e6fae58a66dd57b39,626b377229c10585ec392f8a,626b3a9c2edf5519eafbdf28,,,,,,,,,,,,,,,,,,,,,,,l,0,"[""0.312"",""0.417"",""0.616"",""0.919""]","[1,1,0,1]",0,1,1,1,1,0,0,,,0,FALSE,5.0795,,,,,,,,,,,,,,,,,,,,,,,,,,,,,,
,SAB,001,2022-04-28_19h09.30.011,classification_task,2021.2.3,Win32,48.02843283,61073a8e6fae58a66dd57b39,626b377229c10585ec392f8a,626b3a9c2edf5519eafbdf28,,,,,,,,,,,,,,,,,,,,,,,a,1,"[""0.529"",""0.417"",""0.846"",""0.919""]","[0,1,1,1]",0,2,2,2,1,0,0,,,0,FALSE,8.7642,,,,,,,,,,,,,,,,,,,,,,,,,,,,,,
,SAB,001,2022-04-28_19h09.30.011,classification_task,2021.2.3,Win32,48.02843283,61073a8e6fae58a66dd57b39,626b377229c10585ec392f8a,626b3a9c2edf5519eafbdf28,,,,,,,,,,,,,,,,,,,,,,,a,1,"[""0.312"",""0.528"",""0.846"",""0.919""]","[1,0,1,1]",0,3,3,3,1,0,0,,,0,FALSE,6.5214,,,,,,,,,,,,,,,,,,,,,,,,,,,,,,
,SAB,001,2022-04-28_19h09.30.011,classification_task,2021.2.3,Win32,48.02843283,61073a8e6fae58a66dd57b39,626b377229c10585ec392f8a,626b3a9c2edf5519eafbdf28,,,,,,,,,,,,,,,,,,,,,,,l,1,"[""0.044"",""0.533"",""0.650"",""0.729""]","[1,0,1,1]",0,4,4,4,1,1,0,,,0,FALSE,6.619,,,,,,,,,,,,,,,,,,,,,,,,,,,,,,
,SAB,001,2022-04-28_19h09.30.011,classification_task,2021.2.3,Win32,48.02843283,61073a8e6fae58a66dd57b39,626b377229c10585ec392f8a,626b3a9c2edf5519eafbdf28,,,,,,,,,,,,,,,,,,,,,,,l,1,"[""0.044"",""0.097"",""0.685"",""0.729""]","[1,1,0,1]",0,5,5,5,1,1,0,,,0,FALSE,5.2389,,,,,,,,,,,,,,,,,,,,,,,,,,,,,,
,SAB,001,2022-04-28_19h09.30.011,classification_task,2021.2.3,Win32,48.02843283,61073a8e6fae58a66dd57b39,626b377229c10585ec392f8a,626b3a9c2edf5519eafbdf28,,,,,,,,,,,,,,,,,,,,,,,l,1,"[""0.529"",""0.273"",""0.455"",""0.776""]","[0,1,1,1]",0,6,6,6,1,1,1,,,0,FALSE,7.3811,,,,,,,,,,,,,,,,,,,,,,,,,,,,,,
,SAB,001,2022-04-28_19h09.30.011,classification_task,2021.2.3,Win32,48.02843283,61073a8e6fae58a66dd57b39,626b377229c10585ec392f8a,626b3a9c2edf5519eafbdf28,,,,,,,,,,,,,,,,,,,,,,,l,1,"[""0.044"",""0.097"",""0.650"",""0.598""]","[1,1,1,0]",0,7,7,7,1,1,0,,,0,FALSE,6.311,,,,,,,,,,,,,,,,,,,,,,,,,,,,,,
,SAB,001,2022-04-28_19h09.30.011,classification_task,2021.2.3,Win32,48.02843283,61073a8e6fae58a66dd57b39,626b377229c10585ec392f8a,626b3a9c2edf5519eafbdf28,,,,,,,,,,,,,,,,,,,,,,,a,1,"[""0.232"",""0.371"",""0.616"",""0.972""]","[1,1,0,1]",0,8,8,8,1,0,1,,,0,FALSE,6.1753,,,,,,,,,,,,,,,,,,,,,,,,,,,,,,
,SAB,001,2022-04-28_19h09.30.011,classification_task,2021.2.3,Win32,48.02843283,61073a8e6fae58a66dd57b39,626b377229c10585ec392f8a,626b3a9c2edf5519eafbdf28,,,,,,,,,,,,,,,,,,,,,,,l,1,"[""0.146"",""0.273"",""0.616"",""0.776""]","[1,1,0,1]",0,9,9,9,1,1,1,,,0,FALSE,5.0711,,,,,,,,,,,,,,,,,,,,,,,,,,,,,,
,SAB,001,2022-04-28_19h09.30.011,classification_task,2021.2.3,Win32,48.02843283,61073a8e6fae58a66dd57b39,626b377229c10585ec392f8a,626b3a9c2edf5519eafbdf28,,,,,,,,,,,,,,,,,,,,,,,a,1,"[""0.312"",""0.417"",""0.846"",""0.563""]","[1,1,1,0]",0,10,10,10,1,0,0,,,0,FALSE,5.635,,,,,,,,,,,,,,,,,,,,,,,,,,,,,,
,SAB,001,2022-04-28_19h09.30.011,classification_task,2021.2.3,Win32,48.02843283,61073a8e6fae58a66dd57b39,626b377229c10585ec392f8a,626b3a9c2edf5519eafbdf28,,,,,,,,,,,,,,,,,,,,,,,l,1,"[""0.685"",""0.097"",""0.650"",""0.729""]","[0,1,1,1]",0,11,11,11,1,1,0,,,0,FALSE,2.4316,,,,,,,,,,,,,,,,,,,,,,,,,,,,,,
,SAB,001,2022-04-28_19h09.30.011,classification_task,2021.2.3,Win32,48.02843283,61073a8e6fae58a66dd57b39,626b377229c10585ec392f8a,626b3a9c2edf5519eafbdf28,,,,,,,,,,,,,,,,,,,,,,,l,1,"[""0.146"",""0.686"",""0.455"",""0.776""]","[1,0,1,1]",0,12,12,12,1,1,1,,,0,FALSE,4.2059,,,,,,,,,,,,,,,,,,,,,,,,,,,,,,
,SAB,001,2022-04-28_19h09.30.011,classification_task,2021.2.3,Win32,48.02843283,61073a8e6fae58a66dd57b39,626b377229c10585ec392f8a,626b3a9c2edf5519eafbdf28,,,,,,,,,,,,,,,,,,,,,,,a,1,"[""0.232"",""0.511"",""0.880"",""0.972""]","[1,0,1,1]",0,13,13,13,1,0,1,,,0,FALSE,4.4986,,,,,,,,,,,,,,,,,,,,,,,,,,,,,,
,SAB,001,2022-04-28_19h09.30.011,classification_task,2021.2.3,Win32,48.02843283,61073a8e6fae58a66dd57b39,626b377229c10585ec392f8a,626b3a9c2edf5519eafbdf28,,,,,,,,,,,,,,,,,,,,,,,a,0,"[""0.146"",""0.273"",""0.455"",""0.572""]","[1,1,1,0]",0,14,14,14,1,1,1,,,0,FALSE,4.3361,,,,,,,,,,,,,,,,,,,,,,,,,,,,,,
,SAB,001,2022-04-28_19h09.30.011,classification_task,2021.2.3,Win32,48.02843283,61073a8e6fae58a66dd57b39,626b377229c10585ec392f8a,626b3a9c2edf5519eafbdf28,,,,,,,,,,,,,,,,,,,,,,,a,1,"[""0.232"",""0.371"",""0.880"",""0.529""]","[1,1,1,0]",0,15,15,15,1,0,1,,,0,FALSE,3.535,,,,,,,,,,,,,,,,,,,,,,,,,,,,,,
,SAB,001,2022-04-28_19h09.30.011,classification_task,2021.2.3,Win32,48.02843283,61073a8e6fae58a66dd57b39,626b377229c10585ec392f8a,626b3a9c2edf5519eafbdf28,,,,,,,,,,,,,,,,,,,,,,,a,1,"[""0.232"",""0.371"",""0.529"",""0.972""]","[1,1,0,1]",0,16,16,16,1,0,1,,,0,FALSE,3.4519,,,,,,,,,,,,,,,,,,,,,,,,,,,,,,
,SAB,001,2022-04-28_19h09.30.011,classification_task,2021.2.3,Win32,48.02843283,61073a8e6fae58a66dd57b39,626b377229c10585ec392f8a,626b3a9c2edf5519eafbdf28,,,,,,,,,,,,,,,,,,,,,,,l,1,"[""0.598"",""0.273"",""0.455"",""0.776""]","[0,1,1,1]",0,17,17,17,1,1,1,,,0,FALSE,5.008,,,,,,,,,,,,,,,,,,,,,,,,,,,,,,
,SAB,001,2022-04-28_19h09.30.011,classification_task,2021.2.3,Win32,48.02843283,61073a8e6fae58a66dd57b39,626b377229c10585ec392f8a,626b3a9c2edf5519eafbdf28,,,,,,,,,,,,,,,,,,,,,,,l,1,"[""0.146"",""0.569"",""0.455"",""0.776""]","[1,0,1,1]",0,18,18,18,1,1,1,,,0,FALSE,3.5121,,,,,,,,,,,,,,,,,,,,,,,,,,,,,,
,SAB,001,2022-04-28_19h09.30.011,classification_task,2021.2.3,Win32,48.02843283,61073a8e6fae58a66dd57b39,626b377229c10585ec392f8a,626b3a9c2edf5519eafbdf28,,,,,,,,,,,,,,,,,,,,,,,a,1,"[""0.232"",""0.686"",""0.880"",""0.972""]","[1,0,1,1]",0,19,19,19,1,0,1,,,0,FALSE,3.5769,,,,,,,,,,,,,,,,,,,,,,,,,,,,,,
,SAB,001,2022-04-28_19h09.30.011,classification_task,2021.2.3,Win32,48.02843283,61073a8e6fae58a66dd57b39,626b377229c10585ec392f8a,626b3a9c2edf5519eafbdf28,,,,,,,,,,,,,,,,,,,,,,,l,1,"[""0.044"",""0.529"",""0.650"",""0.729""]","[1,0,1,1]",0,20,20,20,1,1,0,,,0,FALSE,2.9847,,,,,,,,,,,,,,,,,,,,,,,,,,,,,,
,SAB,001,2022-04-28_19h09.30.011,classification_task,2021.2.3,Win32,48.02843283,61073a8e6fae58a66dd57b39,626b377229c10585ec392f8a,626b3a9c2edf5519eafbdf28,,,,,,,,,,,,,,,,,,,,,,,a,1,"[""0.312"",""0.417"",""0.529"",""0.919""]","[1,1,0,1]",0,21,21,21,1,0,0,,,0,FALSE,4.109,,,,,,,,,,,,,,,,,,,,,,,,,,,,,,
,SAB,001,2022-04-28_19h09.30.011,classification_task,2021.2.3,Win32,48.02843283,61073a8e6fae58a66dd57b39,626b377229c10585ec392f8a,626b3a9c2edf5519eafbdf28,,,,,,,,,,,,,,,,,,,,,,,a,1,"[""0.232"",""0.371"",""0.880"",""0.686""]","[1,1,1,0]",0,22,22,22,1,0,1,,,0,FALSE,3.0574,,,,,,,,,,,,,,,,,,,,,,,,,,,,,,
,SAB,001,2022-04-28_19h09.30.011,classification_task,2021.2.3,Win32,48.02843283,61073a8e6fae58a66dd57b39,626b377229c10585ec392f8a,626b3a9c2edf5519eafbdf28,,,,,,,,,,,,,,,,,,,,,,,a,1,"[""0.312"",""0.417"",""0.846"",""0.572""]","[1,1,1,0]",0,23,23,23,1,0,0,,,0,FALSE,3.2687,,,,,,,,,,,,,,,,,,,,,,,,,,,,,,
,SAB,001,2022-04-28_19h09.30.011,classification_task,2021.2.3,Win32,48.02843283,61073a8e6fae58a66dd57b39,626b377229c10585ec392f8a,626b3a9c2edf5519eafbdf28,,,,,,,,,,,,,,,,,,,,,,,l,1,"[""0.572"",""0.097"",""0.650"",""0.729""]","[0,1,1,1]",0,24,24,24,1,1,0,,,0,FALSE,2.8665,,,,,,,,,,,,,,,,,,,,,,,,,,,,,,
,SAB,001,2022-04-28_19h09.30.011,classification_task,2021.2.3,Win32,48.02843283,61073a8e6fae58a66dd57b39,626b377229c10585ec392f8a,626b3a9c2edf5519eafbdf28,,,,,,,,,,,,,,,,,,,,,,,l,1,"[""0.146"",""0.273"",""0.685"",""0.776""]","[1,1,0,1]",0,25,25,25,1,1,1,,,0,FALSE,3.3041,,,,,,,,,,,,,,,,,,,,,,,,,,,,,,
,SAB,001,2022-04-28_19h09.30.011,classification_task,2021.2.3,Win32,48.02843283,61073a8e6fae58a66dd57b39,626b377229c10585ec392f8a,626b3a9c2edf5519eafbdf28,,,,,,,,,,,,,,,,,,,,,,,l,0,"[""0.579"",""0.417"",""0.846"",""0.919""]","[0,1,1,1]",0,26,26,26,1,0,0,,,0,FALSE,2.1241,,,,,,,,,,,,,,,,,,,,,,,,,,,,,,
,SAB,001,2022-04-28_19h09.30.011,classification_task,2021.2.3,Win32,48.02843283,61073a8e6fae58a66dd57b39,626b377229c10585ec392f8a,626b3a9c2edf5519eafbdf28,,,,,,,,,,,,,,,,,,,,,,,l,1,"[""0.044"",""0.097"",""0.650"",""0.511""]","[1,1,1,0]",0,27,27,27,1,1,0,,,0,FALSE,3.6043,,,,,,,,,,,,,,,,,,,,,,,,,,,,,,
,SAB,001,2022-04-28_19h09.30.011,classification_task,2021.2.3,Win32,48.02843283,61073a8e6fae58a66dd57b39,626b377229c10585ec392f8a,626b3a9c2edf5519eafbdf28,,,,,,,,,,,,,,,,,,,,,,,l,1,"[""0.044"",""0.097"",""0.563"",""0.729""]","[1,1,0,1]",0,28,28,28,1,1,0,,,0,FALSE,4.4399,,,,,,,,,,,,,,,,,,,,,,,,,,,,,,
,SAB,001,2022-04-28_19h09.30.011,classification_task,2021.2.3,Win32,48.02843283,61073a8e6fae58a66dd57b39,626b377229c10585ec392f8a,626b3a9c2edf5519eafbdf28,,,,,,,,,,,,,,,,,,,,,,,,0,"[""0.686"",""0.371"",""0.880"",""0.972""]","[0,1,1,1]",0,29,29,29,1,0,1,,,0,FALSE,,,,,,,,,,,,,,,,,,,,,,,,,,,,,,,
,SAB,001,2022-04-28_19h09.30.011,classification_task,2021.2.3,Win32,48.02843283,61073a8e6fae58a66dd57b39,626b377229c10585ec392f8a,626b3a9c2edf5519eafbdf28,,,,,,,,,,,,,,,,,,,,,,,l,1,"[""0.146"",""0.273"",""0.455"",""0.579""]","[1,1,1,0]",0,30,30,30,1,1,1,,,0,FALSE,3.8665,,,,,,,,,,,,,,,,,,,,,,,,,,,,,,
,SAB,001,2022-04-28_19h09.30.011,classification_task,2021.2.3,Win32,48.02843283,61073a8e6fae58a66dd57b39,626b377229c10585ec392f8a,626b3a9c2edf5519eafbdf28,,,,,,,,,,,,,,,,,,,,,,,a,1,"[""0.312"",""0.542"",""0.846"",""0.919""]","[1,0,1,1]",0,31,31,31,1,0,0,,,0,FALSE,2.7762,,,,,,,,,,,,,,,,,,,,,,,,,,,,,,
,SAB,001,2022-04-28_19h09.30.011,classification_task,2021.2.3,Win32,48.02843283,61073a8e6fae58a66dd57b39,626b377229c10585ec392f8a,626b3a9c2edf5519eafbdf28,,,,,,,,,,,,,,,,,,,,,,,a,0,"[""0.146"",""0.528"",""0.455"",""0.776""]","[1,0,1,1]",0,32,32,32,1,1,1,,,0,FALSE,5.0889,,,,,,,,,,,,,,,,,,,,,,,,,,,,,,
,SAB,001,2022-04-28_19h09.30.011,classification_task,2021.2.3,Win32,48.02843283,61073a8e6fae58a66dd57b39,626b377229c10585ec392f8a,626b3a9c2edf5519eafbdf28,,,,,,,,,,,,,,,,,,,,,,,l,0,"[""0.579"",""0.371"",""0.880"",""0.972""]","[0,1,1,1]",0,33,33,33,1,0,1,,,0,FALSE,6.1909,,,,,,,,,,,,,,,,,,,,,,,,,,,,,,
,SAB,001,2022-04-28_19h09.30.011,classification_task,2021.2.3,Win32,48.02843283,61073a8e6fae58a66dd57b39,626b377229c10585ec392f8a,626b3a9c2edf5519eafbdf28,,,,,,,,,,,,,,,,,,,,,,,l,0,"[""0.312"",""0.417"",""0.846"",""0.686""]","[1,1,1,0]",0,34,34,34,1,0,0,,,0,FALSE,4.6508,,,,,,,,,,,,,,,,,,,,,,,,,,,,,,
,SAB,001,2022-04-28_19h09.30.011,classification_task,2021.2.3,Win32,48.02843283,61073a8e6fae58a66dd57b39,626b377229c10585ec392f8a,626b3a9c2edf5519eafbdf28,,,,,,,,,,,,,,,,,,,,,,,a,1,"[""0.312"",""0.533"",""0.846"",""0.919""]","[1,0,1,1]",0,35,35,35,1,0,0,,,0,FALSE,4.0288,,,,,,,,,,,,,,,,,,,,,,,,,,,,,,
,SAB,001,2022-04-28_19h09.30.011,classification_task,2021.2.3,Win32,48.02843283,61073a8e6fae58a66dd57b39,626b377229c10585ec392f8a,626b3a9c2edf5519eafbdf28,,,,,,,,,,,,,,,,,,,,,,,a,1,"[""0.232"",""0.542"",""0.880"",""0.972""]","[1,0,1,1]",0,36,36,36,1,0,1,,,0,FALSE,3.4324,,,,,,,,,,,,,,,,,,,,,,,,,,,,,,
,SAB,001,2022-04-28_19h09.30.011,classification_task,2021.2.3,Win32,48.02843283,61073a8e6fae58a66dd57b39,626b377229c10585ec392f8a,626b3a9c2edf5519eafbdf28,,,,,,,,,,,,,,,,,,,,,,,a,0,"[""0.146"",""0.273"",""0.455"",""0.529""]","[1,1,1,0]",0,37,37,37,1,1,1,,,0,FALSE,3.224,,,,,,,,,,,,,,,,,,,,,,,,,,,,,,
,SAB,001,2022-04-28_19h09.30.011,classification_task,2021.2.3,Win32,48.02843283,61073a8e6fae58a66dd57b39,626b377229c10585ec392f8a,626b3a9c2edf5519eafbdf28,,,,,,,,,,,,,,,,,,,,,,,l,1,"[""0.044"",""0.097"",""0.650"",""0.572""]","[1,1,1,0]",0,38,38,38,1,1,0,,,0,FALSE,1.5144,,,,,,,,,,,,,,,,,,,,,,,,,,,,,,
,SAB,001,2022-04-28_19h09.30.011,classification_task,2021.2.3,Win32,48.02843283,61073a8e6fae58a66dd57b39,626b377229c10585ec392f8a,626b3a9c2edf5519eafbdf28,,,,,,,,,,,,,,,,,,,,,,,a,1,"[""0.232"",""0.371"",""0.880"",""0.595""]","[1,1,1,0]",0,39,39,39,1,0,1,,,0,FALSE,2.2281,,,,,,,,,,,,,,,,,,,,,,,,,,,,,,
,SAB,001,2022-04-28_19h09.30.011,classification_task,2021.2.3,Win32,48.02843283,61073a8e6fae58a66dd57b39,626b377229c10585ec392f8a,626b3a9c2edf5519eafbdf28,,,,,,,,,,,,,,,,,,,,,,,a,0,"[""0.146"",""0.273"",""0.595"",""0.776""]","[1,1,0,1]",0,40,40,40,1,1,1,,,0,FALSE,2.2264,,,,,,,,,,,,,,,,,,,,,,,,,,,,,,
,SAB,001,2022-04-28_19h09.30.011,classification_task,2021.2.3,Win32,48.02843283,61073a8e6fae58a66dd57b39,626b377229c10585ec392f8a,626b3a9c2edf5519eafbdf28,,,,,,,,,,,,,,,,,,,,,,,l,1,"[""0.044"",""0.616"",""0.650"",""0.729""]","[1,0,1,1]",0,41,41,41,1,1,0,,,0,FALSE,1.3545,,,,,,,,,,,,,,,,,,,,,,,,,,,,,,
,SAB,001,2022-04-28_19h09.30.011,classification_task,2021.2.3,Win32,48.02843283,61073a8e6fae58a66dd57b39,626b377229c10585ec392f8a,626b3a9c2edf5519eafbdf28,,,,,,,,,,,,,,,,,,,,,,,a,0,"[""0.569"",""0.097"",""0.650"",""0.729""]","[0,1,1,1]",0,42,42,42,1,1,0,,,0,FALSE,2.9363,,,,,,,,,,,,,,,,,,,,,,,,,,,,,,
,SAB,001,2022-04-28_19h09.30.011,classification_task,2021.2.3,Win32,48.02843283,61073a8e6fae58a66dd57b39,626b377229c10585ec392f8a,626b3a9c2edf5519eafbdf28,,,,,,,,,,,,,,,,,,,,,,,a,0,"[""0.686"",""0.273"",""0.455"",""0.776""]","[0,1,1,1]",0,43,43,43,1,1,1,,,0,FALSE,1.3756,,,,,,,,,,,,,,,,,,,,,,,,,,,,,,
,SAB,001,2022-04-28_19h09.30.011,classification_task,2021.2.3,Win32,48.02843283,61073a8e6fae58a66dd57b39,626b377229c10585ec392f8a,626b3a9c2edf5519eafbdf28,,,,,,,,,,,,,,,,,,,,,,,l,1,"[""0.044"",""0.097"",""0.572"",""0.729""]","[1,1,0,1]",0,44,44,44,1,1,0,,,0,FALSE,2.1473,,,,,,,,,,,,,,,,,,,,,,,,,,,,,,
,SAB,001,2022-04-28_19h09.30.011,classification_task,2021.2.3,Win32,48.02843283,61073a8e6fae58a66dd57b39,626b377229c10585ec392f8a,626b3a9c2edf5519eafbdf28,,,,,,,,,,,,,,,,,,,,,,,l,0,"[""0.232"",""0.371"",""0.606"",""0.972""]","[1,1,0,1]",0,45,45,45,1,0,1,,,0,FALSE,1.8972,,,,,,,,,,,,,,,,,,,,,,,,,,,,,,
,SAB,001,2022-04-28_19h09.30.011,classification_task,2021.2.3,Win32,48.02843283,61073a8e6fae58a66dd57b39,626b377229c10585ec392f8a,626b3a9c2edf5519eafbdf28,,,,,,,,,,,,,,,,,,,,,,,l,0,"[""0.616"",""0.417"",""0.846"",""0.919""]","[0,1,1,1]",0,46,46,46,1,0,0,,,0,FALSE,1.5405,,,,,,,,,,,,,,,,,,,,,,,,,,,,,,
,SAB,001,2022-04-28_19h09.30.011,classification_task,2021.2.3,Win32,48.02843283,61073a8e6fae58a66dd57b39,626b377229c10585ec392f8a,626b3a9c2edf5519eafbdf28,,,,,,,,,,,,,,,,,,,,,,,a,1,"[""0.312"",""0.417"",""0.686"",""0.919""]","[1,1,0,1]",0,47,47,47,1,0,0,,,0,FALSE,0.8362,,,,,,,,,,,,,,,,,,,,,,,,,,,,,,
,SAB,001,2022-04-28_19h09.30.011,classification_task,2021.2.3,Win32,48.02843283,61073a8e6fae58a66dd57b39,626b377229c10585ec392f8a,626b3a9c2edf5519eafbdf28,,,,,,,,,,,,,,,,,,,,,,,a,1,"[""0.312"",""0.563"",""0.846"",""0.919""]","[1,0,1,1]",0,48,48,48,1,0,0,,,0,FALSE,1.3462,,,,,,,,,,,,,,,,,,,,,,,,,,,,,,
,SAB,001,2022-04-28_19h09.30.011,classification_task,2021.2.3,Win32,48.02843283,61073a8e6fae58a66dd57b39,626b377229c10585ec392f8a,626b3a9c2edf5519eafbdf28,,,,,,,,,,,,,,,,,,,,,,,a,0,"[""0.044"",""0.097"",""0.606"",""0.729""]","[1,1,0,1]",0,49,49,49,1,1,0,,,0,FALSE,1.3264,,,,,,,,,,,,,,,,,,,,,,,,,,,,,,
,SAB,001,2022-04-28_19h09.30.011,classification_task,2021.2.3,Win32,48.02843283,61073a8e6fae58a66dd57b39,626b377229c10585ec392f8a,626b3a9c2edf5519eafbdf28,,,,,,,,,,,,,,,,,,,,,,,l,0,"[""0.312"",""0.417"",""0.846"",""0.572""]","[1,1,1,0]",0,50,50,50,1,0,0,,,0,FALSE,2.0157,,,,,,,,,,,,,,,,,,,,,,,,,,,,,,
,SAB,001,2022-04-28_19h09.30.011,classification_task,2021.2.3,Win32,48.02843283,61073a8e6fae58a66dd57b39,626b377229c10585ec392f8a,626b3a9c2edf5519eafbdf28,,,,,,,,,,,,,,,,,,,,,,,a,1,"[""0.312"",""0.417"",""0.569"",""0.919""]","[1,1,0,1]",0,51,51,51,1,0,0,,,0,FALSE,1.1811,,,,,,,,,,,,,,,,,,,,,,,,,,,,,,
,SAB,001,2022-04-28_19h09.30.011,classification_task,2021.2.3,Win32,48.02843283,61073a8e6fae58a66dd57b39,626b377229c10585ec392f8a,626b3a9c2edf5519eafbdf28,,,,,,,,,,,,,,,,,,,,,,,l,1,"[""0.044"",""0.686"",""0.650"",""0.729""]","[1,0,1,1]",0,52,52,52,1,1,0,,,0,FALSE,1.4953,,,,,,,,,,,,,,,,,,,,,,,,,,,,,,
,SAB,001,2022-04-28_19h09.30.011,classification_task,2021.2.3,Win32,48.02843283,61073a8e6fae58a66dd57b39,626b377229c10585ec392f8a,626b3a9c2edf5519eafbdf28,,,,,,,,,,,,,,,,,,,,,,,a,0,"[""0.044"",""0.097"",""0.650"",""0.616""]","[1,1,1,0]",0,53,53,53,1,1,0,,,0,FALSE,1.2437,,,,,,,,,,,,,,,,,,,,,,,,,,,,,,
,SAB,001,2022-04-28_19h09.30.011,classification_task,2021.2.3,Win32,48.02843283,61073a8e6fae58a66dd57b39,626b377229c10585ec392f8a,626b3a9c2edf5519eafbdf28,,,,,,,,,,,,,,,,,,,,,,,a,0,"[""0.146"",""0.273"",""0.455"",""0.579""]","[1,1,1,0]",0,54,54,54,1,1,1,,,0,FALSE,1.1245,,,,,,,,,,,,,,,,,,,,,,,,,,,,,,
,SAB,001,2022-04-28_19h09.30.011,classification_task,2021.2.3,Win32,48.02843283,61073a8e6fae58a66dd57b39,626b377229c10585ec392f8a,626b3a9c2edf5519eafbdf28,,,,,,,,,,,,,,,,,,,,,,,l,0,"[""0.533"",""0.371"",""0.880"",""0.972""]","[0,1,1,1]",0,55,55,55,1,0,1,,,0,FALSE,0.8706,,,,,,,,,,,,,,,,,,,,,,,,,,,,,,
,SAB,001,2022-04-28_19h09.30.011,classification_task,2021.2.3,Win32,48.02843283,61073a8e6fae58a66dd57b39,626b377229c10585ec392f8a,626b3a9c2edf5519eafbdf28,,,,,,,,,,,,,,,,,,,,,,,a,0,"[""0.579"",""0.097"",""0.650"",""0.729""]","[0,1,1,1]",0,56,56,56,1,1,0,,,0,FALSE,2.0971,,,,,,,,,,,,,,,,,,,,,,,,,,,,,,
,SAB,001,2022-04-28_19h09.30.011,classification_task,2021.2.3,Win32,48.02843283,61073a8e6fae58a66dd57b39,626b377229c10585ec392f8a,626b3a9c2edf5519eafbdf28,,,,,,,,,,,,,,,,,,,,,,,a,0,"[""0.146"",""0.606"",""0.455"",""0.776""]","[1,0,1,1]",0,57,57,57,1,1,1,,,0,FALSE,1.5397,,,,,,,,,,,,,,,,,,,,,,,,,,,,,,
,SAB,001,2022-04-28_19h09.30.011,classification_task,2021.2.3,Win32,48.02843283,61073a8e6fae58a66dd57b39,626b377229c10585ec392f8a,626b3a9c2edf5519eafbdf28,,,,,,,,,,,,,,,,,,,,,,,l,0,"[""0.606"",""0.417"",""0.846"",""0.919""]","[0,1,1,1]",0,58,58,58,1,0,0,,,0,FALSE,0.9981,,,,,,,,,,,,,,,,,,,,,,,,,,,,,,
,SAB,001,2022-04-28_19h09.30.011,classification_task,2021.2.3,Win32,48.02843283,61073a8e6fae58a66dd57b39,626b377229c10585ec392f8a,626b3a9c2edf5519eafbdf28,,,,,,,,,,,,,,,,,,,,,,,a,1,"[""0.232"",""0.371"",""0.572"",""0.972""]","[1,1,0,1]",0,59,59,59,1,0,1,,,0,FALSE,1.2055,,,,,,,,,,,,,,,,,,,,,,,,,,,,,,
,SAB,001,2022-04-28_19h09.30.011,classification_task,2021.2.3,Win32,48.02843283,61073a8e6fae58a66dd57b39,626b377229c10585ec392f8a,626b3a9c2edf5519eafbdf28,,,,,,,,,,,,,,,,,,,,,,,a,0,"[""0.146"",""0.273"",""0.529"",""0.776""]","[1,1,0,1]",0,60,60,60,1,1,1,,,0,FALSE,1.2506,,,,,,,,,,,,,,,,,,,,,,,,,,,,,,
,SAB,001,2022-04-28_19h09.30.011,classification_task,2021.2.3,Win32,48.02843283,61073a8e6fae58a66dd57b39,626b377229c10585ec392f8a,626b3a9c2edf5519eafbdf28,,,,,,,,,,,,,,,,,,,,,,,l,0,"[""0.232"",""0.542"",""0.880"",""0.972""]","[1,0,1,1]",0,61,61,61,1,0,1,,,0,FALSE,1.6676,,,,,,,,,,,,,,,,,,,,,,,,,,,,,,
,SAB,001,2022-04-28_19h09.30.011,classification_task,2021.2.3,Win32,48.02843283,61073a8e6fae58a66dd57b39,626b377229c10585ec392f8a,626b3a9c2edf5519eafbdf28,,,,,,,,,,,,,,,,,,,,,,,a,0,"[""0.563"",""0.273"",""0.455"",""0.776""]","[0,1,1,1]",0,62,62,62,1,1,1,,,0,FALSE,2.0833,,,,,,,,,,,,,,,,,,,,,,,,,,,,,,
,SAB,001,2022-04-28_19h09.30.011,classification_task,2021.2.3,Win32,48.02843283,61073a8e6fae58a66dd57b39,626b377229c10585ec392f8a,626b3a9c2edf5519eafbdf28,,,,,,,,,,,,,,,,,,,,,,,l,0,"[""0.232"",""0.371"",""0.880"",""0.511""]","[1,1,1,0]",0,63,63,63,1,0,1,,,0,FALSE,1.6848,,,,,,,,,,,,,,,,,,,,,,,,,,,,,,
,SAB,001,2022-04-28_19h09.30.011,classification_task,2021.2.3,Win32,48.02843283,61073a8e6fae58a66dd57b39,626b377229c10585ec392f8a,626b3a9c2edf5519eafbdf28,,,,,,,,,,,,,,,,,,,,,,,,,,,,,,,,,,,,,,,0, ,,0,0.524253423,438.9202,0,0,0,0,1,2,1,,,,,,,,,,,,,,,,,
,SAB,001,2022-04-28_19h09.30.011,classification_task,2021.2.3,Win32,48.02843283,61073a8e6fae58a66dd57b39,626b377229c10585ec392f8a,626b3a9c2edf5519eafbdf28,,,,,,,,,,,,,,,,,,,,,,,,,,,,,,,,,,,,,,,1,  ,,0,3.442257609,443.9779,0,0,0,0,1,2,1,,,,,,,,,,,,,,,,,
,SAB,001,2022-04-28_19h09.30.011,classification_task,2021.2.3,Win32,48.02843283,61073a8e6fae58a66dd57b39,626b377229c10585ec392f8a,626b3a9c2edf5519eafbdf28,,,,,,,,,,,,,,,,,,,,,,,,,,,,,,,,,,,,,,,2,  ,,0,7.089762306,452.8528,0,0,0,0,1,2,1,,,,,,,,,,,,,,,,,
,SAB,001,2022-04-28_19h09.30.011,classification_task,2021.2.3,Win32,48.02843283,61073a8e6fae58a66dd57b39,626b377229c10585ec392f8a,626b3a9c2edf5519eafbdf28,,,,,,,,,,,,,,,,,,,,,,,,,,,,,,,,,,,,,,,,,,,,,0,0,0,0,1,,1,,,,,,,,,,,,,,,,,
,SAB,001,2022-04-28_19h09.30.011,classification_task,2021.2.3,Win32,48.02843283,61073a8e6fae58a66dd57b39,626b377229c10585ec392f8a,626b3a9c2edf5519eafbdf28,,,,,,,,,,,,,,,,,,,,,space,8.1926,l,0,"[""0.312"",""0.529"",""0.846"",""0.919""]","[1,0,1,1]",0,0,0,0,1,0,0,,,0,FALSE,2.7601,,,,,,,,,,,,,,,,,,,,,,,,,,,,,,
,SAB,001,2022-04-28_19h09.30.011,classification_task,2021.2.3,Win32,48.02843283,61073a8e6fae58a66dd57b39,626b377229c10585ec392f8a,626b3a9c2edf5519eafbdf28,,,,,,,,,,,,,,,,,,,,,,,a,1,"[""0.616"",""0.417"",""0.846"",""0.919""]","[0,1,1,1]",0,1,1,1,1,0,0,,,0,FALSE,1.0614,,,,,,,,,,,,,,,,,,,,,,,,,,,,,,
,SAB,001,2022-04-28_19h09.30.011,classification_task,2021.2.3,Win32,48.02843283,61073a8e6fae58a66dd57b39,626b377229c10585ec392f8a,626b3a9c2edf5519eafbdf28,,,,,,,,,,,,,,,,,,,,,,,a,0,"[""0.146"",""0.273"",""0.563"",""0.776""]","[1,1,0,1]",0,2,2,2,1,1,1,,,0,FALSE,2.6432,,,,,,,,,,,,,,,,,,,,,,,,,,,,,,
,SAB,001,2022-04-28_19h09.30.011,classification_task,2021.2.3,Win32,48.02843283,61073a8e6fae58a66dd57b39,626b377229c10585ec392f8a,626b3a9c2edf5519eafbdf28,,,,,,,,,,,,,,,,,,,,,,,a,0,"[""0.044"",""0.097"",""0.650"",""0.542""]","[1,1,1,0]",0,3,3,3,1,1,0,,,0,FALSE,2.2297,,,,,,,,,,,,,,,,,,,,,,,,,,,,,,
,SAB,001,2022-04-28_19h09.30.011,classification_task,2021.2.3,Win32,48.02843283,61073a8e6fae58a66dd57b39,626b377229c10585ec392f8a,626b3a9c2edf5519eafbdf28,,,,,,,,,,,,,,,,,,,,,,,l,0,"[""0.312"",""0.417"",""0.606"",""0.919""]","[1,1,0,1]",0,4,4,4,1,0,0,,,0,FALSE,0.7807,,,,,,,,,,,,,,,,,,,,,,,,,,,,,,
,SAB,001,2022-04-28_19h09.30.011,classification_task,2021.2.3,Win32,48.02843283,61073a8e6fae58a66dd57b39,626b377229c10585ec392f8a,626b3a9c2edf5519eafbdf28,,,,,,,,,,,,,,,,,,,,,,,l,1,"[""0.044"",""0.572"",""0.650"",""0.729""]","[1,0,1,1]",0,5,5,5,1,1,0,,,0,FALSE,0.8738,,,,,,,,,,,,,,,,,,,,,,,,,,,,,,
,SAB,001,2022-04-28_19h09.30.011,classification_task,2021.2.3,Win32,48.02843283,61073a8e6fae58a66dd57b39,626b377229c10585ec392f8a,626b3a9c2edf5519eafbdf28,,,,,,,,,,,,,,,,,,,,,,,a,1,"[""0.312"",""0.417"",""0.846"",""0.598""]","[1,1,1,0]",0,6,6,6,1,0,0,,,0,FALSE,0.6767,,,,,,,,,,,,,,,,,,,,,,,,,,,,,,
,SAB,001,2022-04-28_19h09.30.011,classification_task,2021.2.3,Win32,48.02843283,61073a8e6fae58a66dd57b39,626b377229c10585ec392f8a,626b3a9c2edf5519eafbdf28,,,,,,,,,,,,,,,,,,,,,,,a,1,"[""0.232"",""0.542"",""0.880"",""0.972""]","[1,0,1,1]",0,7,7,7,1,0,1,,,0,FALSE,1.6945,,,,,,,,,,,,,,,,,,,,,,,,,,,,,,
,SAB,001,2022-04-28_19h09.30.011,classification_task,2021.2.3,Win32,48.02843283,61073a8e6fae58a66dd57b39,626b377229c10585ec392f8a,626b3a9c2edf5519eafbdf28,,,,,,,,,,,,,,,,,,,,,,,l,1,"[""0.044"",""0.097"",""0.533"",""0.729""]","[1,1,0,1]",0,8,8,8,1,1,0,,,0,FALSE,1.3412,,,,,,,,,,,,,,,,,,,,,,,,,,,,,,
,SAB,001,2022-04-28_19h09.30.011,classification_task,2021.2.3,Win32,48.02843283,61073a8e6fae58a66dd57b39,626b377229c10585ec392f8a,626b3a9c2edf5519eafbdf28,,,,,,,,,,,,,,,,,,,,,,,a,0,"[""0.146"",""0.273"",""0.455"",""0.563""]","[1,1,1,0]",0,9,9,9,1,1,1,,,0,FALSE,1.3811,,,,,,,,,,,,,,,,,,,,,,,,,,,,,,
,SAB,001,2022-04-28_19h09.30.011,classification_task,2021.2.3,Win32,48.02843283,61073a8e6fae58a66dd57b39,626b377229c10585ec392f8a,626b3a9c2edf5519eafbdf28,,,,,,,,,,,,,,,,,,,,,,,a,0,"[""0.146"",""0.686"",""0.455"",""0.776""]","[1,0,1,1]",0,10,10,10,1,1,1,,,0,FALSE,1.7113,,,,,,,,,,,,,,,,,,,,,,,,,,,,,,
,SAB,001,2022-04-28_19h09.30.011,classification_task,2021.2.3,Win32,48.02843283,61073a8e6fae58a66dd57b39,626b377229c10585ec392f8a,626b3a9c2edf5519eafbdf28,,,,,,,,,,,,,,,,,,,,,,,l,0,"[""0.595"",""0.371"",""0.880"",""0.972""]","[0,1,1,1]",0,11,11,11,1,0,1,,,0,FALSE,1.4337,,,,,,,,,,,,,,,,,,,,,,,,,,,,,,
,SAB,001,2022-04-28_19h09.30.011,classification_task,2021.2.3,Win32,48.02843283,61073a8e6fae58a66dd57b39,626b377229c10585ec392f8a,626b3a9c2edf5519eafbdf28,,,,,,,,,,,,,,,,,,,,,,,l,0,"[""0.232"",""0.371"",""0.880"",""0.533""]","[1,1,1,0]",0,12,12,12,1,0,1,,,0,FALSE,1.4139,,,,,,,,,,,,,,,,,,,,,,,,,,,,,,
,SAB,001,2022-04-28_19h09.30.011,classification_task,2021.2.3,Win32,48.02843283,61073a8e6fae58a66dd57b39,626b377229c10585ec392f8a,626b3a9c2edf5519eafbdf28,,,,,,,,,,,,,,,,,,,,,,,a,1,"[""0.232"",""0.371"",""0.598"",""0.972""]","[1,1,0,1]",0,13,13,13,1,0,1,,,0,FALSE,1.3747,,,,,,,,,,,,,,,,,,,,,,,,,,,,,,
,SAB,001,2022-04-28_19h09.30.011,classification_task,2021.2.3,Win32,48.02843283,61073a8e6fae58a66dd57b39,626b377229c10585ec392f8a,626b3a9c2edf5519eafbdf28,,,,,,,,,,,,,,,,,,,,,,,a,0,"[""0.616"",""0.273"",""0.455"",""0.776""]","[0,1,1,1]",0,14,14,14,1,1,1,,,0,FALSE,1.7087,,,,,,,,,,,,,,,,,,,,,,,,,,,,,,
,SAB,001,2022-04-28_19h09.30.011,classification_task,2021.2.3,Win32,48.02843283,61073a8e6fae58a66dd57b39,626b377229c10585ec392f8a,626b3a9c2edf5519eafbdf28,,,,,,,,,,,,,,,,,,,,,,,l,1,"[""0.563"",""0.097"",""0.650"",""0.729""]","[0,1,1,1]",0,15,15,15,1,1,0,,,0,FALSE,1.049,,,,,,,,,,,,,,,,,,,,,,,,,,,,,,
,SAB,001,2022-04-28_19h09.30.011,classification_task,2021.2.3,Win32,48.02843283,61073a8e6fae58a66dd57b39,626b377229c10585ec392f8a,626b3a9c2edf5519eafbdf28,,,,,,,,,,,,,,,,,,,,,,,a,1,"[""0.312"",""0.417"",""0.595"",""0.919""]","[1,1,0,1]",0,16,16,16,1,0,0,,,0,FALSE,0.7287,,,,,,,,,,,,,,,,,,,,,,,,,,,,,,
,SAB,001,2022-04-28_19h09.30.011,classification_task,2021.2.3,Win32,48.02843283,61073a8e6fae58a66dd57b39,626b377229c10585ec392f8a,626b3a9c2edf5519eafbdf28,,,,,,,,,,,,,,,,,,,,,,,l,1,"[""0.044"",""0.097"",""0.579"",""0.729""]","[1,1,0,1]",0,17,17,17,1,1,0,,,0,FALSE,0.8949,,,,,,,,,,,,,,,,,,,,,,,,,,,,,,
,SAB,001,2022-04-28_19h09.30.011,classification_task,2021.2.3,Win32,48.02843283,61073a8e6fae58a66dd57b39,626b377229c10585ec392f8a,626b3a9c2edf5519eafbdf28,,,,,,,,,,,,,,,,,,,,,,,a,0,"[""0.146"",""0.273"",""0.455"",""0.579""]","[1,1,1,0]",0,18,18,18,1,1,1,,,0,FALSE,1.9933,,,,,,,,,,,,,,,,,,,,,,,,,,,,,,
,SAB,001,2022-04-28_19h09.30.011,classification_task,2021.2.3,Win32,48.02843283,61073a8e6fae58a66dd57b39,626b377229c10585ec392f8a,626b3a9c2edf5519eafbdf28,,,,,,,,,,,,,,,,,,,,,,,l,0,"[""0.232"",""0.371"",""0.880"",""0.528""]","[1,1,1,0]",0,19,19,19,1,0,1,,,0,FALSE,1.354,,,,,,,,,,,,,,,,,,,,,,,,,,,,,,
,SAB,001,2022-04-28_19h09.30.011,classification_task,2021.2.3,Win32,48.02843283,61073a8e6fae58a66dd57b39,626b377229c10585ec392f8a,626b3a9c2edf5519eafbdf28,,,,,,,,,,,,,,,,,,,,,,,a,1,"[""0.232"",""0.542"",""0.880"",""0.972""]","[1,0,1,1]",0,20,20,20,1,0,1,,,0,FALSE,1.562,,,,,,,,,,,,,,,,,,,,,,,,,,,,,,
,SAB,001,2022-04-28_19h09.30.011,classification_task,2021.2.3,Win32,48.02843283,61073a8e6fae58a66dd57b39,626b377229c10585ec392f8a,626b3a9c2edf5519eafbdf28,,,,,,,,,,,,,,,,,,,,,,,l,0,"[""0.232"",""0.371"",""0.606"",""0.972""]","[1,1,0,1]",0,21,21,21,1,0,1,,,0,FALSE,1.0973,,,,,,,,,,,,,,,,,,,,,,,,,,,,,,
,SAB,001,2022-04-28_19h09.30.011,classification_task,2021.2.3,Win32,48.02843283,61073a8e6fae58a66dd57b39,626b377229c10585ec392f8a,626b3a9c2edf5519eafbdf28,,,,,,,,,,,,,,,,,,,,,,,a,1,"[""0.312"",""0.595"",""0.846"",""0.919""]","[1,0,1,1]",0,22,22,22,1,0,0,,,0,FALSE,0.7595,,,,,,,,,,,,,,,,,,,,,,,,,,,,,,
,SAB,001,2022-04-28_19h09.30.011,classification_task,2021.2.3,Win32,48.02843283,61073a8e6fae58a66dd57b39,626b377229c10585ec392f8a,626b3a9c2edf5519eafbdf28,,,,,,,,,,,,,,,,,,,,,,,l,1,"[""0.529"",""0.097"",""0.650"",""0.729""]","[0,1,1,1]",0,23,23,23,1,1,0,,,0,FALSE,0.6244,,,,,,,,,,,,,,,,,,,,,,,,,,,,,,
,SAB,001,2022-04-28_19h09.30.011,classification_task,2021.2.3,Win32,48.02843283,61073a8e6fae58a66dd57b39,626b377229c10585ec392f8a,626b3a9c2edf5519eafbdf28,,,,,,,,,,,,,,,,,,,,,,,a,0,"[""0.146"",""0.273"",""0.606"",""0.776""]","[1,1,0,1]",0,24,24,24,1,1,1,,,0,FALSE,2.2267,,,,,,,,,,,,,,,,,,,,,,,,,,,,,,
,SAB,001,2022-04-28_19h09.30.011,classification_task,2021.2.3,Win32,48.02843283,61073a8e6fae58a66dd57b39,626b377229c10585ec392f8a,626b3a9c2edf5519eafbdf28,,,,,,,,,,,,,,,,,,,,,,,a,1,"[""0.579"",""0.417"",""0.846"",""0.919""]","[0,1,1,1]",0,25,25,25,1,0,0,,,0,FALSE,2.5805,,,,,,,,,,,,,,,,,,,,,,,,,,,,,,
,SAB,001,2022-04-28_19h09.30.011,classification_task,2021.2.3,Win32,48.02843283,61073a8e6fae58a66dd57b39,626b377229c10585ec392f8a,626b3a9c2edf5519eafbdf28,,,,,,,,,,,,,,,,,,,,,,,l,0,"[""0.528"",""0.371"",""0.880"",""0.972""]","[0,1,1,1]",0,26,26,26,1,0,1,,,0,FALSE,1.3833,,,,,,,,,,,,,,,,,,,,,,,,,,,,,,
,SAB,001,2022-04-28_19h09.30.011,classification_task,2021.2.3,Win32,48.02843283,61073a8e6fae58a66dd57b39,626b377229c10585ec392f8a,626b3a9c2edf5519eafbdf28,,,,,,,,,,,,,,,,,,,,,,,l,1,"[""0.146"",""0.529"",""0.455"",""0.776""]","[1,0,1,1]",0,27,27,27,1,1,1,,,0,FALSE,2.1882,,,,,,,,,,,,,,,,,,,,,,,,,,,,,,
,SAB,001,2022-04-28_19h09.30.011,classification_task,2021.2.3,Win32,48.02843283,61073a8e6fae58a66dd57b39,626b377229c10585ec392f8a,626b3a9c2edf5519eafbdf28,,,,,,,,,,,,,,,,,,,,,,,a,0,"[""0.511"",""0.273"",""0.455"",""0.776""]","[0,1,1,1]",0,28,28,28,1,1,1,,,0,FALSE,1.1547,,,,,,,,,,,,,,,,,,,,,,,,,,,,,,
,SAB,001,2022-04-28_19h09.30.011,classification_task,2021.2.3,Win32,48.02843283,61073a8e6fae58a66dd57b39,626b377229c10585ec392f8a,626b3a9c2edf5519eafbdf28,,,,,,,,,,,,,,,,,,,,,,,a,1,"[""0.312"",""0.417"",""0.846"",""0.686""]","[1,1,1,0]",0,29,29,29,1,0,0,,,0,FALSE,0.9134,,,,,,,,,,,,,,,,,,,,,,,,,,,,,,
,SAB,001,2022-04-28_19h09.30.011,classification_task,2021.2.3,Win32,48.02843283,61073a8e6fae58a66dd57b39,626b377229c10585ec392f8a,626b3a9c2edf5519eafbdf28,,,,,,,,,,,,,,,,,,,,,,,l,1,"[""0.044"",""0.097"",""0.650"",""0.572""]","[1,1,1,0]",0,30,30,30,1,1,0,,,0,FALSE,0.4536,,,,,,,,,,,,,,,,,,,,,,,,,,,,,,
,SAB,001,2022-04-28_19h09.30.011,classification_task,2021.2.3,Win32,48.02843283,61073a8e6fae58a66dd57b39,626b377229c10585ec392f8a,626b3a9c2edf5519eafbdf28,,,,,,,,,,,,,,,,,,,,,,,l,1,"[""0.044"",""0.529"",""0.650"",""0.729""]","[1,0,1,1]",0,31,31,31,1,1,0,,,0,FALSE,0.7712,,,,,,,,,,,,,,,,,,,,,,,,,,,,,,
,SAB,001,2022-04-28_19h09.30.011,classification_task,2021.2.3,Win32,48.02843283,61073a8e6fae58a66dd57b39,626b377229c10585ec392f8a,626b3a9c2edf5519eafbdf28,,,,,,,,,,,,,,,,,,,,,,,a,1,"[""0.232"",""0.371"",""0.579"",""0.972""]","[1,1,0,1]",0,32,32,32,1,0,1,,,0,FALSE,1.5242,,,,,,,,,,,,,,,,,,,,,,,,,,,,,,
,SAB,001,2022-04-28_19h09.30.011,classification_task,2021.2.3,Win32,48.02843283,61073a8e6fae58a66dd57b39,626b377229c10585ec392f8a,626b3a9c2edf5519eafbdf28,,,,,,,,,,,,,,,,,,,,,,,a,1,"[""0.232"",""0.371"",""0.880"",""0.595""]","[1,1,1,0]",0,33,33,33,1,0,1,,,0,FALSE,1.0982,,,,,,,,,,,,,,,,,,,,,,,,,,,,,,
,SAB,001,2022-04-28_19h09.30.011,classification_task,2021.2.3,Win32,48.02843283,61073a8e6fae58a66dd57b39,626b377229c10585ec392f8a,626b3a9c2edf5519eafbdf28,,,,,,,,,,,,,,,,,,,,,,,l,1,"[""0.044"",""0.097"",""0.533"",""0.729""]","[1,1,0,1]",0,34,34,34,1,1,0,,,0,FALSE,1.6937,,,,,,,,,,,,,,,,,,,,,,,,,,,,,,
,SAB,001,2022-04-28_19h09.30.011,classification_task,2021.2.3,Win32,48.02843283,61073a8e6fae58a66dd57b39,626b377229c10585ec392f8a,626b3a9c2edf5519eafbdf28,,,,,,,,,,,,,,,,,,,,,,,l,1,"[""0.044"",""0.686"",""0.650"",""0.729""]","[1,0,1,1]",0,35,35,35,1,1,0,,,0,FALSE,1.2229,,,,,,,,,,,,,,,,,,,,,,,,,,,,,,
,SAB,001,2022-04-28_19h09.30.011,classification_task,2021.2.3,Win32,48.02843283,61073a8e6fae58a66dd57b39,626b377229c10585ec392f8a,626b3a9c2edf5519eafbdf28,,,,,,,,,,,,,,,,,,,,,,,l,1,"[""0.044"",""0.097"",""0.650"",""0.528""]","[1,1,1,0]",0,36,36,36,1,1,0,,,0,FALSE,0.6659,,,,,,,,,,,,,,,,,,,,,,,,,,,,,,
,SAB,001,2022-04-28_19h09.30.011,classification_task,2021.2.3,Win32,48.02843283,61073a8e6fae58a66dd57b39,626b377229c10585ec392f8a,626b3a9c2edf5519eafbdf28,,,,,,,,,,,,,,,,,,,,,,,l,0,"[""0.686"",""0.371"",""0.880"",""0.972""]","[0,1,1,1]",0,37,37,37,1,0,1,,,0,FALSE,2.4297,,,,,,,,,,,,,,,,,,,,,,,,,,,,,,
,SAB,001,2022-04-28_19h09.30.011,classification_task,2021.2.3,Win32,48.02843283,61073a8e6fae58a66dd57b39,626b377229c10585ec392f8a,626b3a9c2edf5519eafbdf28,,,,,,,,,,,,,,,,,,,,,,,a,1,"[""0.312"",""0.417"",""0.569"",""0.919""]","[1,1,0,1]",0,38,38,38,1,0,0,,,0,FALSE,0.7053,,,,,,,,,,,,,,,,,,,,,,,,,,,,,,
,SAB,001,2022-04-28_19h09.30.011,classification_task,2021.2.3,Win32,48.02843283,61073a8e6fae58a66dd57b39,626b377229c10585ec392f8a,626b3a9c2edf5519eafbdf28,,,,,,,,,,,,,,,,,,,,,,,a,0,"[""0.146"",""0.273"",""0.455"",""0.542""]","[1,1,1,0]",0,39,39,39,1,1,1,,,0,FALSE,1.6596,,,,,,,,,,,,,,,,,,,,,,,,,,,,,,
,SAB,001,2022-04-28_19h09.30.011,classification_task,2021.2.3,Win32,48.02843283,61073a8e6fae58a66dd57b39,626b377229c10585ec392f8a,626b3a9c2edf5519eafbdf28,,,,,,,,,,,,,,,,,,,,,,,a,1,"[""0.572"",""0.417"",""0.846"",""0.919""]","[0,1,1,1]",0,40,40,40,1,0,0,,,0,FALSE,0.9526,,,,,,,,,,,,,,,,,,,,,,,,,,,,,,
,SAB,001,2022-04-28_19h09.30.011,classification_task,2021.2.3,Win32,48.02843283,61073a8e6fae58a66dd57b39,626b377229c10585ec392f8a,626b3a9c2edf5519eafbdf28,,,,,,,,,,,,,,,,,,,,,,,a,1,"[""0.312"",""0.528"",""0.846"",""0.919""]","[1,0,1,1]",0,41,41,41,1,0,0,,,0,FALSE,1.0331,,,,,,,,,,,,,,,,,,,,,,,,,,,,,,
,SAB,001,2022-04-28_19h09.30.011,classification_task,2021.2.3,Win32,48.02843283,61073a8e6fae58a66dd57b39,626b377229c10585ec392f8a,626b3a9c2edf5519eafbdf28,,,,,,,,,,,,,,,,,,,,,,,l,1,"[""0.563"",""0.273"",""0.455"",""0.776""]","[0,1,1,1]",0,42,42,42,1,1,1,,,0,FALSE,1.9388,,,,,,,,,,,,,,,,,,,,,,,,,,,,,,
,SAB,001,2022-04-28_19h09.30.011,classification_task,2021.2.3,Win32,48.02843283,61073a8e6fae58a66dd57b39,626b377229c10585ec392f8a,626b3a9c2edf5519eafbdf28,,,,,,,,,,,,,,,,,,,,,,,l,0,"[""0.232"",""0.511"",""0.880"",""0.972""]","[1,0,1,1]",0,43,43,43,1,0,1,,,0,FALSE,2.182,,,,,,,,,,,,,,,,,,,,,,,,,,,,,,
,SAB,001,2022-04-28_19h09.30.011,classification_task,2021.2.3,Win32,48.02843283,61073a8e6fae58a66dd57b39,626b377229c10585ec392f8a,626b3a9c2edf5519eafbdf28,,,,,,,,,,,,,,,,,,,,,,,a,1,"[""0.312"",""0.417"",""0.846"",""0.529""]","[1,1,1,0]",0,44,44,44,1,0,0,,,0,FALSE,0.9876,,,,,,,,,,,,,,,,,,,,,,,,,,,,,,
,SAB,001,2022-04-28_19h09.30.011,classification_task,2021.2.3,Win32,48.02843283,61073a8e6fae58a66dd57b39,626b377229c10585ec392f8a,626b3a9c2edf5519eafbdf28,,,,,,,,,,,,,,,,,,,,,,,l,1,"[""0.595"",""0.097"",""0.650"",""0.729""]","[0,1,1,1]",0,45,45,45,1,1,0,,,0,FALSE,0.7219,,,,,,,,,,,,,,,,,,,,,,,,,,,,,,
,SAB,001,2022-04-28_19h09.30.011,classification_task,2021.2.3,Win32,48.02843283,61073a8e6fae58a66dd57b39,626b377229c10585ec392f8a,626b3a9c2edf5519eafbdf28,,,,,,,,,,,,,,,,,,,,,,,a,0,"[""0.146"",""0.685"",""0.455"",""0.776""]","[1,0,1,1]",0,46,46,46,1,1,1,,,0,FALSE,1.8179,,,,,,,,,,,,,,,,,,,,,,,,,,,,,,
,SAB,001,2022-04-28_19h09.30.011,classification_task,2021.2.3,Win32,48.02843283,61073a8e6fae58a66dd57b39,626b377229c10585ec392f8a,626b3a9c2edf5519eafbdf28,,,,,,,,,,,,,,,,,,,,,,,l,1,"[""0.146"",""0.273"",""0.542"",""0.776""]","[1,1,0,1]",0,47,47,47,1,1,1,,,0,FALSE,0.955,,,,,,,,,,,,,,,,,,,,,,,,,,,,,,
,SAB,001,2022-04-28_19h09.30.011,classification_task,2021.2.3,Win32,48.02843283,61073a8e6fae58a66dd57b39,626b377229c10585ec392f8a,626b3a9c2edf5519eafbdf28,,,,,,,,,,,,,,,,,,,,,,,a,1,"[""0.528"",""0.417"",""0.846"",""0.919""]","[0,1,1,1]",0,48,48,48,1,0,0,,,0,FALSE,1.4081,,,,,,,,,,,,,,,,,,,,,,,,,,,,,,
,SAB,001,2022-04-28_19h09.30.011,classification_task,2021.2.3,Win32,48.02843283,61073a8e6fae58a66dd57b39,626b377229c10585ec392f8a,626b3a9c2edf5519eafbdf28,,,,,,,,,,,,,,,,,,,,,,,l,1,"[""0.146"",""0.273"",""0.598"",""0.776""]","[1,1,0,1]",0,49,49,49,1,1,1,,,0,FALSE,2.2266,,,,,,,,,,,,,,,,,,,,,,,,,,,,,,
,SAB,001,2022-04-28_19h09.30.011,classification_task,2021.2.3,Win32,48.02843283,61073a8e6fae58a66dd57b39,626b377229c10585ec392f8a,626b3a9c2edf5519eafbdf28,,,,,,,,,,,,,,,,,,,,,,,l,1,"[""0.146"",""0.273"",""0.455"",""0.533""]","[1,1,1,0]",0,50,50,50,1,1,1,,,0,FALSE,1.0623,,,,,,,,,,,,,,,,,,,,,,,,,,,,,,
,SAB,001,2022-04-28_19h09.30.011,classification_task,2021.2.3,Win32,48.02843283,61073a8e6fae58a66dd57b39,626b377229c10585ec392f8a,626b3a9c2edf5519eafbdf28,,,,,,,,,,,,,,,,,,,,,,,l,1,"[""0.598"",""0.097"",""0.650"",""0.729""]","[0,1,1,1]",0,51,51,51,1,1,0,,,0,FALSE,1.9131,,,,,,,,,,,,,,,,,,,,,,,,,,,,,,
,SAB,001,2022-04-28_19h09.30.011,classification_task,2021.2.3,Win32,48.02843283,61073a8e6fae58a66dd57b39,626b377229c10585ec392f8a,626b3a9c2edf5519eafbdf28,,,,,,,,,,,,,,,,,,,,,,,a,0,"[""0.595"",""0.273"",""0.455"",""0.776""]","[0,1,1,1]",0,52,52,52,1,1,1,,,0,FALSE,1.6743,,,,,,,,,,,,,,,,,,,,,,,,,,,,,,
,SAB,001,2022-04-28_19h09.30.011,classification_task,2021.2.3,Win32,48.02843283,61073a8e6fae58a66dd57b39,626b377229c10585ec392f8a,626b3a9c2edf5519eafbdf28,,,,,,,,,,,,,,,,,,,,,,,a,1,"[""0.312"",""0.686"",""0.846"",""0.919""]","[1,0,1,1]",0,53,53,53,1,0,0,,,0,FALSE,1.2233,,,,,,,,,,,,,,,,,,,,,,,,,,,,,,
,SAB,001,2022-04-28_19h09.30.011,classification_task,2021.2.3,Win32,48.02843283,61073a8e6fae58a66dd57b39,626b377229c10585ec392f8a,626b3a9c2edf5519eafbdf28,,,,,,,,,,,,,,,,,,,,,,,a,1,"[""0.312"",""0.417"",""0.528"",""0.919""]","[1,1,0,1]",0,54,54,54,1,0,0,,,0,FALSE,0.9163,,,,,,,,,,,,,,,,,,,,,,,,,,,,,,
,SAB,001,2022-04-28_19h09.30.011,classification_task,2021.2.3,Win32,48.02843283,61073a8e6fae58a66dd57b39,626b377229c10585ec392f8a,626b3a9c2edf5519eafbdf28,,,,,,,,,,,,,,,,,,,,,,,l,0,"[""0.232"",""0.563"",""0.880"",""0.972""]","[1,0,1,1]",0,55,55,55,1,0,1,,,0,FALSE,1.7736,,,,,,,,,,,,,,,,,,,,,,,,,,,,,,
,SAB,001,2022-04-28_19h09.30.011,classification_task,2021.2.3,Win32,48.02843283,61073a8e6fae58a66dd57b39,626b377229c10585ec392f8a,626b3a9c2edf5519eafbdf28,,,,,,,,,,,,,,,,,,,,,,,l,1,"[""0.044"",""0.511"",""0.650"",""0.729""]","[1,0,1,1]",0,56,56,56,1,1,0,,,0,FALSE,1.129,,,,,,,,,,,,,,,,,,,,,,,,,,,,,,
,SAB,001,2022-04-28_19h09.30.011,classification_task,2021.2.3,Win32,48.02843283,61073a8e6fae58a66dd57b39,626b377229c10585ec392f8a,626b3a9c2edf5519eafbdf28,,,,,,,,,,,,,,,,,,,,,,,l,0,"[""0.232"",""0.371"",""0.569"",""0.972""]","[1,1,0,1]",0,57,57,57,1,0,1,,,0,FALSE,1.4985,,,,,,,,,,,,,,,,,,,,,,,,,,,,,,
,SAB,001,2022-04-28_19h09.30.011,classification_task,2021.2.3,Win32,48.02843283,61073a8e6fae58a66dd57b39,626b377229c10585ec392f8a,626b3a9c2edf5519eafbdf28,,,,,,,,,,,,,,,,,,,,,,,a,1,"[""0.232"",""0.371"",""0.880"",""0.529""]","[1,1,1,0]",0,58,58,58,1,0,1,,,0,FALSE,1.4774,,,,,,,,,,,,,,,,,,,,,,,,,,,,,,
,SAB,001,2022-04-28_19h09.30.011,classification_task,2021.2.3,Win32,48.02843283,61073a8e6fae58a66dd57b39,626b377229c10585ec392f8a,626b3a9c2edf5519eafbdf28,,,,,,,,,,,,,,,,,,,,,,,l,1,"[""0.044"",""0.097"",""0.650"",""0.528""]","[1,1,1,0]",0,59,59,59,1,1,0,,,0,FALSE,1.0986,,,,,,,,,,,,,,,,,,,,,,,,,,,,,,
,SAB,001,2022-04-28_19h09.30.011,classification_task,2021.2.3,Win32,48.02843283,61073a8e6fae58a66dd57b39,626b377229c10585ec392f8a,626b3a9c2edf5519eafbdf28,,,,,,,,,,,,,,,,,,,,,,,l,0,"[""0.579"",""0.371"",""0.880"",""0.972""]","[0,1,1,1]",0,60,60,60,1,0,1,,,0,FALSE,2.4999,,,,,,,,,,,,,,,,,,,,,,,,,,,,,,
,SAB,001,2022-04-28_19h09.30.011,classification_task,2021.2.3,Win32,48.02843283,61073a8e6fae58a66dd57b39,626b377229c10585ec392f8a,626b3a9c2edf5519eafbdf28,,,,,,,,,,,,,,,,,,,,,,,a,1,"[""0.312"",""0.417"",""0.846"",""0.595""]","[1,1,1,0]",0,61,61,61,1,0,0,,,0,FALSE,0.8357,,,,,,,,,,,,,,,,,,,,,,,,,,,,,,
,SAB,001,2022-04-28_19h09.30.011,classification_task,2021.2.3,Win32,48.02843283,61073a8e6fae58a66dd57b39,626b377229c10585ec392f8a,626b3a9c2edf5519eafbdf28,,,,,,,,,,,,,,,,,,,,,,,l,1,"[""0.146"",""0.579"",""0.455"",""0.776""]","[1,0,1,1]",0,62,62,62,1,1,1,,,0,FALSE,1.9832,,,,,,,,,,,,,,,,,,,,,,,,,,,,,,
,SAB,001,2022-04-28_19h09.30.011,classification_task,2021.2.3,Win32,48.02843283,61073a8e6fae58a66dd57b39,626b377229c10585ec392f8a,626b3a9c2edf5519eafbdf28,,,,,,,,,,,,,,,,,,,,,,,l,1,"[""0.044"",""0.097"",""0.685"",""0.729""]","[1,1,0,1]",0,63,63,63,1,1,0,,,0,FALSE,1.6349,,,,,,,,,,,,,,,,,,,,,,,,,,,,,,
,SAB,001,2022-04-28_19h09.30.011,classification_task,2021.2.3,Win32,48.02843283,61073a8e6fae58a66dd57b39,626b377229c10585ec392f8a,626b3a9c2edf5519eafbdf28,,,,,,,,,,,,,,,,,,,,,,,,,,,,,,,,,,,,,,,0, ,,0,1.029293391,171.5805,0,1,1,1,1,2,2,,,,,,,,,,,,,,,,,
,SAB,001,2022-04-28_19h09.30.011,classification_task,2021.2.3,Win32,48.02843283,61073a8e6fae58a66dd57b39,626b377229c10585ec392f8a,626b3a9c2edf5519eafbdf28,,,,,,,,,,,,,,,,,,,,,,,,,,,,,,,,,,,,,,,1,  ,,0,3.049448983,174.3324,0,1,1,1,1,2,2,,,,,,,,,,,,,,,,,
,SAB,001,2022-04-28_19h09.30.011,classification_task,2021.2.3,Win32,48.02843283,61073a8e6fae58a66dd57b39,626b377229c10585ec392f8a,626b3a9c2edf5519eafbdf28,,,,,,,,,,,,,,,,,,,,,,,,,,,,,,,,,,,,,,,2,  ,,0,6.416376395,177.1223,0,1,1,1,1,2,2,,,,,,,,,,,,,,,,,
,SAB,001,2022-04-28_19h09.30.011,classification_task,2021.2.3,Win32,48.02843283,61073a8e6fae58a66dd57b39,626b377229c10585ec392f8a,626b3a9c2edf5519eafbdf28,,,,,,,,,,,,,,,,,,,,,,,,,,,,,,,,,,,,,,,,,,,,,0,1,1,1,1,,2,,,,,,,,,,,,,,,,,
,SAB,001,2022-04-28_19h09.30.011,classification_task,2021.2.3,Win32,48.02843283,61073a8e6fae58a66dd57b39,626b377229c10585ec392f8a,626b3a9c2edf5519eafbdf28,,,,,,,,,,,,,,,,,,,,,space,6.1142,l,0,"[""0.312"",""0.417"",""0.686"",""0.919""]","[1,1,0,1]",0,0,0,0,1,0,0,,,0,FALSE,2.09,,,,,,,,,,,,,,,,,,,,,,,,,,,,,,
,SAB,001,2022-04-28_19h09.30.011,classification_task,2021.2.3,Win32,48.02843283,61073a8e6fae58a66dd57b39,626b377229c10585ec392f8a,626b3a9c2edf5519eafbdf28,,,,,,,,,,,,,,,,,,,,,,,l,0,"[""0.232"",""0.371"",""0.529"",""0.972""]","[1,1,0,1]",0,1,1,1,1,0,1,,,0,FALSE,2.9922,,,,,,,,,,,,,,,,,,,,,,,,,,,,,,
,SAB,001,2022-04-28_19h09.30.011,classification_task,2021.2.3,Win32,48.02843283,61073a8e6fae58a66dd57b39,626b377229c10585ec392f8a,626b3a9c2edf5519eafbdf28,,,,,,,,,,,,,,,,,,,,,,,l,1,"[""0.044"",""0.598"",""0.650"",""0.729""]","[1,0,1,1]",0,2,2,2,1,1,0,,,0,FALSE,2.5357,,,,,,,,,,,,,,,,,,,,,,,,,,,,,,
,SAB,001,2022-04-28_19h09.30.011,classification_task,2021.2.3,Win32,48.02843283,61073a8e6fae58a66dd57b39,626b377229c10585ec392f8a,626b3a9c2edf5519eafbdf28,,,,,,,,,,,,,,,,,,,,,,,a,1,"[""0.312"",""0.511"",""0.846"",""0.919""]","[1,0,1,1]",0,3,3,3,1,0,0,,,0,FALSE,1.723,,,,,,,,,,,,,,,,,,,,,,,,,,,,,,
,SAB,001,2022-04-28_19h09.30.011,classification_task,2021.2.3,Win32,48.02843283,61073a8e6fae58a66dd57b39,626b377229c10585ec392f8a,626b3a9c2edf5519eafbdf28,,,,,,,,,,,,,,,,,,,,,,,l,1,"[""0.528"",""0.097"",""0.650"",""0.729""]","[0,1,1,1]",0,4,4,4,1,1,0,,,0,FALSE,2.2715,,,,,,,,,,,,,,,,,,,,,,,,,,,,,,
,SAB,001,2022-04-28_19h09.30.011,classification_task,2021.2.3,Win32,48.02843283,61073a8e6fae58a66dd57b39,626b377229c10585ec392f8a,626b3a9c2edf5519eafbdf28,,,,,,,,,,,,,,,,,,,,,,,l,1,"[""0.146"",""0.616"",""0.455"",""0.776""]","[1,0,1,1]",0,5,5,5,1,1,1,,,0,FALSE,3.328,,,,,,,,,,,,,,,,,,,,,,,,,,,,,,
,SAB,001,2022-04-28_19h09.30.011,classification_task,2021.2.3,Win32,48.02843283,61073a8e6fae58a66dd57b39,626b377229c10585ec392f8a,626b3a9c2edf5519eafbdf28,,,,,,,,,,,,,,,,,,,,,,,a,1,"[""0.563"",""0.371"",""0.880"",""0.972""]","[0,1,1,1]",0,6,6,6,1,0,1,,,0,FALSE,1.5773,,,,,,,,,,,,,,,,,,,,,,,,,,,,,,
,SAB,001,2022-04-28_19h09.30.011,classification_task,2021.2.3,Win32,48.02843283,61073a8e6fae58a66dd57b39,626b377229c10585ec392f8a,626b3a9c2edf5519eafbdf28,,,,,,,,,,,,,,,,,,,,,,,a,0,"[""0.146"",""0.273"",""0.455"",""0.686""]","[1,1,1,0]",0,7,7,7,1,1,1,,,0,FALSE,1.7236,,,,,,,,,,,,,,,,,,,,,,,,,,,,,,
,SAB,001,2022-04-28_19h09.30.011,classification_task,2021.2.3,Win32,48.02843283,61073a8e6fae58a66dd57b39,626b377229c10585ec392f8a,626b3a9c2edf5519eafbdf28,,,,,,,,,,,,,,,,,,,,,,,l,1,"[""0.044"",""0.097"",""0.511"",""0.729""]","[1,1,0,1]",0,8,8,8,1,1,0,,,0,FALSE,1.8732,,,,,,,,,,,,,,,,,,,,,,,,,,,,,,
,SAB,001,2022-04-28_19h09.30.011,classification_task,2021.2.3,Win32,48.02843283,61073a8e6fae58a66dd57b39,626b377229c10585ec392f8a,626b3a9c2edf5519eafbdf28,,,,,,,,,,,,,,,,,,,,,,,a,1,"[""0.232"",""0.542"",""0.880"",""0.972""]","[1,0,1,1]",0,9,9,9,1,0,1,,,0,FALSE,2.2222,,,,,,,,,,,,,,,,,,,,,,,,,,,,,,
,SAB,001,2022-04-28_19h09.30.011,classification_task,2021.2.3,Win32,48.02843283,61073a8e6fae58a66dd57b39,626b377229c10585ec392f8a,626b3a9c2edf5519eafbdf28,,,,,,,,,,,,,,,,,,,,,,,l,1,"[""0.146"",""0.273"",""0.569"",""0.776""]","[1,1,0,1]",0,10,10,10,1,1,1,,,0,FALSE,2.1035,,,,,,,,,,,,,,,,,,,,,,,,,,,,,,
,SAB,001,2022-04-28_19h09.30.011,classification_task,2021.2.3,Win32,48.02843283,61073a8e6fae58a66dd57b39,626b377229c10585ec392f8a,626b3a9c2edf5519eafbdf28,,,,,,,,,,,,,,,,,,,,,,,l,0,"[""0.232"",""0.371"",""0.880"",""0.579""]","[1,1,1,0]",0,11,11,11,1,0,1,,,0,FALSE,2.7684,,,,,,,,,,,,,,,,,,,,,,,,,,,,,,
,SAB,001,2022-04-28_19h09.30.011,classification_task,2021.2.3,Win32,48.02843283,61073a8e6fae58a66dd57b39,626b377229c10585ec392f8a,626b3a9c2edf5519eafbdf28,,,,,,,,,,,,,,,,,,,,,,,a,1,"[""0.312"",""0.417"",""0.846"",""0.572""]","[1,1,1,0]",0,12,12,12,1,0,0,,,0,FALSE,1.1633,,,,,,,,,,,,,,,,,,,,,,,,,,,,,,
,SAB,001,2022-04-28_19h09.30.011,classification_task,2021.2.3,Win32,48.02843283,61073a8e6fae58a66dd57b39,626b377229c10585ec392f8a,626b3a9c2edf5519eafbdf28,,,,,,,,,,,,,,,,,,,,,,,l,1,"[""0.529"",""0.273"",""0.455"",""0.776""]","[0,1,1,1]",0,13,13,13,1,1,1,,,0,FALSE,1.7024,,,,,,,,,,,,,,,,,,,,,,,,,,,,,,
,SAB,001,2022-04-28_19h09.30.011,classification_task,2021.2.3,Win32,48.02843283,61073a8e6fae58a66dd57b39,626b377229c10585ec392f8a,626b3a9c2edf5519eafbdf28,,,,,,,,,,,,,,,,,,,,,,,l,0,"[""0.616"",""0.417"",""0.846"",""0.919""]","[0,1,1,1]",0,14,14,14,1,0,0,,,0,FALSE,2.1539,,,,,,,,,,,,,,,,,,,,,,,,,,,,,,
,SAB,001,2022-04-28_19h09.30.011,classification_task,2021.2.3,Win32,48.02843283,61073a8e6fae58a66dd57b39,626b377229c10585ec392f8a,626b3a9c2edf5519eafbdf28,,,,,,,,,,,,,,,,,,,,,,,l,1,"[""0.044"",""0.097"",""0.650"",""0.606""]","[1,1,1,0]",0,15,15,15,1,1,0,,,0,FALSE,0.9568,,,,,,,,,,,,,,,,,,,,,,,,,,,,,,
,SAB,001,2022-04-28_19h09.30.011,classification_task,2021.2.3,Win32,48.02843283,61073a8e6fae58a66dd57b39,626b377229c10585ec392f8a,626b3a9c2edf5519eafbdf28,,,,,,,,,,,,,,,,,,,,,,,a,0,"[""0.146"",""0.273"",""0.455"",""0.542""]","[1,1,1,0]",0,16,16,16,1,1,1,,,0,FALSE,1.0562,,,,,,,,,,,,,,,,,,,,,,,,,,,,,,
,SAB,001,2022-04-28_19h09.30.011,classification_task,2021.2.3,Win32,48.02843283,61073a8e6fae58a66dd57b39,626b377229c10585ec392f8a,626b3a9c2edf5519eafbdf28,,,,,,,,,,,,,,,,,,,,,,,a,0,"[""0.146"",""0.528"",""0.455"",""0.776""]","[1,0,1,1]",0,17,17,17,1,1,1,,,0,FALSE,0.7715,,,,,,,,,,,,,,,,,,,,,,,,,,,,,,
,SAB,001,2022-04-28_19h09.30.011,classification_task,2021.2.3,Win32,48.02843283,61073a8e6fae58a66dd57b39,626b377229c10585ec392f8a,626b3a9c2edf5519eafbdf28,,,,,,,,,,,,,,,,,,,,,,,l,1,"[""0.044"",""0.097"",""0.579"",""0.729""]","[1,1,0,1]",0,18,18,18,1,1,0,,,0,FALSE,1.4143,,,,,,,,,,,,,,,,,,,,,,,,,,,,,,
,SAB,001,2022-04-28_19h09.30.011,classification_task,2021.2.3,Win32,48.02843283,61073a8e6fae58a66dd57b39,626b377229c10585ec392f8a,626b3a9c2edf5519eafbdf28,,,,,,,,,,,,,,,,,,,,,,,l,0,"[""0.312"",""0.417"",""0.598"",""0.919""]","[1,1,0,1]",0,19,19,19,1,0,0,,,0,FALSE,1.2234,,,,,,,,,,,,,,,,,,,,,,,,,,,,,,
,SAB,001,2022-04-28_19h09.30.011,classification_task,2021.2.3,Win32,48.02843283,61073a8e6fae58a66dd57b39,626b377229c10585ec392f8a,626b3a9c2edf5519eafbdf28,,,,,,,,,,,,,,,,,,,,,,,a,1,"[""0.616"",""0.371"",""0.880"",""0.972""]","[0,1,1,1]",0,20,20,20,1,0,1,,,0,FALSE,2.7095,,,,,,,,,,,,,,,,,,,,,,,,,,,,,,
,SAB,001,2022-04-28_19h09.30.011,classification_task,2021.2.3,Win32,48.02843283,61073a8e6fae58a66dd57b39,626b377229c10585ec392f8a,626b3a9c2edf5519eafbdf28,,,,,,,,,,,,,,,,,,,,,,,a,1,"[""0.312"",""0.529"",""0.846"",""0.919""]","[1,0,1,1]",0,21,21,21,1,0,0,,,0,FALSE,1.2851,,,,,,,,,,,,,,,,,,,,,,,,,,,,,,
,SAB,001,2022-04-28_19h09.30.011,classification_task,2021.2.3,Win32,48.02843283,61073a8e6fae58a66dd57b39,626b377229c10585ec392f8a,626b3a9c2edf5519eafbdf28,,,,,,,,,,,,,,,,,,,,,,,l,0,"[""0.528"",""0.417"",""0.846"",""0.919""]","[0,1,1,1]",0,22,22,22,1,0,0,,,0,FALSE,0.7703,,,,,,,,,,,,,,,,,,,,,,,,,,,,,,
,SAB,001,2022-04-28_19h09.30.011,classification_task,2021.2.3,Win32,48.02843283,61073a8e6fae58a66dd57b39,626b377229c10585ec392f8a,626b3a9c2edf5519eafbdf28,,,,,,,,,,,,,,,,,,,,,,,l,1,"[""0.044"",""0.569"",""0.650"",""0.729""]","[1,0,1,1]",0,23,23,23,1,1,0,,,0,FALSE,2.2278,,,,,,,,,,,,,,,,,,,,,,,,,,,,,,
,SAB,001,2022-04-28_19h09.30.011,classification_task,2021.2.3,Win32,48.02843283,61073a8e6fae58a66dd57b39,626b377229c10585ec392f8a,626b3a9c2edf5519eafbdf28,,,,,,,,,,,,,,,,,,,,,,,a,1,"[""0.232"",""0.371"",""0.616"",""0.972""]","[1,1,0,1]",0,24,24,24,1,0,1,,,0,FALSE,2.3183,,,,,,,,,,,,,,,,,,,,,,,,,,,,,,
,SAB,001,2022-04-28_19h09.30.011,classification_task,2021.2.3,Win32,48.02843283,61073a8e6fae58a66dd57b39,626b377229c10585ec392f8a,626b3a9c2edf5519eafbdf28,,,,,,,,,,,,,,,,,,,,,,,a,1,"[""0.232"",""0.371"",""0.880"",""0.569""]","[1,1,1,0]",0,25,25,25,1,0,1,,,0,FALSE,1.3493,,,,,,,,,,,,,,,,,,,,,,,,,,,,,,
,SAB,001,2022-04-28_19h09.30.011,classification_task,2021.2.3,Win32,48.02843283,61073a8e6fae58a66dd57b39,626b377229c10585ec392f8a,626b3a9c2edf5519eafbdf28,,,,,,,,,,,,,,,,,,,,,,,l,0,"[""0.312"",""0.417"",""0.846"",""0.598""]","[1,1,1,0]",0,26,26,26,1,0,0,,,0,FALSE,0.8164,,,,,,,,,,,,,,,,,,,,,,,,,,,,,,
,SAB,001,2022-04-28_19h09.30.011,classification_task,2021.2.3,Win32,48.02843283,61073a8e6fae58a66dd57b39,626b377229c10585ec392f8a,626b3a9c2edf5519eafbdf28,,,,,,,,,,,,,,,,,,,,,,,l,0,"[""0.232"",""0.606"",""0.880"",""0.972""]","[1,0,1,1]",0,27,27,27,1,0,1,,,0,FALSE,1.2514,,,,,,,,,,,,,,,,,,,,,,,,,,,,,,
,SAB,001,2022-04-28_19h09.30.011,classification_task,2021.2.3,Win32,48.02843283,61073a8e6fae58a66dd57b39,626b377229c10585ec392f8a,626b3a9c2edf5519eafbdf28,,,,,,,,,,,,,,,,,,,,,,,l,1,"[""0.511"",""0.273"",""0.455"",""0.776""]","[0,1,1,1]",0,28,28,28,1,1,1,,,0,FALSE,2.4994,,,,,,,,,,,,,,,,,,,,,,,,,,,,,,
,SAB,001,2022-04-28_19h09.30.011,classification_task,2021.2.3,Win32,48.02843283,61073a8e6fae58a66dd57b39,626b377229c10585ec392f8a,626b3a9c2edf5519eafbdf28,,,,,,,,,,,,,,,,,,,,,,,a,0,"[""0.044"",""0.097"",""0.650"",""0.529""]","[1,1,1,0]",0,29,29,29,1,1,0,,,0,FALSE,1.0196,,,,,,,,,,,,,,,,,,,,,,,,,,,,,,
,SAB,001,2022-04-28_19h09.30.011,classification_task,2021.2.3,Win32,48.02843283,61073a8e6fae58a66dd57b39,626b377229c10585ec392f8a,626b3a9c2edf5519eafbdf28,,,,,,,,,,,,,,,,,,,,,,,a,0,"[""0.146"",""0.273"",""0.579"",""0.776""]","[1,1,0,1]",0,30,30,30,1,1,1,,,0,FALSE,0.8131,,,,,,,,,,,,,,,,,,,,,,,,,,,,,,
,SAB,001,2022-04-28_19h09.30.011,classification_task,2021.2.3,Win32,48.02843283,61073a8e6fae58a66dd57b39,626b377229c10585ec392f8a,626b3a9c2edf5519eafbdf28,,,,,,,,,,,,,,,,,,,,,,,l,1,"[""0.511"",""0.097"",""0.650"",""0.729""]","[0,1,1,1]",0,31,31,31,1,1,0,,,0,FALSE,1.3049,,,,,,,,,,,,,,,,,,,,,,,,,,,,,,
,SAB,001,2022-04-28_19h09.30.011,classification_task,2021.2.3,Win32,48.02843283,61073a8e6fae58a66dd57b39,626b377229c10585ec392f8a,626b3a9c2edf5519eafbdf28,,,,,,,,,,,,,,,,,,,,,,,a,1,"[""0.232"",""0.371"",""0.685"",""0.972""]","[1,1,0,1]",0,32,32,32,1,0,1,,,0,FALSE,1.416,,,,,,,,,,,,,,,,,,,,,,,,,,,,,,
,SAB,001,2022-04-28_19h09.30.011,classification_task,2021.2.3,Win32,48.02843283,61073a8e6fae58a66dd57b39,626b377229c10585ec392f8a,626b3a9c2edf5519eafbdf28,,,,,,,,,,,,,,,,,,,,,,,l,0,"[""0.312"",""0.572"",""0.846"",""0.919""]","[1,0,1,1]",0,33,33,33,1,0,0,,,0,FALSE,0.9175,,,,,,,,,,,,,,,,,,,,,,,,,,,,,,
,SAB,001,2022-04-28_19h09.30.011,classification_task,2021.2.3,Win32,48.02843283,61073a8e6fae58a66dd57b39,626b377229c10585ec392f8a,626b3a9c2edf5519eafbdf28,,,,,,,,,,,,,,,,,,,,,,,l,0,"[""0.232"",""0.529"",""0.880"",""0.972""]","[1,0,1,1]",0,34,34,34,1,0,1,,,0,FALSE,1.5819,,,,,,,,,,,,,,,,,,,,,,,,,,,,,,
,SAB,001,2022-04-28_19h09.30.011,classification_task,2021.2.3,Win32,48.02843283,61073a8e6fae58a66dd57b39,626b377229c10585ec392f8a,626b3a9c2edf5519eafbdf28,,,,,,,,,,,,,,,,,,,,,,,l,1,"[""0.542"",""0.273"",""0.455"",""0.776""]","[0,1,1,1]",0,35,35,35,1,1,1,,,0,FALSE,1.5585,,,,,,,,,,,,,,,,,,,,,,,,,,,,,,
,SAB,001,2022-04-28_19h09.30.011,classification_task,2021.2.3,Win32,48.02843283,61073a8e6fae58a66dd57b39,626b377229c10585ec392f8a,626b3a9c2edf5519eafbdf28,,,,,,,,,,,,,,,,,,,,,,,l,0,"[""0.598"",""0.371"",""0.880"",""0.972""]","[0,1,1,1]",0,36,36,36,1,0,1,,,0,FALSE,1.8213,,,,,,,,,,,,,,,,,,,,,,,,,,,,,,
,SAB,001,2022-04-28_19h09.30.011,classification_task,2021.2.3,Win32,48.02843283,61073a8e6fae58a66dd57b39,626b377229c10585ec392f8a,626b3a9c2edf5519eafbdf28,,,,,,,,,,,,,,,,,,,,,,,a,1,"[""0.511"",""0.417"",""0.846"",""0.919""]","[0,1,1,1]",0,37,37,37,1,0,0,,,0,FALSE,0.9043,,,,,,,,,,,,,,,,,,,,,,,,,,,,,,
,SAB,001,2022-04-28_19h09.30.011,classification_task,2021.2.3,Win32,48.02843283,61073a8e6fae58a66dd57b39,626b377229c10585ec392f8a,626b3a9c2edf5519eafbdf28,,,,,,,,,,,,,,,,,,,,,,,a,1,"[""0.312"",""0.417"",""0.846"",""0.595""]","[1,1,1,0]",0,38,38,38,1,0,0,,,0,FALSE,1.3302,,,,,,,,,,,,,,,,,,,,,,,,,,,,,,
,SAB,001,2022-04-28_19h09.30.011,classification_task,2021.2.3,Win32,48.02843283,61073a8e6fae58a66dd57b39,626b377229c10585ec392f8a,626b3a9c2edf5519eafbdf28,,,,,,,,,,,,,,,,,,,,,,,l,1,"[""0.044"",""0.097"",""0.650"",""0.542""]","[1,1,1,0]",0,39,39,39,1,1,0,,,0,FALSE,2.3946,,,,,,,,,,,,,,,,,,,,,,,,,,,,,,
,SAB,001,2022-04-28_19h09.30.011,classification_task,2021.2.3,Win32,48.02843283,61073a8e6fae58a66dd57b39,626b377229c10585ec392f8a,626b3a9c2edf5519eafbdf28,,,,,,,,,,,,,,,,,,,,,,,a,0,"[""0.146"",""0.273"",""0.533"",""0.776""]","[1,1,0,1]",0,40,40,40,1,1,1,,,0,FALSE,1.4096,,,,,,,,,,,,,,,,,,,,,,,,,,,,,,
,SAB,001,2022-04-28_19h09.30.011,classification_task,2021.2.3,Win32,48.02843283,61073a8e6fae58a66dd57b39,626b377229c10585ec392f8a,626b3a9c2edf5519eafbdf28,,,,,,,,,,,,,,,,,,,,,,,l,0,"[""0.312"",""0.417"",""0.606"",""0.919""]","[1,1,0,1]",0,41,41,41,1,0,0,,,0,FALSE,1.7289,,,,,,,,,,,,,,,,,,,,,,,,,,,,,,
,SAB,001,2022-04-28_19h09.30.011,classification_task,2021.2.3,Win32,48.02843283,61073a8e6fae58a66dd57b39,626b377229c10585ec392f8a,626b3a9c2edf5519eafbdf28,,,,,,,,,,,,,,,,,,,,,,,a,1,"[""0.232"",""0.371"",""0.880"",""0.529""]","[1,1,1,0]",0,42,42,42,1,0,1,,,0,FALSE,1.457,,,,,,,,,,,,,,,,,,,,,,,,,,,,,,
,SAB,001,2022-04-28_19h09.30.011,classification_task,2021.2.3,Win32,48.02843283,61073a8e6fae58a66dd57b39,626b377229c10585ec392f8a,626b3a9c2edf5519eafbdf28,,,,,,,,,,,,,,,,,,,,,,,l,1,"[""0.044"",""0.097"",""0.616"",""0.729""]","[1,1,0,1]",0,43,43,43,1,1,0,,,0,FALSE,2.1553,,,,,,,,,,,,,,,,,,,,,,,,,,,,,,
,SAB,001,2022-04-28_19h09.30.011,classification_task,2021.2.3,Win32,48.02843283,61073a8e6fae58a66dd57b39,626b377229c10585ec392f8a,626b3a9c2edf5519eafbdf28,,,,,,,,,,,,,,,,,,,,,,,l,1,"[""0.146"",""0.533"",""0.455"",""0.776""]","[1,0,1,1]",0,44,44,44,1,1,1,,,0,FALSE,1.6444,,,,,,,,,,,,,,,,,,,,,,,,,,,,,,
,SAB,001,2022-04-28_19h09.30.011,classification_task,2021.2.3,Win32,48.02843283,61073a8e6fae58a66dd57b39,626b377229c10585ec392f8a,626b3a9c2edf5519eafbdf28,,,,,,,,,,,,,,,,,,,,,,,l,1,"[""0.044"",""0.579"",""0.650"",""0.729""]","[1,0,1,1]",0,45,45,45,1,1,0,,,0,FALSE,1.2491,,,,,,,,,,,,,,,,,,,,,,,,,,,,,,
,SAB,001,2022-04-28_19h09.30.011,classification_task,2021.2.3,Win32,48.02843283,61073a8e6fae58a66dd57b39,626b377229c10585ec392f8a,626b3a9c2edf5519eafbdf28,,,,,,,,,,,,,,,,,,,,,,,l,1,"[""0.528"",""0.097"",""0.650"",""0.729""]","[0,1,1,1]",0,46,46,46,1,1,0,,,0,FALSE,0.89,,,,,,,,,,,,,,,,,,,,,,,,,,,,,,
,SAB,001,2022-04-28_19h09.30.011,classification_task,2021.2.3,Win32,48.02843283,61073a8e6fae58a66dd57b39,626b377229c10585ec392f8a,626b3a9c2edf5519eafbdf28,,,,,,,,,,,,,,,,,,,,,,,a,0,"[""0.146"",""0.273"",""0.455"",""0.572""]","[1,1,1,0]",0,47,47,47,1,1,1,,,0,FALSE,2.3107,,,,,,,,,,,,,,,,,,,,,,,,,,,,,,
,SAB,001,2022-04-28_19h09.30.011,classification_task,2021.2.3,Win32,48.02843283,61073a8e6fae58a66dd57b39,626b377229c10585ec392f8a,626b3a9c2edf5519eafbdf28,,,,,,,,,,,,,,,,,,,,,,,a,1,"[""0.312"",""0.417"",""0.511"",""0.919""]","[1,1,0,1]",0,48,48,48,1,0,0,,,0,FALSE,2.0797,,,,,,,,,,,,,,,,,,,,,,,,,,,,,,
,SAB,001,2022-04-28_19h09.30.011,classification_task,2021.2.3,Win32,48.02843283,61073a8e6fae58a66dd57b39,626b377229c10585ec392f8a,626b3a9c2edf5519eafbdf28,,,,,,,,,,,,,,,,,,,,,,,l,0,"[""0.232"",""0.371"",""0.880"",""0.529""]","[1,1,1,0]",0,49,49,49,1,0,1,,,0,FALSE,1.636,,,,,,,,,,,,,,,,,,,,,,,,,,,,,,
,SAB,001,2022-04-28_19h09.30.011,classification_task,2021.2.3,Win32,48.02843283,61073a8e6fae58a66dd57b39,626b377229c10585ec392f8a,626b3a9c2edf5519eafbdf28,,,,,,,,,,,,,,,,,,,,,,,l,0,"[""0.533"",""0.371"",""0.880"",""0.972""]","[0,1,1,1]",0,50,50,50,1,0,1,,,0,FALSE,1.2289,,,,,,,,,,,,,,,,,,,,,,,,,,,,,,
,SAB,001,2022-04-28_19h09.30.011,classification_task,2021.2.3,Win32,48.02843283,61073a8e6fae58a66dd57b39,626b377229c10585ec392f8a,626b3a9c2edf5519eafbdf28,,,,,,,,,,,,,,,,,,,,,,,a,0,"[""0.146"",""0.273"",""0.455"",""0.616""]","[1,1,1,0]",0,51,51,51,1,1,1,,,0,FALSE,1.5359,,,,,,,,,,,,,,,,,,,,,,,,,,,,,,
,SAB,001,2022-04-28_19h09.30.011,classification_task,2021.2.3,Win32,48.02843283,61073a8e6fae58a66dd57b39,626b377229c10585ec392f8a,626b3a9c2edf5519eafbdf28,,,,,,,,,,,,,,,,,,,,,,,l,1,"[""0.146"",""0.273"",""0.529"",""0.776""]","[1,1,0,1]",0,52,52,52,1,1,1,,,0,FALSE,1.3687,,,,,,,,,,,,,,,,,,,,,,,,,,,,,,
,SAB,001,2022-04-28_19h09.30.011,classification_task,2021.2.3,Win32,48.02843283,61073a8e6fae58a66dd57b39,626b377229c10585ec392f8a,626b3a9c2edf5519eafbdf28,,,,,,,,,,,,,,,,,,,,,,,l,1,"[""0.598"",""0.273"",""0.455"",""0.776""]","[0,1,1,1]",0,53,53,53,1,1,1,,,0,FALSE,2.0396,,,,,,,,,,,,,,,,,,,,,,,,,,,,,,
,SAB,001,2022-04-28_19h09.30.011,classification_task,2021.2.3,Win32,48.02843283,61073a8e6fae58a66dd57b39,626b377229c10585ec392f8a,626b3a9c2edf5519eafbdf28,,,,,,,,,,,,,,,,,,,,,,,l,1,"[""0.044"",""0.097"",""0.650"",""0.606""]","[1,1,1,0]",0,54,54,54,1,1,0,,,0,FALSE,2.2689,,,,,,,,,,,,,,,,,,,,,,,,,,,,,,
,SAB,001,2022-04-28_19h09.30.011,classification_task,2021.2.3,Win32,48.02843283,61073a8e6fae58a66dd57b39,626b377229c10585ec392f8a,626b3a9c2edf5519eafbdf28,,,,,,,,,,,,,,,,,,,,,,,a,1,"[""0.595"",""0.417"",""0.846"",""0.919""]","[0,1,1,1]",0,55,55,55,1,0,0,,,0,FALSE,1.5725,,,,,,,,,,,,,,,,,,,,,,,,,,,,,,
,SAB,001,2022-04-28_19h09.30.011,classification_task,2021.2.3,Win32,48.02843283,61073a8e6fae58a66dd57b39,626b377229c10585ec392f8a,626b3a9c2edf5519eafbdf28,,,,,,,,,,,,,,,,,,,,,,,l,1,"[""0.533"",""0.097"",""0.650"",""0.729""]","[0,1,1,1]",0,56,56,56,1,1,0,,,0,FALSE,1.5021,,,,,,,,,,,,,,,,,,,,,,,,,,,,,,
,SAB,001,2022-04-28_19h09.30.011,classification_task,2021.2.3,Win32,48.02843283,61073a8e6fae58a66dd57b39,626b377229c10585ec392f8a,626b3a9c2edf5519eafbdf28,,,,,,,,,,,,,,,,,,,,,,,l,0,"[""0.312"",""0.417"",""0.846"",""0.528""]","[1,1,1,0]",0,57,57,57,1,0,0,,,0,FALSE,1.0772,,,,,,,,,,,,,,,,,,,,,,,,,,,,,,
,SAB,001,2022-04-28_19h09.30.011,classification_task,2021.2.3,Win32,48.02843283,61073a8e6fae58a66dd57b39,626b377229c10585ec392f8a,626b3a9c2edf5519eafbdf28,,,,,,,,,,,,,,,,,,,,,,,l,1,"[""0.044"",""0.533"",""0.650"",""0.729""]","[1,0,1,1]",0,58,58,58,1,1,0,,,0,FALSE,2.1194,,,,,,,,,,,,,,,,,,,,,,,,,,,,,,
,SAB,001,2022-04-28_19h09.30.011,classification_task,2021.2.3,Win32,48.02843283,61073a8e6fae58a66dd57b39,626b377229c10585ec392f8a,626b3a9c2edf5519eafbdf28,,,,,,,,,,,,,,,,,,,,,,,a,0,"[""0.146"",""0.528"",""0.455"",""0.776""]","[1,0,1,1]",0,59,59,59,1,1,1,,,0,FALSE,1.4341,,,,,,,,,,,,,,,,,,,,,,,,,,,,,,
,SAB,001,2022-04-28_19h09.30.011,classification_task,2021.2.3,Win32,48.02843283,61073a8e6fae58a66dd57b39,626b377229c10585ec392f8a,626b3a9c2edf5519eafbdf28,,,,,,,,,,,,,,,,,,,,,,,a,1,"[""0.232"",""0.371"",""0.533"",""0.972""]","[1,1,0,1]",0,60,60,60,1,0,1,,,0,FALSE,1.9605,,,,,,,,,,,,,,,,,,,,,,,,,,,,,,
,SAB,001,2022-04-28_19h09.30.011,classification_task,2021.2.3,Win32,48.02843283,61073a8e6fae58a66dd57b39,626b377229c10585ec392f8a,626b3a9c2edf5519eafbdf28,,,,,,,,,,,,,,,,,,,,,,,l,0,"[""0.312"",""0.595"",""0.846"",""0.919""]","[1,0,1,1]",0,61,61,61,1,0,0,,,0,FALSE,1.473,,,,,,,,,,,,,,,,,,,,,,,,,,,,,,
,SAB,001,2022-04-28_19h09.30.011,classification_task,2021.2.3,Win32,48.02843283,61073a8e6fae58a66dd57b39,626b377229c10585ec392f8a,626b3a9c2edf5519eafbdf28,,,,,,,,,,,,,,,,,,,,,,,l,0,"[""0.232"",""0.572"",""0.880"",""0.972""]","[1,0,1,1]",0,62,62,62,1,0,1,,,0,FALSE,1.5597,,,,,,,,,,,,,,,,,,,,,,,,,,,,,,
,SAB,001,2022-04-28_19h09.30.011,classification_task,2021.2.3,Win32,48.02843283,61073a8e6fae58a66dd57b39,626b377229c10585ec392f8a,626b3a9c2edf5519eafbdf28,,,,,,,,,,,,,,,,,,,,,,,a,0,"[""0.044"",""0.097"",""0.528"",""0.729""]","[1,1,0,1]",0,63,63,63,1,1,0,,,0,FALSE,0.9805,,,,,,,,,,,,,,,,,,,,,,,,,,,,,,
,SAB,001,2022-04-28_19h09.30.011,classification_task,2021.2.3,Win32,48.02843283,61073a8e6fae58a66dd57b39,626b377229c10585ec392f8a,626b3a9c2edf5519eafbdf28,,,,,,,,,,,,,,,,,,,,,,,,,,,,,,,,,,,,,,,0, ,,0,1.842965804,185.0683,0,2,2,2,1,2,3,,,,,,,,,,,,,,,,,
,SAB,001,2022-04-28_19h09.30.011,classification_task,2021.2.3,Win32,48.02843283,61073a8e6fae58a66dd57b39,626b377229c10585ec392f8a,626b3a9c2edf5519eafbdf28,,,,,,,,,,,,,,,,,,,,,,,,,,,,,,,,,,,,,,,1,  ,,0,3.863123536,186.4212,0,2,2,2,1,2,3,,,,,,,,,,,,,,,,,
,SAB,001,2022-04-28_19h09.30.011,classification_task,2021.2.3,Win32,48.02843283,61073a8e6fae58a66dd57b39,626b377229c10585ec392f8a,626b3a9c2edf5519eafbdf28,,,,,,,,,,,,,,,,,,,,,,,,,,,,,,,,,,,,,,,2,  ,,0,9.699129766,189.3365,0,2,2,2,1,2,3,,,,,,,,,,,,,,,,,
,SAB,001,2022-04-28_19h09.30.011,classification_task,2021.2.3,Win32,48.02843283,61073a8e6fae58a66dd57b39,626b377229c10585ec392f8a,626b3a9c2edf5519eafbdf28,,,,,,,,,,,,,,,,,,,,,,,,,,,,,,,,,,,,,,,,,,,,,0,2,2,2,1,,3,,,,,,,,,,,,,,,,,
,SAB,001,2022-04-28_19h09.30.011,classification_task,2021.2.3,Win32,48.02843283,61073a8e6fae58a66dd57b39,626b377229c10585ec392f8a,626b3a9c2edf5519eafbdf28,,,,,,,,,,,,,,,,,,,,,,,,,,,,,,,,,,,,,,,,,,,,,,,,,,,,,I believe the aid is a competent performer,,0.7,0,5,839.3275,0,0,0,0,1,0,,,,
,SAB,001,2022-04-28_19h09.30.011,classification_task,2021.2.3,Win32,48.02843283,61073a8e6fae58a66dd57b39,626b377229c10585ec392f8a,626b3a9c2edf5519eafbdf28,,,,,,,,,,,,,,,,,,,,,,,,,,,,,,,,,,,,,,,,,,,,,,,,,,,,,I trust the aid,,0.7,0,5,841.9084,0,0,0,0,1,0,,,,
,SAB,001,2022-04-28_19h09.30.011,classification_task,2021.2.3,Win32,48.02843283,61073a8e6fae58a66dd57b39,626b377229c10585ec392f8a,626b3a9c2edf5519eafbdf28,,,,,,,,,,,,,,,,,,,,,,,,,,,,,,,,,,,,,,,,,,,,,,,,,,,,,I have confidence in the advice given by the aid,,0.7,0,5,843.1342,0,0,0,0,1,0,,,,
,SAB,001,2022-04-28_19h09.30.011,classification_task,2021.2.3,Win32,48.02843283,61073a8e6fae58a66dd57b39,626b377229c10585ec392f8a,626b3a9c2edf5519eafbdf28,,,,,,,,,,,,,,,,,,,,,,,,,,,,,,,,,,,,,,,,,,,,,,,,,,,,,I can depend on the aid,,0.7,0,5,844.0056,0,0,0,0,1,0,,,,
,SAB,001,2022-04-28_19h09.30.011,classification_task,2021.2.3,Win32,48.02843283,61073a8e6fae58a66dd57b39,626b377229c10585ec392f8a,626b3a9c2edf5519eafbdf28,,,,,,,,,,,,,,,,,,,,,,,,,,,,,,,,,,,,,,,,,,,,,,,,,,,,,I can rely on the aid to behave in consistent ways,,0.7,0,5,845.9605,0,0,0,0,1,0,,,,
,SAB,001,2022-04-28_19h09.30.011,classification_task,2021.2.3,Win32,48.02843283,61073a8e6fae58a66dd57b39,626b377229c10585ec392f8a,626b3a9c2edf5519eafbdf28,,,,,,,,,,,,,,,,,,,,,,,,,,,,,,,,,,,,,,,,,,,,,,,,,,,,,I can rely on the aid to do its best every time I take its advice,,0.7,0,5,849.1303,0,0,0,0,1,0,,,,
,SAB,001,2022-04-28_19h09.30.011,classification_task,2021.2.3,Win32,48.02843283,61073a8e6fae58a66dd57b39,626b377229c10585ec392f8a,626b3a9c2edf5519eafbdf28,,,,,,,,,,,,,,,,,,,,,,,,,,,,,,,,,,,,,,,,,,,,,,,,,,,,,"On trials you completed with assistance from the aid, how frequently did you think the aid was correct?",,0.7,0,100%,,0,0,0,0,1,0,,,,
,SAB,001,2022-04-28_19h09.30.011,classification_task,2021.2.3,Win32,48.02843283,61073a8e6fae58a66dd57b39,626b377229c10585ec392f8a,626b3a9c2edf5519eafbdf28,,,,,,,,,,,,,,,,,,,,,,,,,,,,,,,,,,,,,,,,,,,,,,,,,,,,,"On trials you completed without the aid, how frequently did you think you were correct?",,0.7,0,55%,,0,0,0,0,1,0,,,,
,SAB,001,2022-04-28_19h09.30.011,classification_task,2021.2.3,Win32,48.02843283,61073a8e6fae58a66dd57b39,626b377229c10585ec392f8a,626b3a9c2edf5519eafbdf28,,,,,,,,,,,,,,,,,,,,,,,,,,,,,,,,,,,,,,,,,,,,,,,,,,,,,,,,,,,0,0,0,0,1,,,,,
,SAB,001,2022-04-28_19h09.30.011,classification_task,2021.2.3,Win32,48.02843283,61073a8e6fae58a66dd57b39,626b377229c10585ec392f8a,626b3a9c2edf5519eafbdf28,,,,,,,,,,,,,,,,,,,,,,,,,,,,,,,,,,,,,,,,,,,,,,,,,,,,,,,,,,,,,,,,,space,7.6735,884.421,
,SAB,001,2022-04-28_19h09.30.011,classification_task,2021.2.3,Win32,48.02843283,61073a8e6fae58a66dd57b39,626b377229c10585ec392f8a,626b3a9c2edf5519eafbdf28,,,,,,,,,,,,,,,,,,,,,,,,,,,,,,,,,,,,,,,,,,,,,,,,,,,,,,,,,,,,,,,,,,,,"Mozilla/5.0 (Windows NT 10.0; Win64; x64) AppleWebKit/537.36 (KHTML, like Gecko) Chrome/99.0.4844.84 Safari/537.36 OPR/85.0.4341.72"
