usingWebGL,participant,session,date,expName,psychopyVersion,OS,frameRate,PROLIFIC_PID,STUDY_ID,SESSION_ID,signatures_friend,signatures_foe,band_ranges_top,band_ranges_bottom,formitemText,formtype,formundefined,formitemWidth,formindex,formresponse,formrt,key_resp_2.keys,key_resp_2.rt,tute_resp.keys,tute_resp.rt,tutorial.thisRepN,tutorial.thisTrialN,tutorial.thisN,tutorial.thisIndex,tutorial.ran,key_resp_4.keys,key_resp_4.rt,key_resp.keys,key_resp.corr,key_resp.rt,lines_presented,is_signal_presented,trials.thisRepN,trials.thisTrialN,trials.thisN,trials.thisIndex,trials.ran,vessel,active_band,lines,is_signal,supported_pos,catch_trial,debrief_formindex,debrief_formitemText,debrief_formtype,debrief_formitemWidth,debrief_formresponse,debrief_formrt,phases.thisRepN,phases.thisTrialN,phases.thisN,phases.thisIndex,phases.ran,phases.order,phase,key_resp_3.keys,trustitemText,trusttype,trustitemWidth,trustindex,trustresponse,trustrt,support_status.thisRepN,support_status.thisTrialN,support_status.thisN,support_status.thisIndex,support_status.ran,support_status.order,key_resp_5.keys,key_resp_5.rt,globalClockTime,userAgent
TRUE,sergio,001,2022-04-29_03h07.35.271,classification_task,2021.2.3,Win32,73.96449704,5f91fcfd4bc991107c2bbd47,626b377229c10585ec392f89,626b38ba6871a29d61042c8b,,,,,,,,,,,,,,,,,,,,,,,,,,,,,,,,,,,,,,,,,,,,,,,,,,,,,,,,,,,,,,,,,,,,
,sergio,001,2022-04-29_03h07.35.271,classification_task,2021.2.3,Win32,73.96449704,5f91fcfd4bc991107c2bbd47,626b377229c10585ec392f89,626b38ba6871a29d61042c8b,"[[""0.214"",""0.354"",""0.844"",""0.941""],[""0.173"",""0.448"",""0.779"",""0.893""]]","[[""0.059"",""0.251"",""0.506"",""0.691""],[""0.130"",""0.303"",""0.569"",""0.738""]]","[1,10]","[100,1000]",Video game experience,,,0.7,0,,,,,,,,,,,,,,,,,,,,,,,,,,,,,,,,,,,,,,,,,,,,,,,,,,,,,,,,,,,
,sergio,001,2022-04-29_03h07.35.271,classification_task,2021.2.3,Win32,73.96449704,5f91fcfd4bc991107c2bbd47,626b377229c10585ec392f89,626b38ba6871a29d61042c8b,,,,,Approximately how many hours did you spend playing video games in the last week?,,,0.7,0,15,,,,,,,,,,,,,,,,,,,,,,,,,,,,,,,,,,,,,,,,,,,,,,,,,,,,,,,,,,
,sergio,001,2022-04-29_03h07.35.271,classification_task,2021.2.3,Win32,73.96449704,5f91fcfd4bc991107c2bbd47,626b377229c10585ec392f89,626b38ba6871a29d61042c8b,,,,,"Which game did you play the most this year? (Enter ""None"" if you didn't play any)",,,0.7,0,counter strike,,,,,,,,,,,,,,,,,,,,,,,,,,,,,,,,,,,,,,,,,,,,,,,,,,,,,,,,,,
,sergio,001,2022-04-29_03h07.35.271,classification_task,2021.2.3,Win32,73.96449704,5f91fcfd4bc991107c2bbd47,626b377229c10585ec392f89,626b38ba6871a29d61042c8b,,,,,Visual perception,,,0.7,0,,,,,,,,,,,,,,,,,,,,,,,,,,,,,,,,,,,,,,,,,,,,,,,,,,,,,,,,,,,
,sergio,001,2022-04-29_03h07.35.271,classification_task,2021.2.3,Win32,73.96449704,5f91fcfd4bc991107c2bbd47,626b377229c10585ec392f89,626b38ba6871a29d61042c8b,,,,,Do you have any form of color blindness?,,,0.7,0,No,19.258,,,,,,,,,,,,,,,,,,,,,,,,,,,,,,,,,,,,,,,,,,,,,,,,,,,,,,,,,
,sergio,001,2022-04-29_03h07.35.271,classification_task,2021.2.3,Win32,73.96449704,5f91fcfd4bc991107c2bbd47,626b377229c10585ec392f89,626b38ba6871a29d61042c8b,,,,,Do you use software to change the colour temperature of your screen (e.g. f.lux)?,,,0.7,0,No,21.638,,,,,,,,,,,,,,,,,,,,,,,,,,,,,,,,,,,,,,,,,,,,,,,,,,,,,,,,,
,sergio,001,2022-04-29_03h07.35.271,classification_task,2021.2.3,Win32,73.96449704,5f91fcfd4bc991107c2bbd47,626b377229c10585ec392f89,626b38ba6871a29d61042c8b,,,,,,,,,,,,space,12.33,space,10.775,0,0,0,0,1,,,,,,,,,,,,,,,,,,,,,,,,,,,,,,,,,,,,,,,,,,,,,,,,
,sergio,001,2022-04-29_03h07.35.271,classification_task,2021.2.3,Win32,73.96449704,5f91fcfd4bc991107c2bbd47,626b377229c10585ec392f89,626b38ba6871a29d61042c8b,,,,,,,,,,,,,,space,6.758,1,0,1,0,1,,,,,,,,,,,,,,,,,,,,,,,,,,,,,,,,,,,,,,,,,,,,,,,,
,sergio,001,2022-04-29_03h07.35.271,classification_task,2021.2.3,Win32,73.96449704,5f91fcfd4bc991107c2bbd47,626b377229c10585ec392f89,626b38ba6871a29d61042c8b,,,,,,,,,,,,,,space,10.117,2,0,2,0,1,,,,,,,,,,,,,,,,,,,,,,,,,,,,,,,,,,,,,,,,,,,,,,,,
,sergio,001,2022-04-29_03h07.35.271,classification_task,2021.2.3,Win32,73.96449704,5f91fcfd4bc991107c2bbd47,626b377229c10585ec392f89,626b38ba6871a29d61042c8b,,,,,,,,,,,,,,space,8.397,3,0,3,0,1,,,,,,,,,,,,,,,,,,,,,,,,,,,,,,,,,,,,,,,,,,,,,,,,
,sergio,001,2022-04-29_03h07.35.271,classification_task,2021.2.3,Win32,73.96449704,5f91fcfd4bc991107c2bbd47,626b377229c10585ec392f89,626b38ba6871a29d61042c8b,,,,,,,,,,,,,,space,19.495,4,0,4,0,1,,,,,,,,,,,,,,,,,,,,,,,,,,,,,,,,,,,,,,,,,,,,,,,,
,sergio,001,2022-04-29_03h07.35.271,classification_task,2021.2.3,Win32,73.96449704,5f91fcfd4bc991107c2bbd47,626b377229c10585ec392f89,626b38ba6871a29d61042c8b,,,,,,,,,,,,,,,,,,,,,space,4.502,l,1,1.101,"[""0.130"",""0.974"",""0.569"",""0.738""]","[1,0,1,1]",0,0,0,0,1,1,1,,,0,FALSE,,,,,,,,,,,,,,,,,,,,,,,,,,,,,,
,sergio,001,2022-04-29_03h07.35.271,classification_task,2021.2.3,Win32,73.96449704,5f91fcfd4bc991107c2bbd47,626b377229c10585ec392f89,626b38ba6871a29d61042c8b,,,,,,,,,,,,,,,,,,,,,,,a,0,1.253,"[""0.059"",""0.251"",""0.974"",""0.691""]","[1,1,0,1]",0,1,1,1,1,1,0,,,0,FALSE,,,,,,,,,,,,,,,,,,,,,,,,,,,,,,
,sergio,001,2022-04-29_03h07.35.271,classification_task,2021.2.3,Win32,73.96449704,5f91fcfd4bc991107c2bbd47,626b377229c10585ec392f89,626b38ba6871a29d61042c8b,,,,,,,,,,,,,,,,,,,,,,,a,1,1.212,"[""0.173"",""0.448"",""0.779"",""0.403""]","[1,1,1,0]",0,2,2,2,1,0,1,,,0,FALSE,,,,,,,,,,,,,,,,,,,,,,,,,,,,,,
,sergio,001,2022-04-29_03h07.35.271,classification_task,2021.2.3,Win32,73.96449704,5f91fcfd4bc991107c2bbd47,626b377229c10585ec392f89,626b38ba6871a29d61042c8b,,,,,,,,,,,,,,,,,,,,,,,l,0,0.646,"[""0.616"",""0.354"",""0.844"",""0.941""]","[0,1,1,1]",0,3,3,3,1,0,0,,,0,FALSE,,,,,,,,,,,,,,,,,,,,,,,,,,,,,,
,sergio,001,2022-04-29_03h07.35.271,classification_task,2021.2.3,Win32,73.96449704,5f91fcfd4bc991107c2bbd47,626b377229c10585ec392f89,626b38ba6871a29d61042c8b,,,,,,,,,,,,,,,,,,,,,,,a,0,1.416,"[""0.130"",""0.303"",""0.635"",""0.738""]","[1,1,0,1]",0,4,4,4,1,1,1,,,0,FALSE,,,,,,,,,,,,,,,,,,,,,,,,,,,,,,
,sergio,001,2022-04-29_03h07.35.271,classification_task,2021.2.3,Win32,73.96449704,5f91fcfd4bc991107c2bbd47,626b377229c10585ec392f89,626b38ba6871a29d61042c8b,,,,,,,,,,,,,,,,,,,,,,,l,0,0.87,"[""0.214"",""0.974"",""0.844"",""0.941""]","[1,0,1,1]",0,5,5,5,1,0,0,,,0,FALSE,,,,,,,,,,,,,,,,,,,,,,,,,,,,,,
,sergio,001,2022-04-29_03h07.35.271,classification_task,2021.2.3,Win32,73.96449704,5f91fcfd4bc991107c2bbd47,626b377229c10585ec392f89,626b38ba6871a29d61042c8b,,,,,,,,,,,,,,,,,,,,,,,a,1,1.408,"[""0.173"",""0.448"",""0.644"",""0.893""]","[1,1,0,1]",0,6,6,6,1,0,1,,,0,FALSE,,,,,,,,,,,,,,,,,,,,,,,,,,,,,,
,sergio,001,2022-04-29_03h07.35.271,classification_task,2021.2.3,Win32,73.96449704,5f91fcfd4bc991107c2bbd47,626b377229c10585ec392f89,626b38ba6871a29d61042c8b,,,,,,,,,,,,,,,,,,,,,,,a,0,1.088,"[""0.611"",""0.303"",""0.569"",""0.738""]","[0,1,1,1]",0,7,7,7,1,1,1,,,0,FALSE,,,,,,,,,,,,,,,,,,,,,,,,,,,,,,
,sergio,001,2022-04-29_03h07.35.271,classification_task,2021.2.3,Win32,73.96449704,5f91fcfd4bc991107c2bbd47,626b377229c10585ec392f89,626b38ba6871a29d61042c8b,,,,,,,,,,,,,,,,,,,,,,,l,0,1.009,"[""0.214"",""0.354"",""0.637"",""0.941""]","[1,1,0,1]",0,8,8,8,1,0,0,,,0,FALSE,,,,,,,,,,,,,,,,,,,,,,,,,,,,,,
,sergio,001,2022-04-29_03h07.35.271,classification_task,2021.2.3,Win32,73.96449704,5f91fcfd4bc991107c2bbd47,626b377229c10585ec392f89,626b38ba6871a29d61042c8b,,,,,,,,,,,,,,,,,,,,,,,l,1,1.163,"[""0.404"",""0.251"",""0.506"",""0.691""]","[0,1,1,1]",0,9,9,9,1,1,0,,,0,FALSE,,,,,,,,,,,,,,,,,,,,,,,,,,,,,,
,sergio,001,2022-04-29_03h07.35.271,classification_task,2021.2.3,Win32,73.96449704,5f91fcfd4bc991107c2bbd47,626b377229c10585ec392f89,626b38ba6871a29d61042c8b,,,,,,,,,,,,,,,,,,,,,,,a,1,1.222,"[""0.655"",""0.448"",""0.779"",""0.893""]","[0,1,1,1]",0,10,10,10,1,0,1,,,0,FALSE,,,,,,,,,,,,,,,,,,,,,,,,,,,,,,
,sergio,001,2022-04-29_03h07.35.271,classification_task,2021.2.3,Win32,73.96449704,5f91fcfd4bc991107c2bbd47,626b377229c10585ec392f89,626b38ba6871a29d61042c8b,,,,,,,,,,,,,,,,,,,,,,,a,1,2.001,"[""0.214"",""0.354"",""0.844"",""0.644""]","[1,1,1,0]",0,11,11,11,1,0,0,,,0,FALSE,,,,,,,,,,,,,,,,,,,,,,,,,,,,,,
,sergio,001,2022-04-29_03h07.35.271,classification_task,2021.2.3,Win32,73.96449704,5f91fcfd4bc991107c2bbd47,626b377229c10585ec392f89,626b38ba6871a29d61042c8b,,,,,,,,,,,,,,,,,,,,,,,l,1,2.108,"[""0.130"",""0.303"",""0.569"",""0.403""]","[1,1,1,0]",0,12,12,12,1,1,1,,,0,FALSE,,,,,,,,,,,,,,,,,,,,,,,,,,,,,,
,sergio,001,2022-04-29_03h07.35.271,classification_task,2021.2.3,Win32,73.96449704,5f91fcfd4bc991107c2bbd47,626b377229c10585ec392f89,626b38ba6871a29d61042c8b,,,,,,,,,,,,,,,,,,,,,,,l,1,0.821,"[""0.059"",""0.251"",""0.506"",""0.655""]","[1,1,1,0]",0,13,13,13,1,1,0,,,0,FALSE,,,,,,,,,,,,,,,,,,,,,,,,,,,,,,
,sergio,001,2022-04-29_03h07.35.271,classification_task,2021.2.3,Win32,73.96449704,5f91fcfd4bc991107c2bbd47,626b377229c10585ec392f89,626b38ba6871a29d61042c8b,,,,,,,,,,,,,,,,,,,,,,,a,1,0.765,"[""0.173"",""0.616"",""0.779"",""0.893""]","[1,0,1,1]",0,14,14,14,1,0,1,,,0,FALSE,,,,,,,,,,,,,,,,,,,,,,,,,,,,,,
,sergio,001,2022-04-29_03h07.35.271,classification_task,2021.2.3,Win32,73.96449704,5f91fcfd4bc991107c2bbd47,626b377229c10585ec392f89,626b38ba6871a29d61042c8b,,,,,,,,,,,,,,,,,,,,,,,a,0,1.238,"[""0.059"",""0.623"",""0.506"",""0.691""]","[1,0,1,1]",0,15,15,15,1,1,0,,,0,FALSE,,,,,,,,,,,,,,,,,,,,,,,,,,,,,,
,sergio,001,2022-04-29_03h07.35.271,classification_task,2021.2.3,Win32,73.96449704,5f91fcfd4bc991107c2bbd47,626b377229c10585ec392f89,626b38ba6871a29d61042c8b,,,,,,,,,,,,,,,,,,,,,,,a,1,0.756,"[""0.173"",""0.655"",""0.779"",""0.893""]","[1,0,1,1]",0,16,16,16,1,0,1,,,0,FALSE,,,,,,,,,,,,,,,,,,,,,,,,,,,,,,
,sergio,001,2022-04-29_03h07.35.271,classification_task,2021.2.3,Win32,73.96449704,5f91fcfd4bc991107c2bbd47,626b377229c10585ec392f89,626b38ba6871a29d61042c8b,,,,,,,,,,,,,,,,,,,,,,,l,1,0.618,"[""0.059"",""0.251"",""0.391"",""0.691""]","[1,1,0,1]",0,17,17,17,1,1,0,,,0,FALSE,,,,,,,,,,,,,,,,,,,,,,,,,,,,,,
,sergio,001,2022-04-29_03h07.35.271,classification_task,2021.2.3,Win32,73.96449704,5f91fcfd4bc991107c2bbd47,626b377229c10585ec392f89,626b38ba6871a29d61042c8b,,,,,,,,,,,,,,,,,,,,,,,a,0,1.239,"[""0.096"",""0.303"",""0.569"",""0.738""]","[0,1,1,1]",0,18,18,18,1,1,1,,,0,FALSE,,,,,,,,,,,,,,,,,,,,,,,,,,,,,,
,sergio,001,2022-04-29_03h07.35.271,classification_task,2021.2.3,Win32,73.96449704,5f91fcfd4bc991107c2bbd47,626b377229c10585ec392f89,626b38ba6871a29d61042c8b,,,,,,,,,,,,,,,,,,,,,,,a,1,0.743,"[""0.214"",""0.354"",""0.644"",""0.941""]","[1,1,0,1]",0,19,19,19,1,0,0,,,0,FALSE,,,,,,,,,,,,,,,,,,,,,,,,,,,,,,
,sergio,001,2022-04-29_03h07.35.271,classification_task,2021.2.3,Win32,73.96449704,5f91fcfd4bc991107c2bbd47,626b377229c10585ec392f89,626b38ba6871a29d61042c8b,,,,,,,,,,,,,,,,,,,,,,,l,1,0.746,"[""0.130"",""0.621"",""0.569"",""0.738""]","[1,0,1,1]",0,20,20,20,1,1,1,,,0,FALSE,,,,,,,,,,,,,,,,,,,,,,,,,,,,,,
,sergio,001,2022-04-29_03h07.35.271,classification_task,2021.2.3,Win32,73.96449704,5f91fcfd4bc991107c2bbd47,626b377229c10585ec392f89,626b38ba6871a29d61042c8b,,,,,,,,,,,,,,,,,,,,,,,a,1,1.374,"[""0.214"",""0.404"",""0.844"",""0.941""]","[1,0,1,1]",0,21,21,21,1,0,0,,,0,FALSE,,,,,,,,,,,,,,,,,,,,,,,,,,,,,,
,sergio,001,2022-04-29_03h07.35.271,classification_task,2021.2.3,Win32,73.96449704,5f91fcfd4bc991107c2bbd47,626b377229c10585ec392f89,626b38ba6871a29d61042c8b,,,,,,,,,,,,,,,,,,,,,,,l,0,0.794,"[""0.173"",""0.448"",""0.779"",""0.096""]","[1,1,1,0]",0,22,22,22,1,0,1,,,0,FALSE,,,,,,,,,,,,,,,,,,,,,,,,,,,,,,
,sergio,001,2022-04-29_03h07.35.271,classification_task,2021.2.3,Win32,73.96449704,5f91fcfd4bc991107c2bbd47,626b377229c10585ec392f89,626b38ba6871a29d61042c8b,,,,,,,,,,,,,,,,,,,,,,,a,1,0.645,"[""0.391"",""0.354"",""0.844"",""0.941""]","[0,1,1,1]",0,23,23,23,1,0,0,,,0,FALSE,,,,,,,,,,,,,,,,,,,,,,,,,,,,,,
,sergio,001,2022-04-29_03h07.35.271,classification_task,2021.2.3,Win32,73.96449704,5f91fcfd4bc991107c2bbd47,626b377229c10585ec392f89,626b38ba6871a29d61042c8b,,,,,,,,,,,,,,,,,,,,,,,l,1,0.662,"[""0.130"",""0.303"",""0.569"",""0.394""]","[1,1,1,0]",0,24,24,24,1,1,1,,,0,FALSE,,,,,,,,,,,,,,,,,,,,,,,,,,,,,,
,sergio,001,2022-04-29_03h07.35.271,classification_task,2021.2.3,Win32,73.96449704,5f91fcfd4bc991107c2bbd47,626b377229c10585ec392f89,626b38ba6871a29d61042c8b,,,,,,,,,,,,,,,,,,,,,,,l,0,0.958,"[""0.214"",""0.354"",""0.844"",""0.394""]","[1,1,1,0]",0,25,25,25,1,0,0,,,0,FALSE,,,,,,,,,,,,,,,,,,,,,,,,,,,,,,
,sergio,001,2022-04-29_03h07.35.271,classification_task,2021.2.3,Win32,73.96449704,5f91fcfd4bc991107c2bbd47,626b377229c10585ec392f89,626b38ba6871a29d61042c8b,,,,,,,,,,,,,,,,,,,,,,,l,1,1.758,"[""0.394"",""0.251"",""0.506"",""0.691""]","[0,1,1,1]",0,26,26,26,1,1,0,,,0,FALSE,,,,,,,,,,,,,,,,,,,,,,,,,,,,,,
,sergio,001,2022-04-29_03h07.35.271,classification_task,2021.2.3,Win32,73.96449704,5f91fcfd4bc991107c2bbd47,626b377229c10585ec392f89,626b38ba6871a29d61042c8b,,,,,,,,,,,,,,,,,,,,,,,l,1,0.92,"[""0.059"",""0.251"",""0.506"",""0.603""]","[1,1,1,0]",0,27,27,27,1,1,0,,,0,FALSE,,,,,,,,,,,,,,,,,,,,,,,,,,,,,,
,sergio,001,2022-04-29_03h07.35.271,classification_task,2021.2.3,Win32,73.96449704,5f91fcfd4bc991107c2bbd47,626b377229c10585ec392f89,626b38ba6871a29d61042c8b,,,,,,,,,,,,,,,,,,,,,,,a,1,0.633,"[""0.637"",""0.448"",""0.779"",""0.893""]","[0,1,1,1]",0,28,28,28,1,0,1,,,0,FALSE,,,,,,,,,,,,,,,,,,,,,,,,,,,,,,
,sergio,001,2022-04-29_03h07.35.271,classification_task,2021.2.3,Win32,73.96449704,5f91fcfd4bc991107c2bbd47,626b377229c10585ec392f89,626b38ba6871a29d61042c8b,,,,,,,,,,,,,,,,,,,,,,,l,0,1.068,"[""0.173"",""0.448"",""0.394"",""0.893""]","[1,1,0,1]",0,29,29,29,1,0,1,,,0,FALSE,,,,,,,,,,,,,,,,,,,,,,,,,,,,,,
,sergio,001,2022-04-29_03h07.35.271,classification_task,2021.2.3,Win32,73.96449704,5f91fcfd4bc991107c2bbd47,626b377229c10585ec392f89,626b38ba6871a29d61042c8b,,,,,,,,,,,,,,,,,,,,,,,a,0,0.656,"[""0.059"",""0.621"",""0.506"",""0.691""]","[1,0,1,1]",0,30,30,30,1,1,0,,,0,FALSE,,,,,,,,,,,,,,,,,,,,,,,,,,,,,,
,sergio,001,2022-04-29_03h07.35.271,classification_task,2021.2.3,Win32,73.96449704,5f91fcfd4bc991107c2bbd47,626b377229c10585ec392f89,626b38ba6871a29d61042c8b,,,,,,,,,,,,,,,,,,,,,,,l,1,0.744,"[""0.130"",""0.303"",""0.611"",""0.738""]","[1,1,0,1]",0,31,31,31,1,1,1,,,0,FALSE,,,,,,,,,,,,,,,,,,,,,,,,,,,,,,
,sergio,001,2022-04-29_03h07.35.271,classification_task,2021.2.3,Win32,73.96449704,5f91fcfd4bc991107c2bbd47,626b377229c10585ec392f89,626b38ba6871a29d61042c8b,,,,,,,,,,,,,,,,,,,,,,,l,1,0.716,"[""0.059"",""0.251"",""0.611"",""0.691""]","[1,1,0,1]",0,32,32,32,1,1,0,,,0,FALSE,,,,,,,,,,,,,,,,,,,,,,,,,,,,,,
,sergio,001,2022-04-29_03h07.35.271,classification_task,2021.2.3,Win32,73.96449704,5f91fcfd4bc991107c2bbd47,626b377229c10585ec392f89,626b38ba6871a29d61042c8b,,,,,,,,,,,,,,,,,,,,,,,a,0,0.816,"[""0.059"",""0.974"",""0.506"",""0.691""]","[1,0,1,1]",0,33,33,33,1,1,0,,,0,FALSE,,,,,,,,,,,,,,,,,,,,,,,,,,,,,,
,sergio,001,2022-04-29_03h07.35.271,classification_task,2021.2.3,Win32,73.96449704,5f91fcfd4bc991107c2bbd47,626b377229c10585ec392f89,626b38ba6871a29d61042c8b,,,,,,,,,,,,,,,,,,,,,,,a,1,1.054,"[""0.214"",""0.394"",""0.844"",""0.941""]","[1,0,1,1]",0,34,34,34,1,0,0,,,0,FALSE,,,,,,,,,,,,,,,,,,,,,,,,,,,,,,
,sergio,001,2022-04-29_03h07.35.271,classification_task,2021.2.3,Win32,73.96449704,5f91fcfd4bc991107c2bbd47,626b377229c10585ec392f89,626b38ba6871a29d61042c8b,,,,,,,,,,,,,,,,,,,,,,,a,1,0.509,"[""0.611"",""0.354"",""0.844"",""0.941""]","[0,1,1,1]",0,35,35,35,1,0,0,,,0,FALSE,,,,,,,,,,,,,,,,,,,,,,,,,,,,,,
,sergio,001,2022-04-29_03h07.35.271,classification_task,2021.2.3,Win32,73.96449704,5f91fcfd4bc991107c2bbd47,626b377229c10585ec392f89,626b38ba6871a29d61042c8b,,,,,,,,,,,,,,,,,,,,,,,a,1,1.974,"[""0.173"",""0.391"",""0.779"",""0.893""]","[1,0,1,1]",0,36,36,36,1,0,1,,,0,FALSE,,,,,,,,,,,,,,,,,,,,,,,,,,,,,,
,sergio,001,2022-04-29_03h07.35.271,classification_task,2021.2.3,Win32,73.96449704,5f91fcfd4bc991107c2bbd47,626b377229c10585ec392f89,626b38ba6871a29d61042c8b,,,,,,,,,,,,,,,,,,,,,,,l,1,0.987,"[""0.130"",""0.303"",""0.635"",""0.738""]","[1,1,0,1]",0,37,37,37,1,1,1,,,0,FALSE,,,,,,,,,,,,,,,,,,,,,,,,,,,,,,
,sergio,001,2022-04-29_03h07.35.271,classification_task,2021.2.3,Win32,73.96449704,5f91fcfd4bc991107c2bbd47,626b377229c10585ec392f89,626b38ba6871a29d61042c8b,,,,,,,,,,,,,,,,,,,,,,,l,1,1.115,"[""0.130"",""0.403"",""0.569"",""0.738""]","[1,0,1,1]",0,38,38,38,1,1,1,,,0,FALSE,,,,,,,,,,,,,,,,,,,,,,,,,,,,,,
,sergio,001,2022-04-29_03h07.35.271,classification_task,2021.2.3,Win32,73.96449704,5f91fcfd4bc991107c2bbd47,626b377229c10585ec392f89,626b38ba6871a29d61042c8b,,,,,,,,,,,,,,,,,,,,,,,a,1,0.8,"[""0.173"",""0.448"",""0.611"",""0.893""]","[1,1,0,1]",0,39,39,39,1,0,1,,,0,FALSE,,,,,,,,,,,,,,,,,,,,,,,,,,,,,,
,sergio,001,2022-04-29_03h07.35.271,classification_task,2021.2.3,Win32,73.96449704,5f91fcfd4bc991107c2bbd47,626b377229c10585ec392f89,626b38ba6871a29d61042c8b,,,,,,,,,,,,,,,,,,,,,,,a,1,0.691,"[""0.394"",""0.448"",""0.779"",""0.893""]","[0,1,1,1]",0,40,40,40,1,0,1,,,0,FALSE,,,,,,,,,,,,,,,,,,,,,,,,,,,,,,
,sergio,001,2022-04-29_03h07.35.271,classification_task,2021.2.3,Win32,73.96449704,5f91fcfd4bc991107c2bbd47,626b377229c10585ec392f89,626b38ba6871a29d61042c8b,,,,,,,,,,,,,,,,,,,,,,,a,1,1.03,"[""0.214"",""0.354"",""0.844"",""0.623""]","[1,1,1,0]",0,41,41,41,1,0,0,,,0,FALSE,,,,,,,,,,,,,,,,,,,,,,,,,,,,,,
,sergio,001,2022-04-29_03h07.35.271,classification_task,2021.2.3,Win32,73.96449704,5f91fcfd4bc991107c2bbd47,626b377229c10585ec392f89,626b38ba6871a29d61042c8b,,,,,,,,,,,,,,,,,,,,,,,l,1,1.695,"[""0.644"",""0.251"",""0.506"",""0.691""]","[0,1,1,1]",0,42,42,42,1,1,0,,,0,FALSE,,,,,,,,,,,,,,,,,,,,,,,,,,,,,,
,sergio,001,2022-04-29_03h07.35.271,classification_task,2021.2.3,Win32,73.96449704,5f91fcfd4bc991107c2bbd47,626b377229c10585ec392f89,626b38ba6871a29d61042c8b,,,,,,,,,,,,,,,,,,,,,,,l,0,0.948,"[""0.173"",""0.448"",""0.779"",""0.096""]","[1,1,1,0]",0,43,43,43,1,0,1,,,0,FALSE,,,,,,,,,,,,,,,,,,,,,,,,,,,,,,
,sergio,001,2022-04-29_03h07.35.271,classification_task,2021.2.3,Win32,73.96449704,5f91fcfd4bc991107c2bbd47,626b377229c10585ec392f89,626b38ba6871a29d61042c8b,,,,,,,,,,,,,,,,,,,,,,,a,1,0.555,"[""0.214"",""0.354"",""0.623"",""0.941""]","[1,1,0,1]",0,44,44,44,1,0,0,,,0,FALSE,,,,,,,,,,,,,,,,,,,,,,,,,,,,,,
,sergio,001,2022-04-29_03h07.35.271,classification_task,2021.2.3,Win32,73.96449704,5f91fcfd4bc991107c2bbd47,626b377229c10585ec392f89,626b38ba6871a29d61042c8b,,,,,,,,,,,,,,,,,,,,,,,a,0,0.745,"[""0.611"",""0.303"",""0.569"",""0.738""]","[0,1,1,1]",0,45,45,45,1,1,1,,,0,FALSE,,,,,,,,,,,,,,,,,,,,,,,,,,,,,,
,sergio,001,2022-04-29_03h07.35.271,classification_task,2021.2.3,Win32,73.96449704,5f91fcfd4bc991107c2bbd47,626b377229c10585ec392f89,626b38ba6871a29d61042c8b,,,,,,,,,,,,,,,,,,,,,,,l,1,0.654,"[""0.059"",""0.251"",""0.506"",""0.404""]","[1,1,1,0]",0,46,46,46,1,1,0,,,0,FALSE,,,,,,,,,,,,,,,,,,,,,,,,,,,,,,
,sergio,001,2022-04-29_03h07.35.271,classification_task,2021.2.3,Win32,73.96449704,5f91fcfd4bc991107c2bbd47,626b377229c10585ec392f89,626b38ba6871a29d61042c8b,,,,,,,,,,,,,,,,,,,,,,,l,1,0.602,"[""0.130"",""0.303"",""0.569"",""0.603""]","[1,1,1,0]",0,47,47,47,1,1,1,,,0,FALSE,,,,,,,,,,,,,,,,,,,,,,,,,,,,,,
,sergio,001,2022-04-29_03h07.35.271,classification_task,2021.2.3,Win32,73.96449704,5f91fcfd4bc991107c2bbd47,626b377229c10585ec392f89,626b38ba6871a29d61042c8b,,,,,,,,,,,,,,,,,,,,,,,l,1,0.704,"[""0.130"",""0.303"",""0.603"",""0.738""]","[1,1,0,1]",0,48,48,48,1,1,1,,,0,FALSE,,,,,,,,,,,,,,,,,,,,,,,,,,,,,,
,sergio,001,2022-04-29_03h07.35.271,classification_task,2021.2.3,Win32,73.96449704,5f91fcfd4bc991107c2bbd47,626b377229c10585ec392f89,626b38ba6871a29d61042c8b,,,,,,,,,,,,,,,,,,,,,,,l,1,0.472,"[""0.059"",""0.251"",""0.506"",""0.404""]","[1,1,1,0]",0,49,49,49,1,1,0,,,0,FALSE,,,,,,,,,,,,,,,,,,,,,,,,,,,,,,
,sergio,001,2022-04-29_03h07.35.271,classification_task,2021.2.3,Win32,73.96449704,5f91fcfd4bc991107c2bbd47,626b377229c10585ec392f89,626b38ba6871a29d61042c8b,,,,,,,,,,,,,,,,,,,,,,,a,1,0.504,"[""0.214"",""0.637"",""0.844"",""0.941""]","[1,0,1,1]",0,50,50,50,1,0,0,,,0,FALSE,,,,,,,,,,,,,,,,,,,,,,,,,,,,,,
,sergio,001,2022-04-29_03h07.35.271,classification_task,2021.2.3,Win32,73.96449704,5f91fcfd4bc991107c2bbd47,626b377229c10585ec392f89,626b38ba6871a29d61042c8b,,,,,,,,,,,,,,,,,,,,,,,a,1,0.528,"[""0.635"",""0.448"",""0.779"",""0.893""]","[0,1,1,1]",0,51,51,51,1,0,1,,,0,FALSE,,,,,,,,,,,,,,,,,,,,,,,,,,,,,,
,sergio,001,2022-04-29_03h07.35.271,classification_task,2021.2.3,Win32,73.96449704,5f91fcfd4bc991107c2bbd47,626b377229c10585ec392f89,626b38ba6871a29d61042c8b,,,,,,,,,,,,,,,,,,,,,,,a,1,0.666,"[""0.173"",""0.448"",""0.779"",""0.621""]","[1,1,1,0]",0,52,52,52,1,0,1,,,0,FALSE,,,,,,,,,,,,,,,,,,,,,,,,,,,,,,
,sergio,001,2022-04-29_03h07.35.271,classification_task,2021.2.3,Win32,73.96449704,5f91fcfd4bc991107c2bbd47,626b377229c10585ec392f89,626b38ba6871a29d61042c8b,,,,,,,,,,,,,,,,,,,,,,,l,1,0.69,"[""0.603"",""0.251"",""0.506"",""0.691""]","[0,1,1,1]",0,53,53,53,1,1,0,,,0,FALSE,,,,,,,,,,,,,,,,,,,,,,,,,,,,,,
,sergio,001,2022-04-29_03h07.35.271,classification_task,2021.2.3,Win32,73.96449704,5f91fcfd4bc991107c2bbd47,626b377229c10585ec392f89,626b38ba6871a29d61042c8b,,,,,,,,,,,,,,,,,,,,,,,a,0,0.65,"[""0.059"",""0.974"",""0.506"",""0.691""]","[1,0,1,1]",0,54,54,54,1,1,0,,,0,FALSE,,,,,,,,,,,,,,,,,,,,,,,,,,,,,,
,sergio,001,2022-04-29_03h07.35.271,classification_task,2021.2.3,Win32,73.96449704,5f91fcfd4bc991107c2bbd47,626b377229c10585ec392f89,626b38ba6871a29d61042c8b,,,,,,,,,,,,,,,,,,,,,,,l,1,0.908,"[""0.059"",""0.251"",""0.394"",""0.691""]","[1,1,0,1]",0,55,55,55,1,1,0,,,0,FALSE,,,,,,,,,,,,,,,,,,,,,,,,,,,,,,
,sergio,001,2022-04-29_03h07.35.271,classification_task,2021.2.3,Win32,73.96449704,5f91fcfd4bc991107c2bbd47,626b377229c10585ec392f89,626b38ba6871a29d61042c8b,,,,,,,,,,,,,,,,,,,,,,,l,1,0.734,"[""0.130"",""0.394"",""0.569"",""0.738""]","[1,0,1,1]",0,56,56,56,1,1,1,,,0,FALSE,,,,,,,,,,,,,,,,,,,,,,,,,,,,,,
,sergio,001,2022-04-29_03h07.35.271,classification_task,2021.2.3,Win32,73.96449704,5f91fcfd4bc991107c2bbd47,626b377229c10585ec392f89,626b38ba6871a29d61042c8b,,,,,,,,,,,,,,,,,,,,,,,a,1,0.541,"[""0.403"",""0.354"",""0.844"",""0.941""]","[0,1,1,1]",0,57,57,57,1,0,0,,,0,FALSE,,,,,,,,,,,,,,,,,,,,,,,,,,,,,,
,sergio,001,2022-04-29_03h07.35.271,classification_task,2021.2.3,Win32,73.96449704,5f91fcfd4bc991107c2bbd47,626b377229c10585ec392f89,626b38ba6871a29d61042c8b,,,,,,,,,,,,,,,,,,,,,,,a,1,0.763,"[""0.214"",""0.354"",""0.844"",""0.404""]","[1,1,1,0]",0,58,58,58,1,0,0,,,0,FALSE,,,,,,,,,,,,,,,,,,,,,,,,,,,,,,
,sergio,001,2022-04-29_03h07.35.271,classification_task,2021.2.3,Win32,73.96449704,5f91fcfd4bc991107c2bbd47,626b377229c10585ec392f89,626b38ba6871a29d61042c8b,,,,,,,,,,,,,,,,,,,,,,,l,0,0.465,"[""0.214"",""0.354"",""0.096"",""0.941""]","[1,1,0,1]",0,59,59,59,1,0,0,,,0,FALSE,,,,,,,,,,,,,,,,,,,,,,,,,,,,,,
,sergio,001,2022-04-29_03h07.35.271,classification_task,2021.2.3,Win32,73.96449704,5f91fcfd4bc991107c2bbd47,626b377229c10585ec392f89,626b38ba6871a29d61042c8b,,,,,,,,,,,,,,,,,,,,,,,a,0,0.913,"[""0.394"",""0.303"",""0.569"",""0.738""]","[0,1,1,1]",0,60,60,60,1,1,1,,,0,FALSE,,,,,,,,,,,,,,,,,,,,,,,,,,,,,,
,sergio,001,2022-04-29_03h07.35.271,classification_task,2021.2.3,Win32,73.96449704,5f91fcfd4bc991107c2bbd47,626b377229c10585ec392f89,626b38ba6871a29d61042c8b,,,,,,,,,,,,,,,,,,,,,,,l,1,0.531,"[""0.130"",""0.303"",""0.569"",""0.616""]","[1,1,1,0]",0,61,61,61,1,1,1,,,0,FALSE,,,,,,,,,,,,,,,,,,,,,,,,,,,,,,
,sergio,001,2022-04-29_03h07.35.271,classification_task,2021.2.3,Win32,73.96449704,5f91fcfd4bc991107c2bbd47,626b377229c10585ec392f89,626b38ba6871a29d61042c8b,,,,,,,,,,,,,,,,,,,,,,,a,1,0.557,"[""0.173"",""0.394"",""0.779"",""0.893""]","[1,0,1,1]",0,62,62,62,1,0,1,,,0,FALSE,,,,,,,,,,,,,,,,,,,,,,,,,,,,,,
,sergio,001,2022-04-29_03h07.35.271,classification_task,2021.2.3,Win32,73.96449704,5f91fcfd4bc991107c2bbd47,626b377229c10585ec392f89,626b38ba6871a29d61042c8b,,,,,,,,,,,,,,,,,,,,,,,a,1,0.67,"[""0.173"",""0.448"",""0.637"",""0.893""]","[1,1,0,1]",0,63,63,63,1,0,1,,,0,FALSE,,,,,,,,,,,,,,,,,,,,,,,,,,,,,,
,sergio,001,2022-04-29_03h07.35.271,classification_task,2021.2.3,Win32,73.96449704,5f91fcfd4bc991107c2bbd47,626b377229c10585ec392f89,626b38ba6871a29d61042c8b,,,,,,,,,,,,,,,,,,,,,,,,,,,,,,,,,,,,,,,0, ,,0,1.913580247,246.679,0,0,0,0,1,2,1,,,,,,,,,,,,,,,,,
,sergio,001,2022-04-29_03h07.35.271,classification_task,2021.2.3,Win32,73.96449704,5f91fcfd4bc991107c2bbd47,626b377229c10585ec392f89,626b38ba6871a29d61042c8b,,,,,,,,,,,,,,,,,,,,,,,,,,,,,,,,,,,,,,,1,  ,,0,7.792475015,252.002,0,0,0,0,1,2,1,,,,,,,,,,,,,,,,,
,sergio,001,2022-04-29_03h07.35.271,classification_task,2021.2.3,Win32,73.96449704,5f91fcfd4bc991107c2bbd47,626b377229c10585ec392f89,626b38ba6871a29d61042c8b,,,,,,,,,,,,,,,,,,,,,,,,,,,,,,,,,,,,,,,2,  ,,0,2.550460513,259.284,0,0,0,0,1,2,1,,,,,,,,,,,,,,,,,
,sergio,001,2022-04-29_03h07.35.271,classification_task,2021.2.3,Win32,73.96449704,5f91fcfd4bc991107c2bbd47,626b377229c10585ec392f89,626b38ba6871a29d61042c8b,,,,,,,,,,,,,,,,,,,,,,,,,,,,,,,,,,,,,,,,,,,,,0,0,0,0,1,,1,,,,,,,,,,,,,,,,,
,sergio,001,2022-04-29_03h07.35.271,classification_task,2021.2.3,Win32,73.96449704,5f91fcfd4bc991107c2bbd47,626b377229c10585ec392f89,626b38ba6871a29d61042c8b,,,,,,,,,,,,,,,,,,,,,space,5.211,a,1,0.702,"[""0.173"",""0.974"",""0.779"",""0.893""]","[1,0,1,1]",0,0,0,0,1,0,1,,,0,FALSE,,,,,,,,,,,,,,,,,,,,,,,,,,,,,,
,sergio,001,2022-04-29_03h07.35.271,classification_task,2021.2.3,Win32,73.96449704,5f91fcfd4bc991107c2bbd47,626b377229c10585ec392f89,626b38ba6871a29d61042c8b,,,,,,,,,,,,,,,,,,,,,,,a,0,0.756,"[""0.394"",""0.251"",""0.506"",""0.691""]","[0,1,1,1]",0,1,1,1,1,1,0,,,0,FALSE,,,,,,,,,,,,,,,,,,,,,,,,,,,,,,
,sergio,001,2022-04-29_03h07.35.271,classification_task,2021.2.3,Win32,73.96449704,5f91fcfd4bc991107c2bbd47,626b377229c10585ec392f89,626b38ba6871a29d61042c8b,,,,,,,,,,,,,,,,,,,,,,,a,1,0.503,"[""0.214"",""0.354"",""0.611"",""0.941""]","[1,1,0,1]",0,2,2,2,1,0,0,,,0,FALSE,,,,,,,,,,,,,,,,,,,,,,,,,,,,,,
,sergio,001,2022-04-29_03h07.35.271,classification_task,2021.2.3,Win32,73.96449704,5f91fcfd4bc991107c2bbd47,626b377229c10585ec392f89,626b38ba6871a29d61042c8b,,,,,,,,,,,,,,,,,,,,,,,l,0,0.69,"[""0.173"",""0.448"",""0.403"",""0.893""]","[1,1,0,1]",0,3,3,3,1,0,1,,,0,FALSE,,,,,,,,,,,,,,,,,,,,,,,,,,,,,,
,sergio,001,2022-04-29_03h07.35.271,classification_task,2021.2.3,Win32,73.96449704,5f91fcfd4bc991107c2bbd47,626b377229c10585ec392f89,626b38ba6871a29d61042c8b,,,,,,,,,,,,,,,,,,,,,,,l,0,0.569,"[""0.173"",""0.448"",""0.779"",""0.644""]","[1,1,1,0]",0,4,4,4,1,0,1,,,0,FALSE,,,,,,,,,,,,,,,,,,,,,,,,,,,,,,
,sergio,001,2022-04-29_03h07.35.271,classification_task,2021.2.3,Win32,73.96449704,5f91fcfd4bc991107c2bbd47,626b377229c10585ec392f89,626b38ba6871a29d61042c8b,,,,,,,,,,,,,,,,,,,,,,,a,0,0.461,"[""0.130"",""0.303"",""0.974"",""0.738""]","[1,1,0,1]",0,5,5,5,1,1,1,,,0,FALSE,,,,,,,,,,,,,,,,,,,,,,,,,,,,,,
,sergio,001,2022-04-29_03h07.35.271,classification_task,2021.2.3,Win32,73.96449704,5f91fcfd4bc991107c2bbd47,626b377229c10585ec392f89,626b38ba6871a29d61042c8b,,,,,,,,,,,,,,,,,,,,,,,l,1,0.906,"[""0.130"",""0.603"",""0.569"",""0.738""]","[1,0,1,1]",0,6,6,6,1,1,1,,,0,FALSE,,,,,,,,,,,,,,,,,,,,,,,,,,,,,,
,sergio,001,2022-04-29_03h07.35.271,classification_task,2021.2.3,Win32,73.96449704,5f91fcfd4bc991107c2bbd47,626b377229c10585ec392f89,626b38ba6871a29d61042c8b,,,,,,,,,,,,,,,,,,,,,,,l,1,0.571,"[""0.059"",""0.404"",""0.506"",""0.691""]","[1,0,1,1]",0,7,7,7,1,1,0,,,0,FALSE,,,,,,,,,,,,,,,,,,,,,,,,,,,,,,
,sergio,001,2022-04-29_03h07.35.271,classification_task,2021.2.3,Win32,73.96449704,5f91fcfd4bc991107c2bbd47,626b377229c10585ec392f89,626b38ba6871a29d61042c8b,,,,,,,,,,,,,,,,,,,,,,,l,1,0.495,"[""0.130"",""0.303"",""0.569"",""0.391""]","[1,1,1,0]",0,8,8,8,1,1,1,,,0,FALSE,,,,,,,,,,,,,,,,,,,,,,,,,,,,,,
,sergio,001,2022-04-29_03h07.35.271,classification_task,2021.2.3,Win32,73.96449704,5f91fcfd4bc991107c2bbd47,626b377229c10585ec392f89,626b38ba6871a29d61042c8b,,,,,,,,,,,,,,,,,,,,,,,a,1,0.451,"[""0.616"",""0.354"",""0.844"",""0.941""]","[0,1,1,1]",0,9,9,9,1,0,0,,,0,FALSE,,,,,,,,,,,,,,,,,,,,,,,,,,,,,,
,sergio,001,2022-04-29_03h07.35.271,classification_task,2021.2.3,Win32,73.96449704,5f91fcfd4bc991107c2bbd47,626b377229c10585ec392f89,626b38ba6871a29d61042c8b,,,,,,,,,,,,,,,,,,,,,,,a,1,0.434,"[""0.214"",""0.623"",""0.844"",""0.941""]","[1,0,1,1]",0,10,10,10,1,0,0,,,0,FALSE,,,,,,,,,,,,,,,,,,,,,,,,,,,,,,
,sergio,001,2022-04-29_03h07.35.271,classification_task,2021.2.3,Win32,73.96449704,5f91fcfd4bc991107c2bbd47,626b377229c10585ec392f89,626b38ba6871a29d61042c8b,,,,,,,,,,,,,,,,,,,,,,,l,1,0.489,"[""0.059"",""0.251"",""0.506"",""0.644""]","[1,1,1,0]",0,11,11,11,1,1,0,,,0,FALSE,,,,,,,,,,,,,,,,,,,,,,,,,,,,,,
,sergio,001,2022-04-29_03h07.35.271,classification_task,2021.2.3,Win32,73.96449704,5f91fcfd4bc991107c2bbd47,626b377229c10585ec392f89,626b38ba6871a29d61042c8b,,,,,,,,,,,,,,,,,,,,,,,a,1,0.542,"[""0.623"",""0.448"",""0.779"",""0.893""]","[0,1,1,1]",0,12,12,12,1,0,1,,,0,FALSE,,,,,,,,,,,,,,,,,,,,,,,,,,,,,,
,sergio,001,2022-04-29_03h07.35.271,classification_task,2021.2.3,Win32,73.96449704,5f91fcfd4bc991107c2bbd47,626b377229c10585ec392f89,626b38ba6871a29d61042c8b,,,,,,,,,,,,,,,,,,,,,,,a,1,0.508,"[""0.214"",""0.354"",""0.844"",""0.974""]","[1,1,1,0]",0,13,13,13,1,0,0,,,0,FALSE,,,,,,,,,,,,,,,,,,,,,,,,,,,,,,
,sergio,001,2022-04-29_03h07.35.271,classification_task,2021.2.3,Win32,73.96449704,5f91fcfd4bc991107c2bbd47,626b377229c10585ec392f89,626b38ba6871a29d61042c8b,,,,,,,,,,,,,,,,,,,,,,,l,1,0.467,"[""0.059"",""0.251"",""0.391"",""0.691""]","[1,1,0,1]",0,14,14,14,1,1,0,,,0,FALSE,,,,,,,,,,,,,,,,,,,,,,,,,,,,,,
,sergio,001,2022-04-29_03h07.35.271,classification_task,2021.2.3,Win32,73.96449704,5f91fcfd4bc991107c2bbd47,626b377229c10585ec392f89,626b38ba6871a29d61042c8b,,,,,,,,,,,,,,,,,,,,,,,a,0,0.677,"[""0.611"",""0.303"",""0.569"",""0.738""]","[0,1,1,1]",0,15,15,15,1,1,1,,,0,FALSE,,,,,,,,,,,,,,,,,,,,,,,,,,,,,,
,sergio,001,2022-04-29_03h07.35.271,classification_task,2021.2.3,Win32,73.96449704,5f91fcfd4bc991107c2bbd47,626b377229c10585ec392f89,626b38ba6871a29d61042c8b,,,,,,,,,,,,,,,,,,,,,,,l,0,0.522,"[""0.173"",""0.448"",""0.779"",""0.655""]","[1,1,1,0]",0,16,16,16,1,0,1,,,0,FALSE,,,,,,,,,,,,,,,,,,,,,,,,,,,,,,
,sergio,001,2022-04-29_03h07.35.271,classification_task,2021.2.3,Win32,73.96449704,5f91fcfd4bc991107c2bbd47,626b377229c10585ec392f89,626b38ba6871a29d61042c8b,,,,,,,,,,,,,,,,,,,,,,,a,1,0.546,"[""0.214"",""0.616"",""0.844"",""0.941""]","[1,0,1,1]",0,17,17,17,1,0,0,,,0,FALSE,,,,,,,,,,,,,,,,,,,,,,,,,,,,,,
,sergio,001,2022-04-29_03h07.35.271,classification_task,2021.2.3,Win32,73.96449704,5f91fcfd4bc991107c2bbd47,626b377229c10585ec392f89,626b38ba6871a29d61042c8b,,,,,,,,,,,,,,,,,,,,,,,l,1,0.691,"[""0.096"",""0.303"",""0.569"",""0.738""]","[0,1,1,1]",0,18,18,18,1,1,1,,,0,FALSE,,,,,,,,,,,,,,,,,,,,,,,,,,,,,,
,sergio,001,2022-04-29_03h07.35.271,classification_task,2021.2.3,Win32,73.96449704,5f91fcfd4bc991107c2bbd47,626b377229c10585ec392f89,626b38ba6871a29d61042c8b,,,,,,,,,,,,,,,,,,,,,,,a,1,0.442,"[""0.974"",""0.354"",""0.844"",""0.941""]","[0,1,1,1]",0,19,19,19,1,0,0,,,0,FALSE,,,,,,,,,,,,,,,,,,,,,,,,,,,,,,
,sergio,001,2022-04-29_03h07.35.271,classification_task,2021.2.3,Win32,73.96449704,5f91fcfd4bc991107c2bbd47,626b377229c10585ec392f89,626b38ba6871a29d61042c8b,,,,,,,,,,,,,,,,,,,,,,,l,1,0.581,"[""0.130"",""0.303"",""0.635"",""0.738""]","[1,1,0,1]",0,20,20,20,1,1,1,,,0,FALSE,,,,,,,,,,,,,,,,,,,,,,,,,,,,,,
,sergio,001,2022-04-29_03h07.35.271,classification_task,2021.2.3,Win32,73.96449704,5f91fcfd4bc991107c2bbd47,626b377229c10585ec392f89,626b38ba6871a29d61042c8b,,,,,,,,,,,,,,,,,,,,,,,l,1,0.446,"[""0.130"",""0.391"",""0.569"",""0.738""]","[1,0,1,1]",0,21,21,21,1,1,1,,,0,FALSE,,,,,,,,,,,,,,,,,,,,,,,,,,,,,,
,sergio,001,2022-04-29_03h07.35.271,classification_task,2021.2.3,Win32,73.96449704,5f91fcfd4bc991107c2bbd47,626b377229c10585ec392f89,626b38ba6871a29d61042c8b,,,,,,,,,,,,,,,,,,,,,,,a,1,0.471,"[""0.214"",""0.354"",""0.844"",""0.616""]","[1,1,1,0]",0,22,22,22,1,0,0,,,0,FALSE,,,,,,,,,,,,,,,,,,,,,,,,,,,,,,
,sergio,001,2022-04-29_03h07.35.271,classification_task,2021.2.3,Win32,73.96449704,5f91fcfd4bc991107c2bbd47,626b377229c10585ec392f89,626b38ba6871a29d61042c8b,,,,,,,,,,,,,,,,,,,,,,,a,1,0.475,"[""0.974"",""0.448"",""0.779"",""0.893""]","[0,1,1,1]",0,23,23,23,1,0,1,,,0,FALSE,,,,,,,,,,,,,,,,,,,,,,,,,,,,,,
,sergio,001,2022-04-29_03h07.35.271,classification_task,2021.2.3,Win32,73.96449704,5f91fcfd4bc991107c2bbd47,626b377229c10585ec392f89,626b38ba6871a29d61042c8b,,,,,,,,,,,,,,,,,,,,,,,a,1,0.492,"[""0.214"",""0.354"",""0.644"",""0.941""]","[1,1,0,1]",0,24,24,24,1,0,0,,,0,FALSE,,,,,,,,,,,,,,,,,,,,,,,,,,,,,,
,sergio,001,2022-04-29_03h07.35.271,classification_task,2021.2.3,Win32,73.96449704,5f91fcfd4bc991107c2bbd47,626b377229c10585ec392f89,626b38ba6871a29d61042c8b,,,,,,,,,,,,,,,,,,,,,,,l,1,0.418,"[""0.130"",""0.303"",""0.569"",""0.394""]","[1,1,1,0]",0,25,25,25,1,1,1,,,0,FALSE,,,,,,,,,,,,,,,,,,,,,,,,,,,,,,
,sergio,001,2022-04-29_03h07.35.271,classification_task,2021.2.3,Win32,73.96449704,5f91fcfd4bc991107c2bbd47,626b377229c10585ec392f89,626b38ba6871a29d61042c8b,,,,,,,,,,,,,,,,,,,,,,,a,1,0.585,"[""0.173"",""0.621"",""0.779"",""0.893""]","[1,0,1,1]",0,26,26,26,1,0,1,,,0,FALSE,,,,,,,,,,,,,,,,,,,,,,,,,,,,,,
,sergio,001,2022-04-29_03h07.35.271,classification_task,2021.2.3,Win32,73.96449704,5f91fcfd4bc991107c2bbd47,626b377229c10585ec392f89,626b38ba6871a29d61042c8b,,,,,,,,,,,,,,,,,,,,,,,l,1,0.495,"[""0.059"",""0.251"",""0.506"",""0.644""]","[1,1,1,0]",0,27,27,27,1,1,0,,,0,FALSE,,,,,,,,,,,,,,,,,,,,,,,,,,,,,,
,sergio,001,2022-04-29_03h07.35.271,classification_task,2021.2.3,Win32,73.96449704,5f91fcfd4bc991107c2bbd47,626b377229c10585ec392f89,626b38ba6871a29d61042c8b,,,,,,,,,,,,,,,,,,,,,,,a,0,0.663,"[""0.403"",""0.251"",""0.506"",""0.691""]","[0,1,1,1]",0,28,28,28,1,1,0,,,0,FALSE,,,,,,,,,,,,,,,,,,,,,,,,,,,,,,
,sergio,001,2022-04-29_03h07.35.271,classification_task,2021.2.3,Win32,73.96449704,5f91fcfd4bc991107c2bbd47,626b377229c10585ec392f89,626b38ba6871a29d61042c8b,,,,,,,,,,,,,,,,,,,,,,,l,1,0.503,"[""0.059"",""0.251"",""0.404"",""0.691""]","[1,1,0,1]",0,29,29,29,1,1,0,,,0,FALSE,,,,,,,,,,,,,,,,,,,,,,,,,,,,,,
,sergio,001,2022-04-29_03h07.35.271,classification_task,2021.2.3,Win32,73.96449704,5f91fcfd4bc991107c2bbd47,626b377229c10585ec392f89,626b38ba6871a29d61042c8b,,,,,,,,,,,,,,,,,,,,,,,l,1,0.734,"[""0.059"",""0.616"",""0.506"",""0.691""]","[1,0,1,1]",0,30,30,30,1,1,0,,,0,FALSE,,,,,,,,,,,,,,,,,,,,,,,,,,,,,,
,sergio,001,2022-04-29_03h07.35.271,classification_task,2021.2.3,Win32,73.96449704,5f91fcfd4bc991107c2bbd47,626b377229c10585ec392f89,626b38ba6871a29d61042c8b,,,,,,,,,,,,,,,,,,,,,,,a,1,0.514,"[""0.173"",""0.448"",""0.404"",""0.893""]","[1,1,0,1]",0,31,31,31,1,0,1,,,0,FALSE,,,,,,,,,,,,,,,,,,,,,,,,,,,,,,
,sergio,001,2022-04-29_03h07.35.271,classification_task,2021.2.3,Win32,73.96449704,5f91fcfd4bc991107c2bbd47,626b377229c10585ec392f89,626b38ba6871a29d61042c8b,,,,,,,,,,,,,,,,,,,,,,,l,1,0.634,"[""0.655"",""0.251"",""0.506"",""0.691""]","[0,1,1,1]",0,32,32,32,1,1,0,,,0,FALSE,,,,,,,,,,,,,,,,,,,,,,,,,,,,,,
,sergio,001,2022-04-29_03h07.35.271,classification_task,2021.2.3,Win32,73.96449704,5f91fcfd4bc991107c2bbd47,626b377229c10585ec392f89,626b38ba6871a29d61042c8b,,,,,,,,,,,,,,,,,,,,,,,a,1,0.472,"[""0.173"",""0.621"",""0.779"",""0.893""]","[1,0,1,1]",0,33,33,33,1,0,1,,,0,FALSE,,,,,,,,,,,,,,,,,,,,,,,,,,,,,,
,sergio,001,2022-04-29_03h07.35.271,classification_task,2021.2.3,Win32,73.96449704,5f91fcfd4bc991107c2bbd47,626b377229c10585ec392f89,626b38ba6871a29d61042c8b,,,,,,,,,,,,,,,,,,,,,,,l,0,0.541,"[""0.173"",""0.448"",""0.779"",""0.635""]","[1,1,1,0]",0,34,34,34,1,0,1,,,0,FALSE,,,,,,,,,,,,,,,,,,,,,,,,,,,,,,
,sergio,001,2022-04-29_03h07.35.271,classification_task,2021.2.3,Win32,73.96449704,5f91fcfd4bc991107c2bbd47,626b377229c10585ec392f89,626b38ba6871a29d61042c8b,,,,,,,,,,,,,,,,,,,,,,,a,1,0.52,"[""0.214"",""0.621"",""0.844"",""0.941""]","[1,0,1,1]",0,35,35,35,1,0,0,,,0,FALSE,,,,,,,,,,,,,,,,,,,,,,,,,,,,,,
,sergio,001,2022-04-29_03h07.35.271,classification_task,2021.2.3,Win32,73.96449704,5f91fcfd4bc991107c2bbd47,626b377229c10585ec392f89,626b38ba6871a29d61042c8b,,,,,,,,,,,,,,,,,,,,,,,l,1,0.581,"[""0.130"",""0.303"",""0.603"",""0.738""]","[1,1,0,1]",0,36,36,36,1,1,1,,,0,FALSE,,,,,,,,,,,,,,,,,,,,,,,,,,,,,,
,sergio,001,2022-04-29_03h07.35.271,classification_task,2021.2.3,Win32,73.96449704,5f91fcfd4bc991107c2bbd47,626b377229c10585ec392f89,626b38ba6871a29d61042c8b,,,,,,,,,,,,,,,,,,,,,,,a,1,0.486,"[""0.214"",""0.354"",""0.623"",""0.941""]","[1,1,0,1]",0,37,37,37,1,0,0,,,0,FALSE,,,,,,,,,,,,,,,,,,,,,,,,,,,,,,
,sergio,001,2022-04-29_03h07.35.271,classification_task,2021.2.3,Win32,73.96449704,5f91fcfd4bc991107c2bbd47,626b377229c10585ec392f89,626b38ba6871a29d61042c8b,,,,,,,,,,,,,,,,,,,,,,,a,1,0.476,"[""0.655"",""0.448"",""0.779"",""0.893""]","[0,1,1,1]",0,38,38,38,1,0,1,,,0,FALSE,,,,,,,,,,,,,,,,,,,,,,,,,,,,,,
,sergio,001,2022-04-29_03h07.35.271,classification_task,2021.2.3,Win32,73.96449704,5f91fcfd4bc991107c2bbd47,626b377229c10585ec392f89,626b38ba6871a29d61042c8b,,,,,,,,,,,,,,,,,,,,,,,l,1,0.477,"[""0.059"",""0.623"",""0.506"",""0.691""]","[1,0,1,1]",0,39,39,39,1,1,0,,,0,FALSE,,,,,,,,,,,,,,,,,,,,,,,,,,,,,,
,sergio,001,2022-04-29_03h07.35.271,classification_task,2021.2.3,Win32,73.96449704,5f91fcfd4bc991107c2bbd47,626b377229c10585ec392f89,626b38ba6871a29d61042c8b,,,,,,,,,,,,,,,,,,,,,,,l,1,0.576,"[""0.130"",""0.637"",""0.569"",""0.738""]","[1,0,1,1]",0,40,40,40,1,1,1,,,0,FALSE,,,,,,,,,,,,,,,,,,,,,,,,,,,,,,
,sergio,001,2022-04-29_03h07.35.271,classification_task,2021.2.3,Win32,73.96449704,5f91fcfd4bc991107c2bbd47,626b377229c10585ec392f89,626b38ba6871a29d61042c8b,,,,,,,,,,,,,,,,,,,,,,,a,1,0.478,"[""0.173"",""0.448"",""0.974"",""0.893""]","[1,1,0,1]",0,41,41,41,1,0,1,,,0,FALSE,,,,,,,,,,,,,,,,,,,,,,,,,,,,,,
,sergio,001,2022-04-29_03h07.35.271,classification_task,2021.2.3,Win32,73.96449704,5f91fcfd4bc991107c2bbd47,626b377229c10585ec392f89,626b38ba6871a29d61042c8b,,,,,,,,,,,,,,,,,,,,,,,l,1,0.432,"[""0.059"",""0.251"",""0.391"",""0.691""]","[1,1,0,1]",0,42,42,42,1,1,0,,,0,FALSE,,,,,,,,,,,,,,,,,,,,,,,,,,,,,,
,sergio,001,2022-04-29_03h07.35.271,classification_task,2021.2.3,Win32,73.96449704,5f91fcfd4bc991107c2bbd47,626b377229c10585ec392f89,626b38ba6871a29d61042c8b,,,,,,,,,,,,,,,,,,,,,,,a,1,0.445,"[""0.637"",""0.354"",""0.844"",""0.941""]","[0,1,1,1]",0,43,43,43,1,0,0,,,0,FALSE,,,,,,,,,,,,,,,,,,,,,,,,,,,,,,
,sergio,001,2022-04-29_03h07.35.271,classification_task,2021.2.3,Win32,73.96449704,5f91fcfd4bc991107c2bbd47,626b377229c10585ec392f89,626b38ba6871a29d61042c8b,,,,,,,,,,,,,,,,,,,,,,,l,1,0.602,"[""0.621"",""0.303"",""0.569"",""0.738""]","[0,1,1,1]",0,44,44,44,1,1,1,,,0,FALSE,,,,,,,,,,,,,,,,,,,,,,,,,,,,,,
,sergio,001,2022-04-29_03h07.35.271,classification_task,2021.2.3,Win32,73.96449704,5f91fcfd4bc991107c2bbd47,626b377229c10585ec392f89,626b38ba6871a29d61042c8b,,,,,,,,,,,,,,,,,,,,,,,a,1,0.498,"[""0.214"",""0.354"",""0.844"",""0.621""]","[1,1,1,0]",0,45,45,45,1,0,0,,,0,FALSE,,,,,,,,,,,,,,,,,,,,,,,,,,,,,,
,sergio,001,2022-04-29_03h07.35.271,classification_task,2021.2.3,Win32,73.96449704,5f91fcfd4bc991107c2bbd47,626b377229c10585ec392f89,626b38ba6871a29d61042c8b,,,,,,,,,,,,,,,,,,,,,,,l,1,0.521,"[""0.130"",""0.303"",""0.569"",""0.635""]","[1,1,1,0]",0,46,46,46,1,1,1,,,0,FALSE,,,,,,,,,,,,,,,,,,,,,,,,,,,,,,
,sergio,001,2022-04-29_03h07.35.271,classification_task,2021.2.3,Win32,73.96449704,5f91fcfd4bc991107c2bbd47,626b377229c10585ec392f89,626b38ba6871a29d61042c8b,,,,,,,,,,,,,,,,,,,,,,,l,1,0.486,"[""0.059"",""0.251"",""0.506"",""0.621""]","[1,1,1,0]",0,47,47,47,1,1,0,,,0,FALSE,,,,,,,,,,,,,,,,,,,,,,,,,,,,,,
,sergio,001,2022-04-29_03h07.35.271,classification_task,2021.2.3,Win32,73.96449704,5f91fcfd4bc991107c2bbd47,626b377229c10585ec392f89,626b38ba6871a29d61042c8b,,,,,,,,,,,,,,,,,,,,,,,a,1,0.473,"[""0.173"",""0.603"",""0.779"",""0.893""]","[1,0,1,1]",0,48,48,48,1,0,1,,,0,FALSE,,,,,,,,,,,,,,,,,,,,,,,,,,,,,,
,sergio,001,2022-04-29_03h07.35.271,classification_task,2021.2.3,Win32,73.96449704,5f91fcfd4bc991107c2bbd47,626b377229c10585ec392f89,626b38ba6871a29d61042c8b,,,,,,,,,,,,,,,,,,,,,,,a,1,0.504,"[""0.655"",""0.354"",""0.844"",""0.941""]","[0,1,1,1]",0,49,49,49,1,0,0,,,0,FALSE,,,,,,,,,,,,,,,,,,,,,,,,,,,,,,
,sergio,001,2022-04-29_03h07.35.271,classification_task,2021.2.3,Win32,73.96449704,5f91fcfd4bc991107c2bbd47,626b377229c10585ec392f89,626b38ba6871a29d61042c8b,,,,,,,,,,,,,,,,,,,,,,,l,1,0.448,"[""0.059"",""0.096"",""0.506"",""0.691""]","[1,0,1,1]",0,50,50,50,1,1,0,,,0,FALSE,,,,,,,,,,,,,,,,,,,,,,,,,,,,,,
,sergio,001,2022-04-29_03h07.35.271,classification_task,2021.2.3,Win32,73.96449704,5f91fcfd4bc991107c2bbd47,626b377229c10585ec392f89,626b38ba6871a29d61042c8b,,,,,,,,,,,,,,,,,,,,,,,a,0,0.572,"[""0.621"",""0.303"",""0.569"",""0.738""]","[0,1,1,1]",0,51,51,51,1,1,1,,,0,FALSE,,,,,,,,,,,,,,,,,,,,,,,,,,,,,,
,sergio,001,2022-04-29_03h07.35.271,classification_task,2021.2.3,Win32,73.96449704,5f91fcfd4bc991107c2bbd47,626b377229c10585ec392f89,626b38ba6871a29d61042c8b,,,,,,,,,,,,,,,,,,,,,,,l,1,0.515,"[""0.130"",""0.303"",""0.569"",""0.616""]","[1,1,1,0]",0,52,52,52,1,1,1,,,0,FALSE,,,,,,,,,,,,,,,,,,,,,,,,,,,,,,
,sergio,001,2022-04-29_03h07.35.271,classification_task,2021.2.3,Win32,73.96449704,5f91fcfd4bc991107c2bbd47,626b377229c10585ec392f89,626b38ba6871a29d61042c8b,,,,,,,,,,,,,,,,,,,,,,,l,0,0.522,"[""0.173"",""0.448"",""0.779"",""0.403""]","[1,1,1,0]",0,53,53,53,1,0,1,,,0,FALSE,,,,,,,,,,,,,,,,,,,,,,,,,,,,,,
,sergio,001,2022-04-29_03h07.35.271,classification_task,2021.2.3,Win32,73.96449704,5f91fcfd4bc991107c2bbd47,626b377229c10585ec392f89,626b38ba6871a29d61042c8b,,,,,,,,,,,,,,,,,,,,,,,a,1,0.532,"[""0.173"",""0.448"",""0.603"",""0.893""]","[1,1,0,1]",0,54,54,54,1,0,1,,,0,FALSE,,,,,,,,,,,,,,,,,,,,,,,,,,,,,,
,sergio,001,2022-04-29_03h07.35.271,classification_task,2021.2.3,Win32,73.96449704,5f91fcfd4bc991107c2bbd47,626b377229c10585ec392f89,626b38ba6871a29d61042c8b,,,,,,,,,,,,,,,,,,,,,,,l,1,0.54,"[""0.059"",""0.251"",""0.506"",""0.637""]","[1,1,1,0]",0,55,55,55,1,1,0,,,0,FALSE,,,,,,,,,,,,,,,,,,,,,,,,,,,,,,
,sergio,001,2022-04-29_03h07.35.271,classification_task,2021.2.3,Win32,73.96449704,5f91fcfd4bc991107c2bbd47,626b377229c10585ec392f89,626b38ba6871a29d61042c8b,,,,,,,,,,,,,,,,,,,,,,,a,1,0.555,"[""0.214"",""0.391"",""0.844"",""0.941""]","[1,0,1,1]",0,56,56,56,1,0,0,,,0,FALSE,,,,,,,,,,,,,,,,,,,,,,,,,,,,,,
,sergio,001,2022-04-29_03h07.35.271,classification_task,2021.2.3,Win32,73.96449704,5f91fcfd4bc991107c2bbd47,626b377229c10585ec392f89,626b38ba6871a29d61042c8b,,,,,,,,,,,,,,,,,,,,,,,a,0,0.508,"[""0.130"",""0.974"",""0.569"",""0.738""]","[1,0,1,1]",0,57,57,57,1,1,1,,,0,FALSE,,,,,,,,,,,,,,,,,,,,,,,,,,,,,,
,sergio,001,2022-04-29_03h07.35.271,classification_task,2021.2.3,Win32,73.96449704,5f91fcfd4bc991107c2bbd47,626b377229c10585ec392f89,626b38ba6871a29d61042c8b,,,,,,,,,,,,,,,,,,,,,,,l,0,0.515,"[""0.214"",""0.354"",""0.844"",""0.403""]","[1,1,1,0]",0,58,58,58,1,0,0,,,0,FALSE,,,,,,,,,,,,,,,,,,,,,,,,,,,,,,
,sergio,001,2022-04-29_03h07.35.271,classification_task,2021.2.3,Win32,73.96449704,5f91fcfd4bc991107c2bbd47,626b377229c10585ec392f89,626b38ba6871a29d61042c8b,,,,,,,,,,,,,,,,,,,,,,,a,0,1.002,"[""0.403"",""0.251"",""0.506"",""0.691""]","[0,1,1,1]",0,59,59,59,1,1,0,,,0,FALSE,,,,,,,,,,,,,,,,,,,,,,,,,,,,,,
,sergio,001,2022-04-29_03h07.35.271,classification_task,2021.2.3,Win32,73.96449704,5f91fcfd4bc991107c2bbd47,626b377229c10585ec392f89,626b38ba6871a29d61042c8b,,,,,,,,,,,,,,,,,,,,,,,a,1,0.478,"[""0.214"",""0.354"",""0.603"",""0.941""]","[1,1,0,1]",0,60,60,60,1,0,0,,,0,FALSE,,,,,,,,,,,,,,,,,,,,,,,,,,,,,,
,sergio,001,2022-04-29_03h07.35.271,classification_task,2021.2.3,Win32,73.96449704,5f91fcfd4bc991107c2bbd47,626b377229c10585ec392f89,626b38ba6871a29d61042c8b,,,,,,,,,,,,,,,,,,,,,,,l,1,0.528,"[""0.130"",""0.303"",""0.611"",""0.738""]","[1,1,0,1]",0,61,61,61,1,1,1,,,0,FALSE,,,,,,,,,,,,,,,,,,,,,,,,,,,,,,
,sergio,001,2022-04-29_03h07.35.271,classification_task,2021.2.3,Win32,73.96449704,5f91fcfd4bc991107c2bbd47,626b377229c10585ec392f89,626b38ba6871a29d61042c8b,,,,,,,,,,,,,,,,,,,,,,,l,1,0.798,"[""0.059"",""0.251"",""0.394"",""0.691""]","[1,1,0,1]",0,62,62,62,1,1,0,,,0,FALSE,,,,,,,,,,,,,,,,,,,,,,,,,,,,,,
,sergio,001,2022-04-29_03h07.35.271,classification_task,2021.2.3,Win32,73.96449704,5f91fcfd4bc991107c2bbd47,626b377229c10585ec392f89,626b38ba6871a29d61042c8b,,,,,,,,,,,,,,,,,,,,,,,a,1,0.458,"[""0.611"",""0.448"",""0.779"",""0.893""]","[0,1,1,1]",0,63,63,63,1,0,1,,,0,FALSE,,,,,,,,,,,,,,,,,,,,,,,,,,,,,,
,sergio,001,2022-04-29_03h07.35.271,classification_task,2021.2.3,Win32,73.96449704,5f91fcfd4bc991107c2bbd47,626b377229c10585ec392f89,626b38ba6871a29d61042c8b,,,,,,,,,,,,,,,,,,,,,,,,,,,,,,,,,,,,,,,0, ,,0,2.354497354,108.288,0,1,1,1,1,2,2,,,,,,,,,,,,,,,,,
,sergio,001,2022-04-29_03h07.35.271,classification_task,2021.2.3,Win32,73.96449704,5f91fcfd4bc991107c2bbd47,626b377229c10585ec392f89,626b38ba6871a29d61042c8b,,,,,,,,,,,,,,,,,,,,,,,,,,,,,,,,,,,,,,,1,  ,,0,8.968253968,112.897,0,1,1,1,1,2,2,,,,,,,,,,,,,,,,,
,sergio,001,2022-04-29_03h07.35.271,classification_task,2021.2.3,Win32,73.96449704,5f91fcfd4bc991107c2bbd47,626b377229c10585ec392f89,626b38ba6871a29d61042c8b,,,,,,,,,,,,,,,,,,,,,,,,,,,,,,,,,,,,,,,2,  ,,0,4.583578287,120.946,0,1,1,1,1,2,2,,,,,,,,,,,,,,,,,
,sergio,001,2022-04-29_03h07.35.271,classification_task,2021.2.3,Win32,73.96449704,5f91fcfd4bc991107c2bbd47,626b377229c10585ec392f89,626b38ba6871a29d61042c8b,,,,,,,,,,,,,,,,,,,,,,,,,,,,,,,,,,,,,,,,,,,,,0,1,1,1,1,,2,,,,,,,,,,,,,,,,,
,sergio,001,2022-04-29_03h07.35.271,classification_task,2021.2.3,Win32,73.96449704,5f91fcfd4bc991107c2bbd47,626b377229c10585ec392f89,626b38ba6871a29d61042c8b,,,,,,,,,,,,,,,,,,,,,space,3.569,l,1,0.542,"[""0.059"",""0.655"",""0.506"",""0.691""]","[1,0,1,1]",0,0,0,0,1,1,0,,,0,FALSE,,,,,,,,,,,,,,,,,,,,,,,,,,,,,,
,sergio,001,2022-04-29_03h07.35.271,classification_task,2021.2.3,Win32,73.96449704,5f91fcfd4bc991107c2bbd47,626b377229c10585ec392f89,626b38ba6871a29d61042c8b,,,,,,,,,,,,,,,,,,,,,,,l,1,0.61,"[""0.059"",""0.251"",""0.506"",""0.404""]","[1,1,1,0]",0,1,1,1,1,1,0,,,0,FALSE,,,,,,,,,,,,,,,,,,,,,,,,,,,,,,
,sergio,001,2022-04-29_03h07.35.271,classification_task,2021.2.3,Win32,73.96449704,5f91fcfd4bc991107c2bbd47,626b377229c10585ec392f89,626b38ba6871a29d61042c8b,,,,,,,,,,,,,,,,,,,,,,,l,1,0.616,"[""0.130"",""0.303"",""0.394"",""0.738""]","[1,1,0,1]",0,2,2,2,1,1,1,,,0,FALSE,,,,,,,,,,,,,,,,,,,,,,,,,,,,,,
,sergio,001,2022-04-29_03h07.35.271,classification_task,2021.2.3,Win32,73.96449704,5f91fcfd4bc991107c2bbd47,626b377229c10585ec392f89,626b38ba6871a29d61042c8b,,,,,,,,,,,,,,,,,,,,,,,a,1,0.501,"[""0.214"",""0.354"",""0.621"",""0.941""]","[1,1,0,1]",0,3,3,3,1,0,0,,,0,FALSE,,,,,,,,,,,,,,,,,,,,,,,,,,,,,,
,sergio,001,2022-04-29_03h07.35.271,classification_task,2021.2.3,Win32,73.96449704,5f91fcfd4bc991107c2bbd47,626b377229c10585ec392f89,626b38ba6871a29d61042c8b,,,,,,,,,,,,,,,,,,,,,,,l,0,0.623,"[""0.173"",""0.448"",""0.096"",""0.893""]","[1,1,0,1]",0,4,4,4,1,0,1,,,0,FALSE,,,,,,,,,,,,,,,,,,,,,,,,,,,,,,
,sergio,001,2022-04-29_03h07.35.271,classification_task,2021.2.3,Win32,73.96449704,5f91fcfd4bc991107c2bbd47,626b377229c10585ec392f89,626b38ba6871a29d61042c8b,,,,,,,,,,,,,,,,,,,,,,,l,1,0.486,"[""0.059"",""0.251"",""0.603"",""0.691""]","[1,1,0,1]",0,5,5,5,1,1,0,,,0,FALSE,,,,,,,,,,,,,,,,,,,,,,,,,,,,,,
,sergio,001,2022-04-29_03h07.35.271,classification_task,2021.2.3,Win32,73.96449704,5f91fcfd4bc991107c2bbd47,626b377229c10585ec392f89,626b38ba6871a29d61042c8b,,,,,,,,,,,,,,,,,,,,,,,l,1,0.588,"[""0.130"",""0.621"",""0.569"",""0.738""]","[1,0,1,1]",0,6,6,6,1,1,1,,,0,FALSE,,,,,,,,,,,,,,,,,,,,,,,,,,,,,,
,sergio,001,2022-04-29_03h07.35.271,classification_task,2021.2.3,Win32,73.96449704,5f91fcfd4bc991107c2bbd47,626b377229c10585ec392f89,626b38ba6871a29d61042c8b,,,,,,,,,,,,,,,,,,,,,,,a,1,0.475,"[""0.214"",""0.354"",""0.844"",""0.637""]","[1,1,1,0]",0,7,7,7,1,0,0,,,0,FALSE,,,,,,,,,,,,,,,,,,,,,,,,,,,,,,
,sergio,001,2022-04-29_03h07.35.271,classification_task,2021.2.3,Win32,73.96449704,5f91fcfd4bc991107c2bbd47,626b377229c10585ec392f89,626b38ba6871a29d61042c8b,,,,,,,,,,,,,,,,,,,,,,,l,1,0.514,"[""0.394"",""0.251"",""0.506"",""0.691""]","[0,1,1,1]",0,8,8,8,1,1,0,,,0,FALSE,,,,,,,,,,,,,,,,,,,,,,,,,,,,,,
,sergio,001,2022-04-29_03h07.35.271,classification_task,2021.2.3,Win32,73.96449704,5f91fcfd4bc991107c2bbd47,626b377229c10585ec392f89,626b38ba6871a29d61042c8b,,,,,,,,,,,,,,,,,,,,,,,a,1,0.667,"[""0.173"",""0.448"",""0.779"",""0.394""]","[1,1,1,0]",0,9,9,9,1,0,1,,,0,FALSE,,,,,,,,,,,,,,,,,,,,,,,,,,,,,,
,sergio,001,2022-04-29_03h07.35.271,classification_task,2021.2.3,Win32,73.96449704,5f91fcfd4bc991107c2bbd47,626b377229c10585ec392f89,626b38ba6871a29d61042c8b,,,,,,,,,,,,,,,,,,,,,,,l,1,0.561,"[""0.130"",""0.303"",""0.569"",""0.404""]","[1,1,1,0]",0,10,10,10,1,1,1,,,0,FALSE,,,,,,,,,,,,,,,,,,,,,,,,,,,,,,
,sergio,001,2022-04-29_03h07.35.271,classification_task,2021.2.3,Win32,73.96449704,5f91fcfd4bc991107c2bbd47,626b377229c10585ec392f89,626b38ba6871a29d61042c8b,,,,,,,,,,,,,,,,,,,,,,,a,1,0.596,"[""0.655"",""0.448"",""0.779"",""0.893""]","[0,1,1,1]",0,11,11,11,1,0,1,,,0,FALSE,,,,,,,,,,,,,,,,,,,,,,,,,,,,,,
,sergio,001,2022-04-29_03h07.35.271,classification_task,2021.2.3,Win32,73.96449704,5f91fcfd4bc991107c2bbd47,626b377229c10585ec392f89,626b38ba6871a29d61042c8b,,,,,,,,,,,,,,,,,,,,,,,a,1,0.697,"[""0.173"",""0.655"",""0.779"",""0.893""]","[1,0,1,1]",0,12,12,12,1,0,1,,,0,FALSE,,,,,,,,,,,,,,,,,,,,,,,,,,,,,,
,sergio,001,2022-04-29_03h07.35.271,classification_task,2021.2.3,Win32,73.96449704,5f91fcfd4bc991107c2bbd47,626b377229c10585ec392f89,626b38ba6871a29d61042c8b,,,,,,,,,,,,,,,,,,,,,,,a,1,0.545,"[""0.214"",""0.404"",""0.844"",""0.941""]","[1,0,1,1]",0,13,13,13,1,0,0,,,0,FALSE,,,,,,,,,,,,,,,,,,,,,,,,,,,,,,
,sergio,001,2022-04-29_03h07.35.271,classification_task,2021.2.3,Win32,73.96449704,5f91fcfd4bc991107c2bbd47,626b377229c10585ec392f89,626b38ba6871a29d61042c8b,,,,,,,,,,,,,,,,,,,,,,,l,1,0.675,"[""0.616"",""0.303"",""0.569"",""0.738""]","[0,1,1,1]",0,14,14,14,1,1,1,,,0,FALSE,,,,,,,,,,,,,,,,,,,,,,,,,,,,,,
,sergio,001,2022-04-29_03h07.35.271,classification_task,2021.2.3,Win32,73.96449704,5f91fcfd4bc991107c2bbd47,626b377229c10585ec392f89,626b38ba6871a29d61042c8b,,,,,,,,,,,,,,,,,,,,,,,a,1,0.459,"[""0.391"",""0.354"",""0.844"",""0.941""]","[0,1,1,1]",0,15,15,15,1,0,0,,,0,FALSE,,,,,,,,,,,,,,,,,,,,,,,,,,,,,,
,sergio,001,2022-04-29_03h07.35.271,classification_task,2021.2.3,Win32,73.96449704,5f91fcfd4bc991107c2bbd47,626b377229c10585ec392f89,626b38ba6871a29d61042c8b,,,,,,,,,,,,,,,,,,,,,,,l,1,0.503,"[""0.059"",""0.251"",""0.394"",""0.691""]","[1,1,0,1]",0,16,16,16,1,1,0,,,0,FALSE,,,,,,,,,,,,,,,,,,,,,,,,,,,,,,
,sergio,001,2022-04-29_03h07.35.271,classification_task,2021.2.3,Win32,73.96449704,5f91fcfd4bc991107c2bbd47,626b377229c10585ec392f89,626b38ba6871a29d61042c8b,,,,,,,,,,,,,,,,,,,,,,,a,1,0.514,"[""0.173"",""0.635"",""0.779"",""0.893""]","[1,0,1,1]",0,17,17,17,1,0,1,,,0,FALSE,,,,,,,,,,,,,,,,,,,,,,,,,,,,,,
,sergio,001,2022-04-29_03h07.35.271,classification_task,2021.2.3,Win32,73.96449704,5f91fcfd4bc991107c2bbd47,626b377229c10585ec392f89,626b38ba6871a29d61042c8b,,,,,,,,,,,,,,,,,,,,,,,l,1,0.569,"[""0.059"",""0.403"",""0.506"",""0.691""]","[1,0,1,1]",0,18,18,18,1,1,0,,,0,FALSE,,,,,,,,,,,,,,,,,,,,,,,,,,,,,,
,sergio,001,2022-04-29_03h07.35.271,classification_task,2021.2.3,Win32,73.96449704,5f91fcfd4bc991107c2bbd47,626b377229c10585ec392f89,626b38ba6871a29d61042c8b,,,,,,,,,,,,,,,,,,,,,,,l,0,1.562,"[""0.173"",""0.448"",""0.779"",""0.635""]","[1,1,1,0]",0,19,19,19,1,0,1,,,0,FALSE,,,,,,,,,,,,,,,,,,,,,,,,,,,,,,
,sergio,001,2022-04-29_03h07.35.271,classification_task,2021.2.3,Win32,73.96449704,5f91fcfd4bc991107c2bbd47,626b377229c10585ec392f89,626b38ba6871a29d61042c8b,,,,,,,,,,,,,,,,,,,,,,,a,0,0.643,"[""0.394"",""0.251"",""0.506"",""0.691""]","[0,1,1,1]",0,20,20,20,1,1,0,,,0,FALSE,,,,,,,,,,,,,,,,,,,,,,,,,,,,,,
,sergio,001,2022-04-29_03h07.35.271,classification_task,2021.2.3,Win32,73.96449704,5f91fcfd4bc991107c2bbd47,626b377229c10585ec392f89,626b38ba6871a29d61042c8b,,,,,,,,,,,,,,,,,,,,,,,a,1,0.819,"[""0.616"",""0.448"",""0.779"",""0.893""]","[0,1,1,1]",0,21,21,21,1,0,1,,,0,FALSE,,,,,,,,,,,,,,,,,,,,,,,,,,,,,,
,sergio,001,2022-04-29_03h07.35.271,classification_task,2021.2.3,Win32,73.96449704,5f91fcfd4bc991107c2bbd47,626b377229c10585ec392f89,626b38ba6871a29d61042c8b,,,,,,,,,,,,,,,,,,,,,,,a,1,0.744,"[""0.096"",""0.354"",""0.844"",""0.941""]","[0,1,1,1]",0,22,22,22,1,0,0,,,0,FALSE,,,,,,,,,,,,,,,,,,,,,,,,,,,,,,
,sergio,001,2022-04-29_03h07.35.271,classification_task,2021.2.3,Win32,73.96449704,5f91fcfd4bc991107c2bbd47,626b377229c10585ec392f89,626b38ba6871a29d61042c8b,,,,,,,,,,,,,,,,,,,,,,,a,1,0.455,"[""0.214"",""0.603"",""0.844"",""0.941""]","[1,0,1,1]",0,23,23,23,1,0,0,,,0,FALSE,,,,,,,,,,,,,,,,,,,,,,,,,,,,,,
,sergio,001,2022-04-29_03h07.35.271,classification_task,2021.2.3,Win32,73.96449704,5f91fcfd4bc991107c2bbd47,626b377229c10585ec392f89,626b38ba6871a29d61042c8b,,,,,,,,,,,,,,,,,,,,,,,l,1,0.547,"[""0.130"",""0.303"",""0.569"",""0.404""]","[1,1,1,0]",0,24,24,24,1,1,1,,,0,FALSE,,,,,,,,,,,,,,,,,,,,,,,,,,,,,,
,sergio,001,2022-04-29_03h07.35.271,classification_task,2021.2.3,Win32,73.96449704,5f91fcfd4bc991107c2bbd47,626b377229c10585ec392f89,626b38ba6871a29d61042c8b,,,,,,,,,,,,,,,,,,,,,,,a,1,0.482,"[""0.214"",""0.354"",""0.621"",""0.941""]","[1,1,0,1]",0,25,25,25,1,0,0,,,0,FALSE,,,,,,,,,,,,,,,,,,,,,,,,,,,,,,
,sergio,001,2022-04-29_03h07.35.271,classification_task,2021.2.3,Win32,73.96449704,5f91fcfd4bc991107c2bbd47,626b377229c10585ec392f89,626b38ba6871a29d61042c8b,,,,,,,,,,,,,,,,,,,,,,,a,1,0.467,"[""0.214"",""0.354"",""0.844"",""0.974""]","[1,1,1,0]",0,26,26,26,1,0,0,,,0,FALSE,,,,,,,,,,,,,,,,,,,,,,,,,,,,,,
,sergio,001,2022-04-29_03h07.35.271,classification_task,2021.2.3,Win32,73.96449704,5f91fcfd4bc991107c2bbd47,626b377229c10585ec392f89,626b38ba6871a29d61042c8b,,,,,,,,,,,,,,,,,,,,,,,l,1,0.531,"[""0.059"",""0.251"",""0.506"",""0.644""]","[1,1,1,0]",0,27,27,27,1,1,0,,,0,FALSE,,,,,,,,,,,,,,,,,,,,,,,,,,,,,,
,sergio,001,2022-04-29_03h07.35.271,classification_task,2021.2.3,Win32,73.96449704,5f91fcfd4bc991107c2bbd47,626b377229c10585ec392f89,626b38ba6871a29d61042c8b,,,,,,,,,,,,,,,,,,,,,,,a,1,0.571,"[""0.173"",""0.448"",""0.394"",""0.893""]","[1,1,0,1]",0,28,28,28,1,0,1,,,0,FALSE,,,,,,,,,,,,,,,,,,,,,,,,,,,,,,
,sergio,001,2022-04-29_03h07.35.271,classification_task,2021.2.3,Win32,73.96449704,5f91fcfd4bc991107c2bbd47,626b377229c10585ec392f89,626b38ba6871a29d61042c8b,,,,,,,,,,,,,,,,,,,,,,,l,1,0.582,"[""0.130"",""0.623"",""0.569"",""0.738""]","[1,0,1,1]",0,29,29,29,1,1,1,,,0,FALSE,,,,,,,,,,,,,,,,,,,,,,,,,,,,,,
,sergio,001,2022-04-29_03h07.35.271,classification_task,2021.2.3,Win32,73.96449704,5f91fcfd4bc991107c2bbd47,626b377229c10585ec392f89,626b38ba6871a29d61042c8b,,,,,,,,,,,,,,,,,,,,,,,l,1,0.569,"[""0.130"",""0.303"",""0.096"",""0.738""]","[1,1,0,1]",0,30,30,30,1,1,1,,,0,FALSE,,,,,,,,,,,,,,,,,,,,,,,,,,,,,,
,sergio,001,2022-04-29_03h07.35.271,classification_task,2021.2.3,Win32,73.96449704,5f91fcfd4bc991107c2bbd47,626b377229c10585ec392f89,626b38ba6871a29d61042c8b,,,,,,,,,,,,,,,,,,,,,,,a,0,0.586,"[""0.623"",""0.303"",""0.569"",""0.738""]","[0,1,1,1]",0,31,31,31,1,1,1,,,0,FALSE,,,,,,,,,,,,,,,,,,,,,,,,,,,,,,
,sergio,001,2022-04-29_03h07.35.271,classification_task,2021.2.3,Win32,73.96449704,5f91fcfd4bc991107c2bbd47,626b377229c10585ec392f89,626b38ba6871a29d61042c8b,,,,,,,,,,,,,,,,,,,,,,,l,1,0.479,"[""0.059"",""0.616"",""0.506"",""0.691""]","[1,0,1,1]",0,32,32,32,1,1,0,,,0,FALSE,,,,,,,,,,,,,,,,,,,,,,,,,,,,,,
,sergio,001,2022-04-29_03h07.35.271,classification_task,2021.2.3,Win32,73.96449704,5f91fcfd4bc991107c2bbd47,626b377229c10585ec392f89,626b38ba6871a29d61042c8b,,,,,,,,,,,,,,,,,,,,,,,l,1,0.658,"[""0.635"",""0.303"",""0.569"",""0.738""]","[0,1,1,1]",0,33,33,33,1,1,1,,,0,FALSE,,,,,,,,,,,,,,,,,,,,,,,,,,,,,,
,sergio,001,2022-04-29_03h07.35.271,classification_task,2021.2.3,Win32,73.96449704,5f91fcfd4bc991107c2bbd47,626b377229c10585ec392f89,626b38ba6871a29d61042c8b,,,,,,,,,,,,,,,,,,,,,,,l,1,0.547,"[""0.130"",""0.303"",""0.635"",""0.738""]","[1,1,0,1]",0,34,34,34,1,1,1,,,0,FALSE,,,,,,,,,,,,,,,,,,,,,,,,,,,,,,
,sergio,001,2022-04-29_03h07.35.271,classification_task,2021.2.3,Win32,73.96449704,5f91fcfd4bc991107c2bbd47,626b377229c10585ec392f89,626b38ba6871a29d61042c8b,,,,,,,,,,,,,,,,,,,,,,,l,1,0.677,"[""0.059"",""0.251"",""0.611"",""0.691""]","[1,1,0,1]",0,35,35,35,1,1,0,,,0,FALSE,,,,,,,,,,,,,,,,,,,,,,,,,,,,,,
,sergio,001,2022-04-29_03h07.35.271,classification_task,2021.2.3,Win32,73.96449704,5f91fcfd4bc991107c2bbd47,626b377229c10585ec392f89,626b38ba6871a29d61042c8b,,,,,,,,,,,,,,,,,,,,,,,a,1,0.44,"[""0.173"",""0.394"",""0.779"",""0.893""]","[1,0,1,1]",0,36,36,36,1,0,1,,,0,FALSE,,,,,,,,,,,,,,,,,,,,,,,,,,,,,,
,sergio,001,2022-04-29_03h07.35.271,classification_task,2021.2.3,Win32,73.96449704,5f91fcfd4bc991107c2bbd47,626b377229c10585ec392f89,626b38ba6871a29d61042c8b,,,,,,,,,,,,,,,,,,,,,,,a,1,0.501,"[""0.974"",""0.448"",""0.779"",""0.893""]","[0,1,1,1]",0,37,37,37,1,0,1,,,0,FALSE,,,,,,,,,,,,,,,,,,,,,,,,,,,,,,
,sergio,001,2022-04-29_03h07.35.271,classification_task,2021.2.3,Win32,73.96449704,5f91fcfd4bc991107c2bbd47,626b377229c10585ec392f89,626b38ba6871a29d61042c8b,,,,,,,,,,,,,,,,,,,,,,,a,1,0.541,"[""0.214"",""0.403"",""0.844"",""0.941""]","[1,0,1,1]",0,38,38,38,1,0,0,,,0,FALSE,,,,,,,,,,,,,,,,,,,,,,,,,,,,,,
,sergio,001,2022-04-29_03h07.35.271,classification_task,2021.2.3,Win32,73.96449704,5f91fcfd4bc991107c2bbd47,626b377229c10585ec392f89,626b38ba6871a29d61042c8b,,,,,,,,,,,,,,,,,,,,,,,a,1,0.616,"[""0.214"",""0.354"",""0.404"",""0.941""]","[1,1,0,1]",0,39,39,39,1,0,0,,,0,FALSE,,,,,,,,,,,,,,,,,,,,,,,,,,,,,,
,sergio,001,2022-04-29_03h07.35.271,classification_task,2021.2.3,Win32,73.96449704,5f91fcfd4bc991107c2bbd47,626b377229c10585ec392f89,626b38ba6871a29d61042c8b,,,,,,,,,,,,,,,,,,,,,,,a,1,0.42,"[""0.644"",""0.354"",""0.844"",""0.941""]","[0,1,1,1]",0,40,40,40,1,0,0,,,0,FALSE,,,,,,,,,,,,,,,,,,,,,,,,,,,,,,
,sergio,001,2022-04-29_03h07.35.271,classification_task,2021.2.3,Win32,73.96449704,5f91fcfd4bc991107c2bbd47,626b377229c10585ec392f89,626b38ba6871a29d61042c8b,,,,,,,,,,,,,,,,,,,,,,,l,1,0.636,"[""0.130"",""0.611"",""0.569"",""0.738""]","[1,0,1,1]",0,41,41,41,1,1,1,,,0,FALSE,,,,,,,,,,,,,,,,,,,,,,,,,,,,,,
,sergio,001,2022-04-29_03h07.35.271,classification_task,2021.2.3,Win32,73.96449704,5f91fcfd4bc991107c2bbd47,626b377229c10585ec392f89,626b38ba6871a29d61042c8b,,,,,,,,,,,,,,,,,,,,,,,l,0,0.635,"[""0.173"",""0.448"",""0.779"",""0.635""]","[1,1,1,0]",0,42,42,42,1,0,1,,,0,FALSE,,,,,,,,,,,,,,,,,,,,,,,,,,,,,,
,sergio,001,2022-04-29_03h07.35.271,classification_task,2021.2.3,Win32,73.96449704,5f91fcfd4bc991107c2bbd47,626b377229c10585ec392f89,626b38ba6871a29d61042c8b,,,,,,,,,,,,,,,,,,,,,,,l,1,0.936,"[""0.059"",""0.251"",""0.506"",""0.623""]","[1,1,1,0]",0,43,43,43,1,1,0,,,0,FALSE,,,,,,,,,,,,,,,,,,,,,,,,,,,,,,
,sergio,001,2022-04-29_03h07.35.271,classification_task,2021.2.3,Win32,73.96449704,5f91fcfd4bc991107c2bbd47,626b377229c10585ec392f89,626b38ba6871a29d61042c8b,,,,,,,,,,,,,,,,,,,,,,,a,0,0.56,"[""0.974"",""0.251"",""0.506"",""0.691""]","[0,1,1,1]",0,44,44,44,1,1,0,,,0,FALSE,,,,,,,,,,,,,,,,,,,,,,,,,,,,,,
,sergio,001,2022-04-29_03h07.35.271,classification_task,2021.2.3,Win32,73.96449704,5f91fcfd4bc991107c2bbd47,626b377229c10585ec392f89,626b38ba6871a29d61042c8b,,,,,,,,,,,,,,,,,,,,,,,l,0,0.896,"[""0.214"",""0.354"",""0.844"",""0.611""]","[1,1,1,0]",0,45,45,45,1,0,0,,,0,FALSE,,,,,,,,,,,,,,,,,,,,,,,,,,,,,,
,sergio,001,2022-04-29_03h07.35.271,classification_task,2021.2.3,Win32,73.96449704,5f91fcfd4bc991107c2bbd47,626b377229c10585ec392f89,626b38ba6871a29d61042c8b,,,,,,,,,,,,,,,,,,,,,,,a,1,0.496,"[""0.173"",""0.448"",""0.616"",""0.893""]","[1,1,0,1]",0,46,46,46,1,0,1,,,0,FALSE,,,,,,,,,,,,,,,,,,,,,,,,,,,,,,
,sergio,001,2022-04-29_03h07.35.271,classification_task,2021.2.3,Win32,73.96449704,5f91fcfd4bc991107c2bbd47,626b377229c10585ec392f89,626b38ba6871a29d61042c8b,,,,,,,,,,,,,,,,,,,,,,,l,1,0.515,"[""0.130"",""0.303"",""0.569"",""0.637""]","[1,1,1,0]",0,47,47,47,1,1,1,,,0,FALSE,,,,,,,,,,,,,,,,,,,,,,,,,,,,,,
,sergio,001,2022-04-29_03h07.35.271,classification_task,2021.2.3,Win32,73.96449704,5f91fcfd4bc991107c2bbd47,626b377229c10585ec392f89,626b38ba6871a29d61042c8b,,,,,,,,,,,,,,,,,,,,,,,l,1,0.844,"[""0.130"",""0.394"",""0.569"",""0.738""]","[1,0,1,1]",0,48,48,48,1,1,1,,,0,FALSE,,,,,,,,,,,,,,,,,,,,,,,,,,,,,,
,sergio,001,2022-04-29_03h07.35.271,classification_task,2021.2.3,Win32,73.96449704,5f91fcfd4bc991107c2bbd47,626b377229c10585ec392f89,626b38ba6871a29d61042c8b,,,,,,,,,,,,,,,,,,,,,,,l,1,0.48,"[""0.130"",""0.303"",""0.569"",""0.623""]","[1,1,1,0]",0,49,49,49,1,1,1,,,0,FALSE,,,,,,,,,,,,,,,,,,,,,,,,,,,,,,
,sergio,001,2022-04-29_03h07.35.271,classification_task,2021.2.3,Win32,73.96449704,5f91fcfd4bc991107c2bbd47,626b377229c10585ec392f89,626b38ba6871a29d61042c8b,,,,,,,,,,,,,,,,,,,,,,,l,1,0.567,"[""0.059"",""0.251"",""0.506"",""0.655""]","[1,1,1,0]",0,50,50,50,1,1,0,,,0,FALSE,,,,,,,,,,,,,,,,,,,,,,,,,,,,,,
,sergio,001,2022-04-29_03h07.35.271,classification_task,2021.2.3,Win32,73.96449704,5f91fcfd4bc991107c2bbd47,626b377229c10585ec392f89,626b38ba6871a29d61042c8b,,,,,,,,,,,,,,,,,,,,,,,a,1,0.569,"[""0.214"",""0.354"",""0.623"",""0.941""]","[1,1,0,1]",0,51,51,51,1,0,0,,,0,FALSE,,,,,,,,,,,,,,,,,,,,,,,,,,,,,,
,sergio,001,2022-04-29_03h07.35.271,classification_task,2021.2.3,Win32,73.96449704,5f91fcfd4bc991107c2bbd47,626b377229c10585ec392f89,626b38ba6871a29d61042c8b,,,,,,,,,,,,,,,,,,,,,,,a,1,0.448,"[""0.404"",""0.354"",""0.844"",""0.941""]","[0,1,1,1]",0,52,52,52,1,0,0,,,0,FALSE,,,,,,,,,,,,,,,,,,,,,,,,,,,,,,
,sergio,001,2022-04-29_03h07.35.271,classification_task,2021.2.3,Win32,73.96449704,5f91fcfd4bc991107c2bbd47,626b377229c10585ec392f89,626b38ba6871a29d61042c8b,,,,,,,,,,,,,,,,,,,,,,,a,1,0.567,"[""0.173"",""0.603"",""0.779"",""0.893""]","[1,0,1,1]",0,53,53,53,1,0,1,,,0,FALSE,,,,,,,,,,,,,,,,,,,,,,,,,,,,,,
,sergio,001,2022-04-29_03h07.35.271,classification_task,2021.2.3,Win32,73.96449704,5f91fcfd4bc991107c2bbd47,626b377229c10585ec392f89,626b38ba6871a29d61042c8b,,,,,,,,,,,,,,,,,,,,,,,l,1,0.635,"[""0.637"",""0.251"",""0.506"",""0.691""]","[0,1,1,1]",0,54,54,54,1,1,0,,,0,FALSE,,,,,,,,,,,,,,,,,,,,,,,,,,,,,,
,sergio,001,2022-04-29_03h07.35.271,classification_task,2021.2.3,Win32,73.96449704,5f91fcfd4bc991107c2bbd47,626b377229c10585ec392f89,626b38ba6871a29d61042c8b,,,,,,,,,,,,,,,,,,,,,,,a,1,0.555,"[""0.637"",""0.448"",""0.779"",""0.893""]","[0,1,1,1]",0,55,55,55,1,0,1,,,0,FALSE,,,,,,,,,,,,,,,,,,,,,,,,,,,,,,
,sergio,001,2022-04-29_03h07.35.271,classification_task,2021.2.3,Win32,73.96449704,5f91fcfd4bc991107c2bbd47,626b377229c10585ec392f89,626b38ba6871a29d61042c8b,,,,,,,,,,,,,,,,,,,,,,,l,1,0.447,"[""0.130"",""0.303"",""0.637"",""0.738""]","[1,1,0,1]",0,56,56,56,1,1,1,,,0,FALSE,,,,,,,,,,,,,,,,,,,,,,,,,,,,,,
,sergio,001,2022-04-29_03h07.35.271,classification_task,2021.2.3,Win32,73.96449704,5f91fcfd4bc991107c2bbd47,626b377229c10585ec392f89,626b38ba6871a29d61042c8b,,,,,,,,,,,,,,,,,,,,,,,a,1,0.534,"[""0.214"",""0.354"",""0.844"",""0.616""]","[1,1,1,0]",0,57,57,57,1,0,0,,,0,FALSE,,,,,,,,,,,,,,,,,,,,,,,,,,,,,,
,sergio,001,2022-04-29_03h07.35.271,classification_task,2021.2.3,Win32,73.96449704,5f91fcfd4bc991107c2bbd47,626b377229c10585ec392f89,626b38ba6871a29d61042c8b,,,,,,,,,,,,,,,,,,,,,,,l,1,0.515,"[""0.059"",""0.616"",""0.506"",""0.691""]","[1,0,1,1]",0,58,58,58,1,1,0,,,0,FALSE,,,,,,,,,,,,,,,,,,,,,,,,,,,,,,
,sergio,001,2022-04-29_03h07.35.271,classification_task,2021.2.3,Win32,73.96449704,5f91fcfd4bc991107c2bbd47,626b377229c10585ec392f89,626b38ba6871a29d61042c8b,,,,,,,,,,,,,,,,,,,,,,,l,1,0.681,"[""0.404"",""0.303"",""0.569"",""0.738""]","[0,1,1,1]",0,59,59,59,1,1,1,,,0,FALSE,,,,,,,,,,,,,,,,,,,,,,,,,,,,,,
,sergio,001,2022-04-29_03h07.35.271,classification_task,2021.2.3,Win32,73.96449704,5f91fcfd4bc991107c2bbd47,626b377229c10585ec392f89,626b38ba6871a29d61042c8b,,,,,,,,,,,,,,,,,,,,,,,l,1,0.515,"[""0.059"",""0.251"",""0.635"",""0.691""]","[1,1,0,1]",0,60,60,60,1,1,0,,,0,FALSE,,,,,,,,,,,,,,,,,,,,,,,,,,,,,,
,sergio,001,2022-04-29_03h07.35.271,classification_task,2021.2.3,Win32,73.96449704,5f91fcfd4bc991107c2bbd47,626b377229c10585ec392f89,626b38ba6871a29d61042c8b,,,,,,,,,,,,,,,,,,,,,,,a,1,0.412,"[""0.214"",""0.096"",""0.844"",""0.941""]","[1,0,1,1]",0,61,61,61,1,0,0,,,0,FALSE,,,,,,,,,,,,,,,,,,,,,,,,,,,,,,
,sergio,001,2022-04-29_03h07.35.271,classification_task,2021.2.3,Win32,73.96449704,5f91fcfd4bc991107c2bbd47,626b377229c10585ec392f89,626b38ba6871a29d61042c8b,,,,,,,,,,,,,,,,,,,,,,,a,1,0.611,"[""0.173"",""0.448"",""0.644"",""0.893""]","[1,1,0,1]",0,62,62,62,1,0,1,,,0,FALSE,,,,,,,,,,,,,,,,,,,,,,,,,,,,,,
,sergio,001,2022-04-29_03h07.35.271,classification_task,2021.2.3,Win32,73.96449704,5f91fcfd4bc991107c2bbd47,626b377229c10585ec392f89,626b38ba6871a29d61042c8b,,,,,,,,,,,,,,,,,,,,,,,a,1,0.492,"[""0.173"",""0.448"",""0.779"",""0.974""]","[1,1,1,0]",0,63,63,63,1,0,1,,,0,FALSE,,,,,,,,,,,,,,,,,,,,,,,,,,,,,,
,sergio,001,2022-04-29_03h07.35.271,classification_task,2021.2.3,Win32,73.96449704,5f91fcfd4bc991107c2bbd47,626b377229c10585ec392f89,626b38ba6871a29d61042c8b,,,,,,,,,,,,,,,,,,,,,,,,,,,,,,,,,,,,,,,0, ,,0,5.710366451,112.383,0,2,2,2,1,2,3,,,,,,,,,,,,,,,,,
,sergio,001,2022-04-29_03h07.35.271,classification_task,2021.2.3,Win32,73.96449704,5f91fcfd4bc991107c2bbd47,626b377229c10585ec392f89,626b38ba6871a29d61042c8b,,,,,,,,,,,,,,,,,,,,,,,,,,,,,,,,,,,,,,,1,  ,,0,7.229080933,115.905,0,2,2,2,1,2,3,,,,,,,,,,,,,,,,,
,sergio,001,2022-04-29_03h07.35.271,classification_task,2021.2.3,Win32,73.96449704,5f91fcfd4bc991107c2bbd47,626b377229c10585ec392f89,626b38ba6871a29d61042c8b,,,,,,,,,,,,,,,,,,,,,,,,,,,,,,,,,,,,,,,2,  ,,0,5.685871056,117.783,0,2,2,2,1,2,3,,,,,,,,,,,,,,,,,
,sergio,001,2022-04-29_03h07.35.271,classification_task,2021.2.3,Win32,73.96449704,5f91fcfd4bc991107c2bbd47,626b377229c10585ec392f89,626b38ba6871a29d61042c8b,,,,,,,,,,,,,,,,,,,,,,,,,,,,,,,,,,,,,,,,,,,,,0,2,2,2,1,,3,,,,,,,,,,,,,,,,,
,sergio,001,2022-04-29_03h07.35.271,classification_task,2021.2.3,Win32,73.96449704,5f91fcfd4bc991107c2bbd47,626b377229c10585ec392f89,626b38ba6871a29d61042c8b,,,,,,,,,,,,,,,,,,,,,,,,,,,,,,,,,,,,,,,,,,,,,,,,,,,,,I believe the aid is a competent performer,,0.7,0,3,514.584,0,0,0,0,1,0,,,,
,sergio,001,2022-04-29_03h07.35.271,classification_task,2021.2.3,Win32,73.96449704,5f91fcfd4bc991107c2bbd47,626b377229c10585ec392f89,626b38ba6871a29d61042c8b,,,,,,,,,,,,,,,,,,,,,,,,,,,,,,,,,,,,,,,,,,,,,,,,,,,,,I trust the aid,,0.7,0,3,520.494,0,0,0,0,1,0,,,,
,sergio,001,2022-04-29_03h07.35.271,classification_task,2021.2.3,Win32,73.96449704,5f91fcfd4bc991107c2bbd47,626b377229c10585ec392f89,626b38ba6871a29d61042c8b,,,,,,,,,,,,,,,,,,,,,,,,,,,,,,,,,,,,,,,,,,,,,,,,,,,,,I have confidence in the advice given by the aid,,0.7,0,4,526.476,0,0,0,0,1,0,,,,
,sergio,001,2022-04-29_03h07.35.271,classification_task,2021.2.3,Win32,73.96449704,5f91fcfd4bc991107c2bbd47,626b377229c10585ec392f89,626b38ba6871a29d61042c8b,,,,,,,,,,,,,,,,,,,,,,,,,,,,,,,,,,,,,,,,,,,,,,,,,,,,,I can depend on the aid,,0.7,0,2,528.626,0,0,0,0,1,0,,,,
,sergio,001,2022-04-29_03h07.35.271,classification_task,2021.2.3,Win32,73.96449704,5f91fcfd4bc991107c2bbd47,626b377229c10585ec392f89,626b38ba6871a29d61042c8b,,,,,,,,,,,,,,,,,,,,,,,,,,,,,,,,,,,,,,,,,,,,,,,,,,,,,I can rely on the aid to behave in consistent ways,,0.7,0,3,535.913,0,0,0,0,1,0,,,,
,sergio,001,2022-04-29_03h07.35.271,classification_task,2021.2.3,Win32,73.96449704,5f91fcfd4bc991107c2bbd47,626b377229c10585ec392f89,626b38ba6871a29d61042c8b,,,,,,,,,,,,,,,,,,,,,,,,,,,,,,,,,,,,,,,,,,,,,,,,,,,,,I can rely on the aid to do its best every time I take its advice,,0.7,0,3,536.703,0,0,0,0,1,0,,,,
,sergio,001,2022-04-29_03h07.35.271,classification_task,2021.2.3,Win32,73.96449704,5f91fcfd4bc991107c2bbd47,626b377229c10585ec392f89,626b38ba6871a29d61042c8b,,,,,,,,,,,,,,,,,,,,,,,,,,,,,,,,,,,,,,,,,,,,,,,,,,,,,"On trials you completed with assistance from the aid, how frequently did you think the aid was correct?",,0.7,0,50%,,0,0,0,0,1,0,,,,
,sergio,001,2022-04-29_03h07.35.271,classification_task,2021.2.3,Win32,73.96449704,5f91fcfd4bc991107c2bbd47,626b377229c10585ec392f89,626b38ba6871a29d61042c8b,,,,,,,,,,,,,,,,,,,,,,,,,,,,,,,,,,,,,,,,,,,,,,,,,,,,,"On trials you completed without the aid, how frequently did you think you were correct?",,0.7,0,90%,,0,0,0,0,1,0,,,,
,sergio,001,2022-04-29_03h07.35.271,classification_task,2021.2.3,Win32,73.96449704,5f91fcfd4bc991107c2bbd47,626b377229c10585ec392f89,626b38ba6871a29d61042c8b,,,,,,,,,,,,,,,,,,,,,,,,,,,,,,,,,,,,,,,,,,,,,,,,,,,,,,,,,,,0,0,0,0,1,,,,,
,sergio,001,2022-04-29_03h07.35.271,classification_task,2021.2.3,Win32,73.96449704,5f91fcfd4bc991107c2bbd47,626b377229c10585ec392f89,626b38ba6871a29d61042c8b,,,,,,,,,,,,,,,,,,,,,,,,,,,,,,,,,,,,,,,,,,,,,,,,,,,,,,,,,,,,,,,,,space,9.972,576.331,
,sergio,001,2022-04-29_03h07.35.271,classification_task,2021.2.3,Win32,73.96449704,5f91fcfd4bc991107c2bbd47,626b377229c10585ec392f89,626b38ba6871a29d61042c8b,,,,,,,,,,,,,,,,,,,,,,,,,,,,,,,,,,,,,,,,,,,,,,,,,,,,,,,,,,,,,,,,,,,,Mozilla/5.0 (Windows NT 10.0; Win64; x64; rv:99.0) Gecko/20100101 Firefox/99.0
