usingWebGL,participant,session,date,expName,psychopyVersion,OS,frameRate,PROLIFIC_PID,STUDY_ID,SESSION_ID,signatures_friend,signatures_foe,band_ranges_top,band_ranges_bottom,formitemText,formtype,formundefined,formitemWidth,formindex,formresponse,formrt,key_resp_2.keys,key_resp_2.rt,tute_resp.keys,tute_resp.rt,tutorial.thisRepN,tutorial.thisTrialN,tutorial.thisN,tutorial.thisIndex,tutorial.ran,key_resp_4.keys,key_resp_4.rt,key_resp.keys,key_resp.corr,key_resp.rt,lines_presented,is_signal_presented,trials.thisRepN,trials.thisTrialN,trials.thisN,trials.thisIndex,trials.ran,vessel,active_band,lines,is_signal,supported_pos,catch_trial,debrief_formindex,debrief_formitemText,debrief_formtype,debrief_formitemWidth,debrief_formresponse,debrief_formrt,phases.thisRepN,phases.thisTrialN,phases.thisN,phases.thisIndex,phases.ran,phases.order,phase,key_resp_3.keys,trustitemText,trusttype,trustitemWidth,trustindex,trustresponse,trustrt,support_status.thisRepN,support_status.thisTrialN,support_status.thisN,support_status.thisIndex,support_status.ran,support_status.order,key_resp_5.keys,key_resp_5.rt,globalClockTime,userAgent
TRUE,Tymon,001,2022-04-29_05h28.04.115,classification_task,2021.2.3,Win32,143.5544071,5eea0a01da0cfc0a744df4d9,626b377229c10585ec392f89,626b39698435957963ffee02,,,,,,,,,,,,,,,,,,,,,,,,,,,,,,,,,,,,,,,,,,,,,,,,,,,,,,,,,,,,,,,,,,,,
,Tymon,001,2022-04-29_05h28.04.115,classification_task,2021.2.3,Win32,143.5544071,5eea0a01da0cfc0a744df4d9,626b377229c10585ec392f89,626b39698435957963ffee02,"[[""0.322"",""0.556"",""0.872"",""0.973""],[""0.288"",""0.408"",""0.811"",""0.933""]]","[[""0.138"",""0.247"",""0.659"",""0.721""],[""0.050"",""0.199"",""0.503"",""0.776""]]","[1,10]","[100,1000]",Video game experience,,,0.7,0,,,,,,,,,,,,,,,,,,,,,,,,,,,,,,,,,,,,,,,,,,,,,,,,,,,,,,,,,,,
,Tymon,001,2022-04-29_05h28.04.115,classification_task,2021.2.3,Win32,143.5544071,5eea0a01da0cfc0a744df4d9,626b377229c10585ec392f89,626b39698435957963ffee02,,,,,Approximately how many hours did you spend playing video games in the last week?,,,0.7,0,40,,,,,,,,,,,,,,,,,,,,,,,,,,,,,,,,,,,,,,,,,,,,,,,,,,,,,,,,,,
,Tymon,001,2022-04-29_05h28.04.115,classification_task,2021.2.3,Win32,143.5544071,5eea0a01da0cfc0a744df4d9,626b377229c10585ec392f89,626b39698435957963ffee02,,,,,"Which game did you play the most this year? (Enter ""None"" if you didn't play any)",,,0.7,0,Lost Ark,,,,,,,,,,,,,,,,,,,,,,,,,,,,,,,,,,,,,,,,,,,,,,,,,,,,,,,,,,
,Tymon,001,2022-04-29_05h28.04.115,classification_task,2021.2.3,Win32,143.5544071,5eea0a01da0cfc0a744df4d9,626b377229c10585ec392f89,626b39698435957963ffee02,,,,,Visual perception,,,0.7,0,,,,,,,,,,,,,,,,,,,,,,,,,,,,,,,,,,,,,,,,,,,,,,,,,,,,,,,,,,,
,Tymon,001,2022-04-29_05h28.04.115,classification_task,2021.2.3,Win32,143.5544071,5eea0a01da0cfc0a744df4d9,626b377229c10585ec392f89,626b39698435957963ffee02,,,,,Do you have any form of color blindness?,,,0.7,0,No,17.9212,,,,,,,,,,,,,,,,,,,,,,,,,,,,,,,,,,,,,,,,,,,,,,,,,,,,,,,,,
,Tymon,001,2022-04-29_05h28.04.115,classification_task,2021.2.3,Win32,143.5544071,5eea0a01da0cfc0a744df4d9,626b377229c10585ec392f89,626b39698435957963ffee02,,,,,Do you use software to change the colour temperature of your screen (e.g. f.lux)?,,,0.7,0,No,21.65,,,,,,,,,,,,,,,,,,,,,,,,,,,,,,,,,,,,,,,,,,,,,,,,,,,,,,,,,
,Tymon,001,2022-04-29_05h28.04.115,classification_task,2021.2.3,Win32,143.5544071,5eea0a01da0cfc0a744df4d9,626b377229c10585ec392f89,626b39698435957963ffee02,,,,,,,,,,,,space,3.775,space,9.145,0,0,0,0,1,,,,,,,,,,,,,,,,,,,,,,,,,,,,,,,,,,,,,,,,,,,,,,,,
,Tymon,001,2022-04-29_05h28.04.115,classification_task,2021.2.3,Win32,143.5544071,5eea0a01da0cfc0a744df4d9,626b377229c10585ec392f89,626b39698435957963ffee02,,,,,,,,,,,,,,space,9.1211,1,0,1,0,1,,,,,,,,,,,,,,,,,,,,,,,,,,,,,,,,,,,,,,,,,,,,,,,,
,Tymon,001,2022-04-29_05h28.04.115,classification_task,2021.2.3,Win32,143.5544071,5eea0a01da0cfc0a744df4d9,626b377229c10585ec392f89,626b39698435957963ffee02,,,,,,,,,,,,,,space,19.0275,2,0,2,0,1,,,,,,,,,,,,,,,,,,,,,,,,,,,,,,,,,,,,,,,,,,,,,,,,
,Tymon,001,2022-04-29_05h28.04.115,classification_task,2021.2.3,Win32,143.5544071,5eea0a01da0cfc0a744df4d9,626b377229c10585ec392f89,626b39698435957963ffee02,,,,,,,,,,,,,,space,14.3076,3,0,3,0,1,,,,,,,,,,,,,,,,,,,,,,,,,,,,,,,,,,,,,,,,,,,,,,,,
,Tymon,001,2022-04-29_05h28.04.115,classification_task,2021.2.3,Win32,143.5544071,5eea0a01da0cfc0a744df4d9,626b377229c10585ec392f89,626b39698435957963ffee02,,,,,,,,,,,,,,space,12.185,4,0,4,0,1,,,,,,,,,,,,,,,,,,,,,,,,,,,,,,,,,,,,,,,,,,,,,,,,
,Tymon,001,2022-04-29_05h28.04.115,classification_task,2021.2.3,Win32,143.5544071,5eea0a01da0cfc0a744df4d9,626b377229c10585ec392f89,626b39698435957963ffee02,,,,,,,,,,,,,,,,,,,,,space,1.6642,a,1,5.3256,"[""0.288"",""0.408"",""0.811"",""0.088""]","[1,1,1,0]",0,0,0,0,1,0,1,,,0,FALSE,,,,,,,,,,,,,,,,,,,,,,,,,,,,,,
,Tymon,001,2022-04-29_05h28.04.115,classification_task,2021.2.3,Win32,143.5544071,5eea0a01da0cfc0a744df4d9,626b377229c10585ec392f89,626b39698435957963ffee02,,,,,,,,,,,,,,,,,,,,,,,a,1,2.2519,"[""0.288"",""0.408"",""0.621"",""0.933""]","[1,1,0,1]",0,1,1,1,1,0,1,,,0,FALSE,,,,,,,,,,,,,,,,,,,,,,,,,,,,,,
,Tymon,001,2022-04-29_05h28.04.115,classification_task,2021.2.3,Win32,143.5544071,5eea0a01da0cfc0a744df4d9,626b377229c10585ec392f89,626b39698435957963ffee02,,,,,,,,,,,,,,,,,,,,,,,a,1,2.8995,"[""0.288"",""0.098"",""0.811"",""0.933""]","[1,0,1,1]",0,2,2,2,1,0,1,,,0,FALSE,,,,,,,,,,,,,,,,,,,,,,,,,,,,,,
,Tymon,001,2022-04-29_05h28.04.115,classification_task,2021.2.3,Win32,143.5544071,5eea0a01da0cfc0a744df4d9,626b377229c10585ec392f89,626b39698435957963ffee02,,,,,,,,,,,,,,,,,,,,,,,l,1,3.9474,"[""0.621"",""0.199"",""0.503"",""0.776""]","[0,1,1,1]",0,3,3,3,1,1,1,,,0,FALSE,,,,,,,,,,,,,,,,,,,,,,,,,,,,,,
,Tymon,001,2022-04-29_05h28.04.115,classification_task,2021.2.3,Win32,143.5544071,5eea0a01da0cfc0a744df4d9,626b377229c10585ec392f89,626b39698435957963ffee02,,,,,,,,,,,,,,,,,,,,,,,a,1,5.3674,"[""0.322"",""0.442"",""0.872"",""0.973""]","[1,0,1,1]",0,4,4,4,1,0,0,,,0,FALSE,,,,,,,,,,,,,,,,,,,,,,,,,,,,,,
,Tymon,001,2022-04-29_05h28.04.115,classification_task,2021.2.3,Win32,143.5544071,5eea0a01da0cfc0a744df4d9,626b377229c10585ec392f89,626b39698435957963ffee02,,,,,,,,,,,,,,,,,,,,,,,l,1,3.918,"[""0.138"",""0.356"",""0.659"",""0.721""]","[1,0,1,1]",0,5,5,5,1,1,0,,,0,FALSE,,,,,,,,,,,,,,,,,,,,,,,,,,,,,,
,Tymon,001,2022-04-29_05h28.04.115,classification_task,2021.2.3,Win32,143.5544071,5eea0a01da0cfc0a744df4d9,626b377229c10585ec392f89,626b39698435957963ffee02,,,,,,,,,,,,,,,,,,,,,,,l,1,2.5399,"[""0.138"",""0.247"",""0.362"",""0.721""]","[1,1,0,1]",0,6,6,6,1,1,0,,,0,FALSE,,,,,,,,,,,,,,,,,,,,,,,,,,,,,,
,Tymon,001,2022-04-29_05h28.04.115,classification_task,2021.2.3,Win32,143.5544071,5eea0a01da0cfc0a744df4d9,626b377229c10585ec392f89,626b39698435957963ffee02,,,,,,,,,,,,,,,,,,,,,,,l,0,1.5958,"[""0.322"",""0.556"",""0.872"",""0.085""]","[1,1,1,0]",0,7,7,7,1,0,0,,,0,FALSE,,,,,,,,,,,,,,,,,,,,,,,,,,,,,,
,Tymon,001,2022-04-29_05h28.04.115,classification_task,2021.2.3,Win32,143.5544071,5eea0a01da0cfc0a744df4d9,626b377229c10585ec392f89,626b39698435957963ffee02,,,,,,,,,,,,,,,,,,,,,,,a,1,6.272,"[""0.368"",""0.556"",""0.872"",""0.973""]","[0,1,1,1]",0,8,8,8,1,0,0,,,0,FALSE,,,,,,,,,,,,,,,,,,,,,,,,,,,,,,
,Tymon,001,2022-04-29_05h28.04.115,classification_task,2021.2.3,Win32,143.5544071,5eea0a01da0cfc0a744df4d9,626b377229c10585ec392f89,626b39698435957963ffee02,,,,,,,,,,,,,,,,,,,,,,,l,1,3.4547,"[""0.368"",""0.247"",""0.659"",""0.721""]","[0,1,1,1]",0,9,9,9,1,1,0,,,0,FALSE,,,,,,,,,,,,,,,,,,,,,,,,,,,,,,
,Tymon,001,2022-04-29_05h28.04.115,classification_task,2021.2.3,Win32,143.5544071,5eea0a01da0cfc0a744df4d9,626b377229c10585ec392f89,626b39698435957963ffee02,,,,,,,,,,,,,,,,,,,,,,,l,1,5.2208,"[""0.050"",""0.199"",""0.503"",""0.458""]","[1,1,1,0]",0,10,10,10,1,1,1,,,0,FALSE,,,,,,,,,,,,,,,,,,,,,,,,,,,,,,
,Tymon,001,2022-04-29_05h28.04.115,classification_task,2021.2.3,Win32,143.5544071,5eea0a01da0cfc0a744df4d9,626b377229c10585ec392f89,626b39698435957963ffee02,,,,,,,,,,,,,,,,,,,,,,,a,1,1.9281,"[""0.322"",""0.556"",""0.621"",""0.973""]","[1,1,0,1]",0,11,11,11,1,0,0,,,0,FALSE,,,,,,,,,,,,,,,,,,,,,,,,,,,,,,
,Tymon,001,2022-04-29_05h28.04.115,classification_task,2021.2.3,Win32,143.5544071,5eea0a01da0cfc0a744df4d9,626b377229c10585ec392f89,626b39698435957963ffee02,,,,,,,,,,,,,,,,,,,,,,,l,1,2.4157,"[""0.050"",""0.098"",""0.503"",""0.776""]","[1,0,1,1]",0,12,12,12,1,1,1,,,0,FALSE,,,,,,,,,,,,,,,,,,,,,,,,,,,,,,
,Tymon,001,2022-04-29_05h28.04.115,classification_task,2021.2.3,Win32,143.5544071,5eea0a01da0cfc0a744df4d9,626b377229c10585ec392f89,626b39698435957963ffee02,,,,,,,,,,,,,,,,,,,,,,,l,1,3.133,"[""0.138"",""0.247"",""0.659"",""0.454""]","[1,1,1,0]",0,13,13,13,1,1,0,,,0,FALSE,,,,,,,,,,,,,,,,,,,,,,,,,,,,,,
,Tymon,001,2022-04-29_05h28.04.115,classification_task,2021.2.3,Win32,143.5544071,5eea0a01da0cfc0a744df4d9,626b377229c10585ec392f89,626b39698435957963ffee02,,,,,,,,,,,,,,,,,,,,,,,l,1,2.1573,"[""0.050"",""0.199"",""0.362"",""0.776""]","[1,1,0,1]",0,14,14,14,1,1,1,,,0,FALSE,,,,,,,,,,,,,,,,,,,,,,,,,,,,,,
,Tymon,001,2022-04-29_05h28.04.115,classification_task,2021.2.3,Win32,143.5544071,5eea0a01da0cfc0a744df4d9,626b377229c10585ec392f89,626b39698435957963ffee02,,,,,,,,,,,,,,,,,,,,,,,l,0,3.956,"[""0.356"",""0.408"",""0.811"",""0.933""]","[0,1,1,1]",0,15,15,15,1,0,1,,,0,FALSE,,,,,,,,,,,,,,,,,,,,,,,,,,,,,,
,Tymon,001,2022-04-29_05h28.04.115,classification_task,2021.2.3,Win32,143.5544071,5eea0a01da0cfc0a744df4d9,626b377229c10585ec392f89,626b39698435957963ffee02,,,,,,,,,,,,,,,,,,,,,,,l,1,3.5519,"[""0.050"",""0.199"",""0.454"",""0.776""]","[1,1,0,1]",0,16,16,16,1,1,1,,,0,FALSE,,,,,,,,,,,,,,,,,,,,,,,,,,,,,,
,Tymon,001,2022-04-29_05h28.04.115,classification_task,2021.2.3,Win32,143.5544071,5eea0a01da0cfc0a744df4d9,626b377229c10585ec392f89,626b39698435957963ffee02,,,,,,,,,,,,,,,,,,,,,,,l,0,5.042,"[""0.363"",""0.556"",""0.872"",""0.973""]","[0,1,1,1]",0,17,17,17,1,0,0,,,0,FALSE,,,,,,,,,,,,,,,,,,,,,,,,,,,,,,
,Tymon,001,2022-04-29_05h28.04.115,classification_task,2021.2.3,Win32,143.5544071,5eea0a01da0cfc0a744df4d9,626b377229c10585ec392f89,626b39698435957963ffee02,,,,,,,,,,,,,,,,,,,,,,,l,1,4.0887,"[""0.050"",""0.368"",""0.503"",""0.776""]","[1,0,1,1]",0,18,18,18,1,1,1,,,0,FALSE,,,,,,,,,,,,,,,,,,,,,,,,,,,,,,
,Tymon,001,2022-04-29_05h28.04.115,classification_task,2021.2.3,Win32,143.5544071,5eea0a01da0cfc0a744df4d9,626b377229c10585ec392f89,626b39698435957963ffee02,,,,,,,,,,,,,,,,,,,,,,,a,1,2.5488,"[""0.322"",""0.454"",""0.872"",""0.973""]","[1,0,1,1]",0,19,19,19,1,0,0,,,0,FALSE,,,,,,,,,,,,,,,,,,,,,,,,,,,,,,
,Tymon,001,2022-04-29_05h28.04.115,classification_task,2021.2.3,Win32,143.5544071,5eea0a01da0cfc0a744df4d9,626b377229c10585ec392f89,626b39698435957963ffee02,,,,,,,,,,,,,,,,,,,,,,,a,1,1.4817,"[""0.322"",""0.556"",""0.454"",""0.973""]","[1,1,0,1]",0,20,20,20,1,0,0,,,0,FALSE,,,,,,,,,,,,,,,,,,,,,,,,,,,,,,
,Tymon,001,2022-04-29_05h28.04.115,classification_task,2021.2.3,Win32,143.5544071,5eea0a01da0cfc0a744df4d9,626b377229c10585ec392f89,626b39698435957963ffee02,,,,,,,,,,,,,,,,,,,,,,,a,1,2.9209,"[""0.288"",""0.362"",""0.811"",""0.933""]","[1,0,1,1]",0,21,21,21,1,0,1,,,0,FALSE,,,,,,,,,,,,,,,,,,,,,,,,,,,,,,
,Tymon,001,2022-04-29_05h28.04.115,classification_task,2021.2.3,Win32,143.5544071,5eea0a01da0cfc0a744df4d9,626b377229c10585ec392f89,626b39698435957963ffee02,,,,,,,,,,,,,,,,,,,,,,,l,1,3.2496,"[""0.050"",""0.199"",""0.503"",""0.454""]","[1,1,1,0]",0,22,22,22,1,1,1,,,0,FALSE,,,,,,,,,,,,,,,,,,,,,,,,,,,,,,
,Tymon,001,2022-04-29_05h28.04.115,classification_task,2021.2.3,Win32,143.5544071,5eea0a01da0cfc0a744df4d9,626b377229c10585ec392f89,626b39698435957963ffee02,,,,,,,,,,,,,,,,,,,,,,,l,1,3.3209,"[""0.138"",""0.247"",""0.659"",""0.443""]","[1,1,1,0]",0,23,23,23,1,1,0,,,0,FALSE,,,,,,,,,,,,,,,,,,,,,,,,,,,,,,
,Tymon,001,2022-04-29_05h28.04.115,classification_task,2021.2.3,Win32,143.5544071,5eea0a01da0cfc0a744df4d9,626b377229c10585ec392f89,626b39698435957963ffee02,,,,,,,,,,,,,,,,,,,,,,,a,1,3.0339,"[""0.363"",""0.408"",""0.811"",""0.933""]","[0,1,1,1]",0,24,24,24,1,0,1,,,0,FALSE,,,,,,,,,,,,,,,,,,,,,,,,,,,,,,
,Tymon,001,2022-04-29_05h28.04.115,classification_task,2021.2.3,Win32,143.5544071,5eea0a01da0cfc0a744df4d9,626b377229c10585ec392f89,626b39698435957963ffee02,,,,,,,,,,,,,,,,,,,,,,,a,1,3.6499,"[""0.322"",""0.556"",""0.872"",""0.363""]","[1,1,1,0]",0,25,25,25,1,0,0,,,0,FALSE,,,,,,,,,,,,,,,,,,,,,,,,,,,,,,
,Tymon,001,2022-04-29_05h28.04.115,classification_task,2021.2.3,Win32,143.5544071,5eea0a01da0cfc0a744df4d9,626b377229c10585ec392f89,626b39698435957963ffee02,,,,,,,,,,,,,,,,,,,,,,,l,1,4.2555,"[""0.138"",""0.247"",""0.454"",""0.721""]","[1,1,0,1]",0,26,26,26,1,1,0,,,0,FALSE,,,,,,,,,,,,,,,,,,,,,,,,,,,,,,
,Tymon,001,2022-04-29_05h28.04.115,classification_task,2021.2.3,Win32,143.5544071,5eea0a01da0cfc0a744df4d9,626b377229c10585ec392f89,626b39698435957963ffee02,,,,,,,,,,,,,,,,,,,,,,,l,1,2.7741,"[""0.138"",""0.595"",""0.659"",""0.721""]","[1,0,1,1]",0,27,27,27,1,1,0,,,0,FALSE,,,,,,,,,,,,,,,,,,,,,,,,,,,,,,
,Tymon,001,2022-04-29_05h28.04.115,classification_task,2021.2.3,Win32,143.5544071,5eea0a01da0cfc0a744df4d9,626b377229c10585ec392f89,626b39698435957963ffee02,,,,,,,,,,,,,,,,,,,,,,,l,1,2.8328,"[""0.085"",""0.199"",""0.503"",""0.776""]","[0,1,1,1]",0,28,28,28,1,1,1,,,0,FALSE,,,,,,,,,,,,,,,,,,,,,,,,,,,,,,
,Tymon,001,2022-04-29_05h28.04.115,classification_task,2021.2.3,Win32,143.5544071,5eea0a01da0cfc0a744df4d9,626b377229c10585ec392f89,626b39698435957963ffee02,,,,,,,,,,,,,,,,,,,,,,,a,1,2.802,"[""0.288"",""0.408"",""0.623"",""0.933""]","[1,1,0,1]",0,29,29,29,1,0,1,,,0,FALSE,,,,,,,,,,,,,,,,,,,,,,,,,,,,,,
,Tymon,001,2022-04-29_05h28.04.115,classification_task,2021.2.3,Win32,143.5544071,5eea0a01da0cfc0a744df4d9,626b377229c10585ec392f89,626b39698435957963ffee02,,,,,,,,,,,,,,,,,,,,,,,a,1,1.2952,"[""0.288"",""0.408"",""0.811"",""0.595""]","[1,1,1,0]",0,30,30,30,1,0,1,,,0,FALSE,,,,,,,,,,,,,,,,,,,,,,,,,,,,,,
,Tymon,001,2022-04-29_05h28.04.115,classification_task,2021.2.3,Win32,143.5544071,5eea0a01da0cfc0a744df4d9,626b377229c10585ec392f89,626b39698435957963ffee02,,,,,,,,,,,,,,,,,,,,,,,l,1,1.5433,"[""0.442"",""0.247"",""0.659"",""0.721""]","[0,1,1,1]",0,31,31,31,1,1,0,,,0,FALSE,,,,,,,,,,,,,,,,,,,,,,,,,,,,,,
,Tymon,001,2022-04-29_05h28.04.115,classification_task,2021.2.3,Win32,143.5544071,5eea0a01da0cfc0a744df4d9,626b377229c10585ec392f89,626b39698435957963ffee02,,,,,,,,,,,,,,,,,,,,,,,l,1,2.0976,"[""0.138"",""0.247"",""0.363"",""0.721""]","[1,1,0,1]",0,32,32,32,1,1,0,,,0,FALSE,,,,,,,,,,,,,,,,,,,,,,,,,,,,,,
,Tymon,001,2022-04-29_05h28.04.115,classification_task,2021.2.3,Win32,143.5544071,5eea0a01da0cfc0a744df4d9,626b377229c10585ec392f89,626b39698435957963ffee02,,,,,,,,,,,,,,,,,,,,,,,l,0,2.5294,"[""0.322"",""0.556"",""0.098"",""0.973""]","[1,1,0,1]",0,33,33,33,1,0,0,,,0,FALSE,,,,,,,,,,,,,,,,,,,,,,,,,,,,,,
,Tymon,001,2022-04-29_05h28.04.115,classification_task,2021.2.3,Win32,143.5544071,5eea0a01da0cfc0a744df4d9,626b377229c10585ec392f89,626b39698435957963ffee02,,,,,,,,,,,,,,,,,,,,,,,l,1,0.0007,"[""0.623"",""0.199"",""0.503"",""0.776""]","[0,1,1,1]",0,34,34,34,1,1,1,,,0,FALSE,,,,,,,,,,,,,,,,,,,,,,,,,,,,,,
,Tymon,001,2022-04-29_05h28.04.115,classification_task,2021.2.3,Win32,143.5544071,5eea0a01da0cfc0a744df4d9,626b377229c10585ec392f89,626b39698435957963ffee02,,,,,,,,,,,,,,,,,,,,,,,a,1,1.6362,"[""0.322"",""0.556"",""0.872"",""0.443""]","[1,1,1,0]",0,35,35,35,1,0,0,,,0,FALSE,,,,,,,,,,,,,,,,,,,,,,,,,,,,,,
,Tymon,001,2022-04-29_05h28.04.115,classification_task,2021.2.3,Win32,143.5544071,5eea0a01da0cfc0a744df4d9,626b377229c10585ec392f89,626b39698435957963ffee02,,,,,,,,,,,,,,,,,,,,,,,l,1,2.4661,"[""0.138"",""0.247"",""0.659"",""0.442""]","[1,1,1,0]",0,36,36,36,1,1,0,,,0,FALSE,,,,,,,,,,,,,,,,,,,,,,,,,,,,,,
,Tymon,001,2022-04-29_05h28.04.115,classification_task,2021.2.3,Win32,143.5544071,5eea0a01da0cfc0a744df4d9,626b377229c10585ec392f89,626b39698435957963ffee02,,,,,,,,,,,,,,,,,,,,,,,a,1,1.525,"[""0.288"",""0.408"",""0.811"",""0.624""]","[1,1,1,0]",0,37,37,37,1,0,1,,,0,FALSE,,,,,,,,,,,,,,,,,,,,,,,,,,,,,,
,Tymon,001,2022-04-29_05h28.04.115,classification_task,2021.2.3,Win32,143.5544071,5eea0a01da0cfc0a744df4d9,626b377229c10585ec392f89,626b39698435957963ffee02,,,,,,,,,,,,,,,,,,,,,,,l,1,2.896,"[""0.050"",""0.199"",""0.363"",""0.776""]","[1,1,0,1]",0,38,38,38,1,1,1,,,0,FALSE,,,,,,,,,,,,,,,,,,,,,,,,,,,,,,
,Tymon,001,2022-04-29_05h28.04.115,classification_task,2021.2.3,Win32,143.5544071,5eea0a01da0cfc0a744df4d9,626b377229c10585ec392f89,626b39698435957963ffee02,,,,,,,,,,,,,,,,,,,,,,,l,1,2.1515,"[""0.050"",""0.199"",""0.503"",""0.621""]","[1,1,1,0]",0,39,39,39,1,1,1,,,0,FALSE,,,,,,,,,,,,,,,,,,,,,,,,,,,,,,
,Tymon,001,2022-04-29_05h28.04.115,classification_task,2021.2.3,Win32,143.5544071,5eea0a01da0cfc0a744df4d9,626b377229c10585ec392f89,626b39698435957963ffee02,,,,,,,,,,,,,,,,,,,,,,,a,1,2.6574,"[""0.288"",""0.454"",""0.811"",""0.933""]","[1,0,1,1]",0,40,40,40,1,0,1,,,0,FALSE,,,,,,,,,,,,,,,,,,,,,,,,,,,,,,
,Tymon,001,2022-04-29_05h28.04.115,classification_task,2021.2.3,Win32,143.5544071,5eea0a01da0cfc0a744df4d9,626b377229c10585ec392f89,626b39698435957963ffee02,,,,,,,,,,,,,,,,,,,,,,,a,1,1.7236,"[""0.362"",""0.556"",""0.872"",""0.973""]","[0,1,1,1]",0,41,41,41,1,0,0,,,0,FALSE,,,,,,,,,,,,,,,,,,,,,,,,,,,,,,
,Tymon,001,2022-04-29_05h28.04.115,classification_task,2021.2.3,Win32,143.5544071,5eea0a01da0cfc0a744df4d9,626b377229c10585ec392f89,626b39698435957963ffee02,,,,,,,,,,,,,,,,,,,,,,,l,0,2.3503,"[""0.624"",""0.408"",""0.811"",""0.933""]","[0,1,1,1]",0,42,42,42,1,0,1,,,0,FALSE,,,,,,,,,,,,,,,,,,,,,,,,,,,,,,
,Tymon,001,2022-04-29_05h28.04.115,classification_task,2021.2.3,Win32,143.5544071,5eea0a01da0cfc0a744df4d9,626b377229c10585ec392f89,626b39698435957963ffee02,,,,,,,,,,,,,,,,,,,,,,,l,0,3.2062,"[""0.322"",""0.621"",""0.872"",""0.973""]","[1,0,1,1]",0,43,43,43,1,0,0,,,0,FALSE,,,,,,,,,,,,,,,,,,,,,,,,,,,,,,
,Tymon,001,2022-04-29_05h28.04.115,classification_task,2021.2.3,Win32,143.5544071,5eea0a01da0cfc0a744df4d9,626b377229c10585ec392f89,626b39698435957963ffee02,,,,,,,,,,,,,,,,,,,,,,,a,0,1.9654,"[""0.595"",""0.247"",""0.659"",""0.721""]","[0,1,1,1]",0,44,44,44,1,1,0,,,0,FALSE,,,,,,,,,,,,,,,,,,,,,,,,,,,,,,
,Tymon,001,2022-04-29_05h28.04.115,classification_task,2021.2.3,Win32,143.5544071,5eea0a01da0cfc0a744df4d9,626b377229c10585ec392f89,626b39698435957963ffee02,,,,,,,,,,,,,,,,,,,,,,,a,1,1.78,"[""0.288"",""0.408"",""0.458"",""0.933""]","[1,1,0,1]",0,45,45,45,1,0,1,,,0,FALSE,,,,,,,,,,,,,,,,,,,,,,,,,,,,,,
,Tymon,001,2022-04-29_05h28.04.115,classification_task,2021.2.3,Win32,143.5544071,5eea0a01da0cfc0a744df4d9,626b377229c10585ec392f89,626b39698435957963ffee02,,,,,,,,,,,,,,,,,,,,,,,l,1,1.8748,"[""0.050"",""0.085"",""0.503"",""0.776""]","[1,0,1,1]",0,46,46,46,1,1,1,,,0,FALSE,,,,,,,,,,,,,,,,,,,,,,,,,,,,,,
,Tymon,001,2022-04-29_05h28.04.115,classification_task,2021.2.3,Win32,143.5544071,5eea0a01da0cfc0a744df4d9,626b377229c10585ec392f89,626b39698435957963ffee02,,,,,,,,,,,,,,,,,,,,,,,l,1,1.3393,"[""0.138"",""0.362"",""0.659"",""0.721""]","[1,0,1,1]",0,47,47,47,1,1,0,,,0,FALSE,,,,,,,,,,,,,,,,,,,,,,,,,,,,,,
,Tymon,001,2022-04-29_05h28.04.115,classification_task,2021.2.3,Win32,143.5544071,5eea0a01da0cfc0a744df4d9,626b377229c10585ec392f89,626b39698435957963ffee02,,,,,,,,,,,,,,,,,,,,,,,l,1,1.533,"[""0.138"",""0.247"",""0.088"",""0.721""]","[1,1,0,1]",0,48,48,48,1,1,0,,,0,FALSE,,,,,,,,,,,,,,,,,,,,,,,,,,,,,,
,Tymon,001,2022-04-29_05h28.04.115,classification_task,2021.2.3,Win32,143.5544071,5eea0a01da0cfc0a744df4d9,626b377229c10585ec392f89,626b39698435957963ffee02,,,,,,,,,,,,,,,,,,,,,,,a,1,1.1526,"[""0.288"",""0.408"",""0.088"",""0.933""]","[1,1,0,1]",0,49,49,49,1,0,1,,,0,FALSE,,,,,,,,,,,,,,,,,,,,,,,,,,,,,,
,Tymon,001,2022-04-29_05h28.04.115,classification_task,2021.2.3,Win32,143.5544071,5eea0a01da0cfc0a744df4d9,626b377229c10585ec392f89,626b39698435957963ffee02,,,,,,,,,,,,,,,,,,,,,,,a,1,1.2222,"[""0.085"",""0.556"",""0.872"",""0.973""]","[0,1,1,1]",0,50,50,50,1,0,0,,,0,FALSE,,,,,,,,,,,,,,,,,,,,,,,,,,,,,,
,Tymon,001,2022-04-29_05h28.04.115,classification_task,2021.2.3,Win32,143.5544071,5eea0a01da0cfc0a744df4d9,626b377229c10585ec392f89,626b39698435957963ffee02,,,,,,,,,,,,,,,,,,,,,,,a,1,1.1241,"[""0.288"",""0.098"",""0.811"",""0.933""]","[1,0,1,1]",0,51,51,51,1,0,1,,,0,FALSE,,,,,,,,,,,,,,,,,,,,,,,,,,,,,,
,Tymon,001,2022-04-29_05h28.04.115,classification_task,2021.2.3,Win32,143.5544071,5eea0a01da0cfc0a744df4d9,626b377229c10585ec392f89,626b39698435957963ffee02,,,,,,,,,,,,,,,,,,,,,,,l,1,1.6449,"[""0.443"",""0.247"",""0.659"",""0.721""]","[0,1,1,1]",0,52,52,52,1,1,0,,,0,FALSE,,,,,,,,,,,,,,,,,,,,,,,,,,,,,,
,Tymon,001,2022-04-29_05h28.04.115,classification_task,2021.2.3,Win32,143.5544071,5eea0a01da0cfc0a744df4d9,626b377229c10585ec392f89,626b39698435957963ffee02,,,,,,,,,,,,,,,,,,,,,,,a,1,2.0154,"[""0.288"",""0.408"",""0.811"",""0.458""]","[1,1,1,0]",0,53,53,53,1,0,1,,,0,FALSE,,,,,,,,,,,,,,,,,,,,,,,,,,,,,,
,Tymon,001,2022-04-29_05h28.04.115,classification_task,2021.2.3,Win32,143.5544071,5eea0a01da0cfc0a744df4d9,626b377229c10585ec392f89,626b39698435957963ffee02,,,,,,,,,,,,,,,,,,,,,,,l,1,1.4031,"[""0.138"",""0.595"",""0.659"",""0.721""]","[1,0,1,1]",0,54,54,54,1,1,0,,,0,FALSE,,,,,,,,,,,,,,,,,,,,,,,,,,,,,,
,Tymon,001,2022-04-29_05h28.04.115,classification_task,2021.2.3,Win32,143.5544071,5eea0a01da0cfc0a744df4d9,626b377229c10585ec392f89,626b39698435957963ffee02,,,,,,,,,,,,,,,,,,,,,,,a,1,2.984,"[""0.098"",""0.408"",""0.811"",""0.933""]","[0,1,1,1]",0,55,55,55,1,0,1,,,0,FALSE,,,,,,,,,,,,,,,,,,,,,,,,,,,,,,
,Tymon,001,2022-04-29_05h28.04.115,classification_task,2021.2.3,Win32,143.5544071,5eea0a01da0cfc0a744df4d9,626b377229c10585ec392f89,626b39698435957963ffee02,,,,,,,,,,,,,,,,,,,,,,,a,1,1.2857,"[""0.322"",""0.556"",""0.098"",""0.973""]","[1,1,0,1]",0,56,56,56,1,0,0,,,0,FALSE,,,,,,,,,,,,,,,,,,,,,,,,,,,,,,
,Tymon,001,2022-04-29_05h28.04.115,classification_task,2021.2.3,Win32,143.5544071,5eea0a01da0cfc0a744df4d9,626b377229c10585ec392f89,626b39698435957963ffee02,,,,,,,,,,,,,,,,,,,,,,,l,1,1.1699,"[""0.088"",""0.199"",""0.503"",""0.776""]","[0,1,1,1]",0,57,57,57,1,1,1,,,0,FALSE,,,,,,,,,,,,,,,,,,,,,,,,,,,,,,
,Tymon,001,2022-04-29_05h28.04.115,classification_task,2021.2.3,Win32,143.5544071,5eea0a01da0cfc0a744df4d9,626b377229c10585ec392f89,626b39698435957963ffee02,,,,,,,,,,,,,,,,,,,,,,,l,1,2.9163,"[""0.050"",""0.623"",""0.503"",""0.776""]","[1,0,1,1]",0,58,58,58,1,1,1,,,0,FALSE,,,,,,,,,,,,,,,,,,,,,,,,,,,,,,
,Tymon,001,2022-04-29_05h28.04.115,classification_task,2021.2.3,Win32,143.5544071,5eea0a01da0cfc0a744df4d9,626b377229c10585ec392f89,626b39698435957963ffee02,,,,,,,,,,,,,,,,,,,,,,,a,1,1.2207,"[""0.322"",""0.556"",""0.872"",""0.458""]","[1,1,1,0]",0,59,59,59,1,0,0,,,0,FALSE,,,,,,,,,,,,,,,,,,,,,,,,,,,,,,
,Tymon,001,2022-04-29_05h28.04.115,classification_task,2021.2.3,Win32,143.5544071,5eea0a01da0cfc0a744df4d9,626b377229c10585ec392f89,626b39698435957963ffee02,,,,,,,,,,,,,,,,,,,,,,,l,1,2.4293,"[""0.050"",""0.199"",""0.503"",""0.624""]","[1,1,1,0]",0,60,60,60,1,1,1,,,0,FALSE,,,,,,,,,,,,,,,,,,,,,,,,,,,,,,
,Tymon,001,2022-04-29_05h28.04.115,classification_task,2021.2.3,Win32,143.5544071,5eea0a01da0cfc0a744df4d9,626b377229c10585ec392f89,626b39698435957963ffee02,,,,,,,,,,,,,,,,,,,,,,,l,1,1.985,"[""0.050"",""0.199"",""0.356"",""0.776""]","[1,1,0,1]",0,61,61,61,1,1,1,,,0,FALSE,,,,,,,,,,,,,,,,,,,,,,,,,,,,,,
,Tymon,001,2022-04-29_05h28.04.115,classification_task,2021.2.3,Win32,143.5544071,5eea0a01da0cfc0a744df4d9,626b377229c10585ec392f89,626b39698435957963ffee02,,,,,,,,,,,,,,,,,,,,,,,a,1,2.548,"[""0.322"",""0.595"",""0.872"",""0.973""]","[1,0,1,1]",0,62,62,62,1,0,0,,,0,FALSE,,,,,,,,,,,,,,,,,,,,,,,,,,,,,,
,Tymon,001,2022-04-29_05h28.04.115,classification_task,2021.2.3,Win32,143.5544071,5eea0a01da0cfc0a744df4d9,626b377229c10585ec392f89,626b39698435957963ffee02,,,,,,,,,,,,,,,,,,,,,,,l,1,3.9475,"[""0.138"",""0.247"",""0.659"",""0.442""]","[1,1,1,0]",0,63,63,63,1,1,0,,,0,FALSE,,,,,,,,,,,,,,,,,,,,,,,,,,,,,,
,Tymon,001,2022-04-29_05h28.04.115,classification_task,2021.2.3,Win32,143.5544071,5eea0a01da0cfc0a744df4d9,626b377229c10585ec392f89,626b39698435957963ffee02,,,,,,,,,,,,,,,,,,,,,,,,,,,,,,,,,,,,,,,0, ,,0,6.794288795,354.3828,0,0,0,0,1,2,1,,,,,,,,,,,,,,,,,
,Tymon,001,2022-04-29_05h28.04.115,classification_task,2021.2.3,Win32,143.5544071,5eea0a01da0cfc0a744df4d9,626b377229c10585ec392f89,626b39698435957963ffee02,,,,,,,,,,,,,,,,,,,,,,,,,,,,,,,,,,,,,,,1,  ,,0,0.670440079,365.9537,0,0,0,0,1,2,1,,,,,,,,,,,,,,,,,
,Tymon,001,2022-04-29_05h28.04.115,classification_task,2021.2.3,Win32,143.5544071,5eea0a01da0cfc0a744df4d9,626b377229c10585ec392f89,626b39698435957963ffee02,,,,,,,,,,,,,,,,,,,,,,,,,,,,,,,,,,,,,,,2,  ,,0,0.278512266,383.6487,0,0,0,0,1,2,1,,,,,,,,,,,,,,,,,
,Tymon,001,2022-04-29_05h28.04.115,classification_task,2021.2.3,Win32,143.5544071,5eea0a01da0cfc0a744df4d9,626b377229c10585ec392f89,626b39698435957963ffee02,,,,,,,,,,,,,,,,,,,,,,,,,,,,,,,,,,,,,,,,,,,,,0,0,0,0,1,,1,,,,,,,,,,,,,,,,,
,Tymon,001,2022-04-29_05h28.04.115,classification_task,2021.2.3,Win32,143.5544071,5eea0a01da0cfc0a744df4d9,626b377229c10585ec392f89,626b39698435957963ffee02,,,,,,,,,,,,,,,,,,,,,space,21.2695,a,1,2.6477,"[""0.322"",""0.556"",""0.458"",""0.973""]","[1,1,0,1]",0,0,0,0,1,0,0,,,0,FALSE,,,,,,,,,,,,,,,,,,,,,,,,,,,,,,
,Tymon,001,2022-04-29_05h28.04.115,classification_task,2021.2.3,Win32,143.5544071,5eea0a01da0cfc0a744df4d9,626b377229c10585ec392f89,626b39698435957963ffee02,,,,,,,,,,,,,,,,,,,,,,,l,0,1.0818,"[""0.288"",""0.085"",""0.811"",""0.933""]","[1,0,1,1]",0,1,1,1,1,0,1,,,0,FALSE,,,,,,,,,,,,,,,,,,,,,,,,,,,,,,
,Tymon,001,2022-04-29_05h28.04.115,classification_task,2021.2.3,Win32,143.5544071,5eea0a01da0cfc0a744df4d9,626b377229c10585ec392f89,626b39698435957963ffee02,,,,,,,,,,,,,,,,,,,,,,,l,1,1.6987,"[""0.624"",""0.247"",""0.659"",""0.721""]","[0,1,1,1]",0,2,2,2,1,1,0,,,0,FALSE,,,,,,,,,,,,,,,,,,,,,,,,,,,,,,
,Tymon,001,2022-04-29_05h28.04.115,classification_task,2021.2.3,Win32,143.5544071,5eea0a01da0cfc0a744df4d9,626b377229c10585ec392f89,626b39698435957963ffee02,,,,,,,,,,,,,,,,,,,,,,,l,1,2.13,"[""0.138"",""0.247"",""0.621"",""0.721""]","[1,1,0,1]",0,3,3,3,1,1,0,,,0,FALSE,,,,,,,,,,,,,,,,,,,,,,,,,,,,,,
,Tymon,001,2022-04-29_05h28.04.115,classification_task,2021.2.3,Win32,143.5544071,5eea0a01da0cfc0a744df4d9,626b377229c10585ec392f89,626b39698435957963ffee02,,,,,,,,,,,,,,,,,,,,,,,l,1,1.8944,"[""0.138"",""0.247"",""0.659"",""0.098""]","[1,1,1,0]",0,4,4,4,1,1,0,,,0,FALSE,,,,,,,,,,,,,,,,,,,,,,,,,,,,,,
,Tymon,001,2022-04-29_05h28.04.115,classification_task,2021.2.3,Win32,143.5544071,5eea0a01da0cfc0a744df4d9,626b377229c10585ec392f89,626b39698435957963ffee02,,,,,,,,,,,,,,,,,,,,,,,l,1,1.2734,"[""0.050"",""0.199"",""0.088"",""0.776""]","[1,1,0,1]",0,5,5,5,1,1,1,,,0,FALSE,,,,,,,,,,,,,,,,,,,,,,,,,,,,,,
,Tymon,001,2022-04-29_05h28.04.115,classification_task,2021.2.3,Win32,143.5544071,5eea0a01da0cfc0a744df4d9,626b377229c10585ec392f89,626b39698435957963ffee02,,,,,,,,,,,,,,,,,,,,,,,a,1,0.8737,"[""0.356"",""0.556"",""0.872"",""0.973""]","[0,1,1,1]",0,6,6,6,1,0,0,,,0,FALSE,,,,,,,,,,,,,,,,,,,,,,,,,,,,,,
,Tymon,001,2022-04-29_05h28.04.115,classification_task,2021.2.3,Win32,143.5544071,5eea0a01da0cfc0a744df4d9,626b377229c10585ec392f89,626b39698435957963ffee02,,,,,,,,,,,,,,,,,,,,,,,l,1,2.0647,"[""0.050"",""0.199"",""0.503"",""0.621""]","[1,1,1,0]",0,7,7,7,1,1,1,,,0,FALSE,,,,,,,,,,,,,,,,,,,,,,,,,,,,,,
,Tymon,001,2022-04-29_05h28.04.115,classification_task,2021.2.3,Win32,143.5544071,5eea0a01da0cfc0a744df4d9,626b377229c10585ec392f89,626b39698435957963ffee02,,,,,,,,,,,,,,,,,,,,,,,a,1,1.5993,"[""0.288"",""0.408"",""0.454"",""0.933""]","[1,1,0,1]",0,8,8,8,1,0,1,,,0,FALSE,,,,,,,,,,,,,,,,,,,,,,,,,,,,,,
,Tymon,001,2022-04-29_05h28.04.115,classification_task,2021.2.3,Win32,143.5544071,5eea0a01da0cfc0a744df4d9,626b377229c10585ec392f89,626b39698435957963ffee02,,,,,,,,,,,,,,,,,,,,,,,l,1,2.0587,"[""0.595"",""0.199"",""0.503"",""0.776""]","[0,1,1,1]",0,9,9,9,1,1,1,,,0,FALSE,,,,,,,,,,,,,,,,,,,,,,,,,,,,,,
,Tymon,001,2022-04-29_05h28.04.115,classification_task,2021.2.3,Win32,143.5544071,5eea0a01da0cfc0a744df4d9,626b377229c10585ec392f89,626b39698435957963ffee02,,,,,,,,,,,,,,,,,,,,,,,l,0,2.024,"[""0.322"",""0.556"",""0.872"",""0.098""]","[1,1,1,0]",0,10,10,10,1,0,0,,,0,FALSE,,,,,,,,,,,,,,,,,,,,,,,,,,,,,,
,Tymon,001,2022-04-29_05h28.04.115,classification_task,2021.2.3,Win32,143.5544071,5eea0a01da0cfc0a744df4d9,626b377229c10585ec392f89,626b39698435957963ffee02,,,,,,,,,,,,,,,,,,,,,,,l,1,2.0396,"[""0.050"",""0.362"",""0.503"",""0.776""]","[1,0,1,1]",0,11,11,11,1,1,1,,,0,FALSE,,,,,,,,,,,,,,,,,,,,,,,,,,,,,,
,Tymon,001,2022-04-29_05h28.04.115,classification_task,2021.2.3,Win32,143.5544071,5eea0a01da0cfc0a744df4d9,626b377229c10585ec392f89,626b39698435957963ffee02,,,,,,,,,,,,,,,,,,,,,,,l,1,1.3606,"[""0.138"",""0.621"",""0.659"",""0.721""]","[1,0,1,1]",0,12,12,12,1,1,0,,,0,FALSE,,,,,,,,,,,,,,,,,,,,,,,,,,,,,,
,Tymon,001,2022-04-29_05h28.04.115,classification_task,2021.2.3,Win32,143.5544071,5eea0a01da0cfc0a744df4d9,626b377229c10585ec392f89,626b39698435957963ffee02,,,,,,,,,,,,,,,,,,,,,,,a,1,1.431,"[""0.288"",""0.408"",""0.811"",""0.088""]","[1,1,1,0]",0,13,13,13,1,0,1,,,0,FALSE,,,,,,,,,,,,,,,,,,,,,,,,,,,,,,
,Tymon,001,2022-04-29_05h28.04.115,classification_task,2021.2.3,Win32,143.5544071,5eea0a01da0cfc0a744df4d9,626b377229c10585ec392f89,626b39698435957963ffee02,,,,,,,,,,,,,,,,,,,,,,,l,0,2.1937,"[""0.322"",""0.623"",""0.872"",""0.973""]","[1,0,1,1]",0,14,14,14,1,0,0,,,0,FALSE,,,,,,,,,,,,,,,,,,,,,,,,,,,,,,
,Tymon,001,2022-04-29_05h28.04.115,classification_task,2021.2.3,Win32,143.5544071,5eea0a01da0cfc0a744df4d9,626b377229c10585ec392f89,626b39698435957963ffee02,,,,,,,,,,,,,,,,,,,,,,,l,0,1.7449,"[""0.363"",""0.408"",""0.811"",""0.933""]","[0,1,1,1]",0,15,15,15,1,0,1,,,0,FALSE,,,,,,,,,,,,,,,,,,,,,,,,,,,,,,
,Tymon,001,2022-04-29_05h28.04.115,classification_task,2021.2.3,Win32,143.5544071,5eea0a01da0cfc0a744df4d9,626b377229c10585ec392f89,626b39698435957963ffee02,,,,,,,,,,,,,,,,,,,,,,,l,0,1.8928,"[""0.322"",""0.623"",""0.872"",""0.973""]","[1,0,1,1]",0,16,16,16,1,0,0,,,0,FALSE,,,,,,,,,,,,,,,,,,,,,,,,,,,,,,
,Tymon,001,2022-04-29_05h28.04.115,classification_task,2021.2.3,Win32,143.5544071,5eea0a01da0cfc0a744df4d9,626b377229c10585ec392f89,626b39698435957963ffee02,,,,,,,,,,,,,,,,,,,,,,,a,0,2.9377,"[""0.138"",""0.247"",""0.356"",""0.721""]","[1,1,0,1]",0,17,17,17,1,1,0,,,0,FALSE,,,,,,,,,,,,,,,,,,,,,,,,,,,,,,
,Tymon,001,2022-04-29_05h28.04.115,classification_task,2021.2.3,Win32,143.5544071,5eea0a01da0cfc0a744df4d9,626b377229c10585ec392f89,626b39698435957963ffee02,,,,,,,,,,,,,,,,,,,,,,,l,1,1.8435,"[""0.050"",""0.199"",""0.503"",""0.368""]","[1,1,1,0]",0,18,18,18,1,1,1,,,0,FALSE,,,,,,,,,,,,,,,,,,,,,,,,,,,,,,
,Tymon,001,2022-04-29_05h28.04.115,classification_task,2021.2.3,Win32,143.5544071,5eea0a01da0cfc0a744df4d9,626b377229c10585ec392f89,626b39698435957963ffee02,,,,,,,,,,,,,,,,,,,,,,,l,1,1.5912,"[""0.443"",""0.199"",""0.503"",""0.776""]","[0,1,1,1]",0,19,19,19,1,1,1,,,0,FALSE,,,,,,,,,,,,,,,,,,,,,,,,,,,,,,
,Tymon,001,2022-04-29_05h28.04.115,classification_task,2021.2.3,Win32,143.5544071,5eea0a01da0cfc0a744df4d9,626b377229c10585ec392f89,626b39698435957963ffee02,,,,,,,,,,,,,,,,,,,,,,,l,1,1.9844,"[""0.356"",""0.247"",""0.659"",""0.721""]","[0,1,1,1]",0,20,20,20,1,1,0,,,0,FALSE,,,,,,,,,,,,,,,,,,,,,,,,,,,,,,
,Tymon,001,2022-04-29_05h28.04.115,classification_task,2021.2.3,Win32,143.5544071,5eea0a01da0cfc0a744df4d9,626b377229c10585ec392f89,626b39698435957963ffee02,,,,,,,,,,,,,,,,,,,,,,,l,1,2.9903,"[""0.050"",""0.199"",""0.595"",""0.776""]","[1,1,0,1]",0,21,21,21,1,1,1,,,0,FALSE,,,,,,,,,,,,,,,,,,,,,,,,,,,,,,
,Tymon,001,2022-04-29_05h28.04.115,classification_task,2021.2.3,Win32,143.5544071,5eea0a01da0cfc0a744df4d9,626b377229c10585ec392f89,626b39698435957963ffee02,,,,,,,,,,,,,,,,,,,,,,,a,1,1.3722,"[""0.288"",""0.408"",""0.442"",""0.933""]","[1,1,0,1]",0,22,22,22,1,0,1,,,0,FALSE,,,,,,,,,,,,,,,,,,,,,,,,,,,,,,
,Tymon,001,2022-04-29_05h28.04.115,classification_task,2021.2.3,Win32,143.5544071,5eea0a01da0cfc0a744df4d9,626b377229c10585ec392f89,626b39698435957963ffee02,,,,,,,,,,,,,,,,,,,,,,,a,1,0.9702,"[""0.322"",""0.556"",""0.872"",""0.595""]","[1,1,1,0]",0,23,23,23,1,0,0,,,0,FALSE,,,,,,,,,,,,,,,,,,,,,,,,,,,,,,
,Tymon,001,2022-04-29_05h28.04.115,classification_task,2021.2.3,Win32,143.5544071,5eea0a01da0cfc0a744df4d9,626b377229c10585ec392f89,626b39698435957963ffee02,,,,,,,,,,,,,,,,,,,,,,,l,1,0.9471,"[""0.138"",""0.621"",""0.659"",""0.721""]","[1,0,1,1]",0,24,24,24,1,1,0,,,0,FALSE,,,,,,,,,,,,,,,,,,,,,,,,,,,,,,
,Tymon,001,2022-04-29_05h28.04.115,classification_task,2021.2.3,Win32,143.5544071,5eea0a01da0cfc0a744df4d9,626b377229c10585ec392f89,626b39698435957963ffee02,,,,,,,,,,,,,,,,,,,,,,,a,1,1.8578,"[""0.288"",""0.363"",""0.811"",""0.933""]","[1,0,1,1]",0,25,25,25,1,0,1,,,0,FALSE,,,,,,,,,,,,,,,,,,,,,,,,,,,,,,
,Tymon,001,2022-04-29_05h28.04.115,classification_task,2021.2.3,Win32,143.5544071,5eea0a01da0cfc0a744df4d9,626b377229c10585ec392f89,626b39698435957963ffee02,,,,,,,,,,,,,,,,,,,,,,,a,1,0.9539,"[""0.288"",""0.408"",""0.811"",""0.621""]","[1,1,1,0]",0,26,26,26,1,0,1,,,0,FALSE,,,,,,,,,,,,,,,,,,,,,,,,,,,,,,
,Tymon,001,2022-04-29_05h28.04.115,classification_task,2021.2.3,Win32,143.5544071,5eea0a01da0cfc0a744df4d9,626b377229c10585ec392f89,626b39698435957963ffee02,,,,,,,,,,,,,,,,,,,,,,,l,1,1.2456,"[""0.050"",""0.621"",""0.503"",""0.776""]","[1,0,1,1]",0,27,27,27,1,1,1,,,0,FALSE,,,,,,,,,,,,,,,,,,,,,,,,,,,,,,
,Tymon,001,2022-04-29_05h28.04.115,classification_task,2021.2.3,Win32,143.5544071,5eea0a01da0cfc0a744df4d9,626b377229c10585ec392f89,626b39698435957963ffee02,,,,,,,,,,,,,,,,,,,,,,,a,1,1.3697,"[""0.624"",""0.556"",""0.872"",""0.973""]","[0,1,1,1]",0,28,28,28,1,0,0,,,0,FALSE,,,,,,,,,,,,,,,,,,,,,,,,,,,,,,
,Tymon,001,2022-04-29_05h28.04.115,classification_task,2021.2.3,Win32,143.5544071,5eea0a01da0cfc0a744df4d9,626b377229c10585ec392f89,626b39698435957963ffee02,,,,,,,,,,,,,,,,,,,,,,,a,1,0.6192,"[""0.322"",""0.556"",""0.098"",""0.973""]","[1,1,0,1]",0,29,29,29,1,0,0,,,0,FALSE,,,,,,,,,,,,,,,,,,,,,,,,,,,,,,
,Tymon,001,2022-04-29_05h28.04.115,classification_task,2021.2.3,Win32,143.5544071,5eea0a01da0cfc0a744df4d9,626b377229c10585ec392f89,626b39698435957963ffee02,,,,,,,,,,,,,,,,,,,,,,,l,0,1.4815,"[""0.098"",""0.408"",""0.811"",""0.933""]","[0,1,1,1]",0,30,30,30,1,0,1,,,0,FALSE,,,,,,,,,,,,,,,,,,,,,,,,,,,,,,
,Tymon,001,2022-04-29_05h28.04.115,classification_task,2021.2.3,Win32,143.5544071,5eea0a01da0cfc0a744df4d9,626b377229c10585ec392f89,626b39698435957963ffee02,,,,,,,,,,,,,,,,,,,,,,,l,1,1.4315,"[""0.138"",""0.247"",""0.659"",""0.458""]","[1,1,1,0]",0,31,31,31,1,1,0,,,0,FALSE,,,,,,,,,,,,,,,,,,,,,,,,,,,,,,
,Tymon,001,2022-04-29_05h28.04.115,classification_task,2021.2.3,Win32,143.5544071,5eea0a01da0cfc0a744df4d9,626b377229c10585ec392f89,626b39698435957963ffee02,,,,,,,,,,,,,,,,,,,,,,,a,1,0.8334,"[""0.624"",""0.556"",""0.872"",""0.973""]","[0,1,1,1]",0,32,32,32,1,0,0,,,0,FALSE,,,,,,,,,,,,,,,,,,,,,,,,,,,,,,
,Tymon,001,2022-04-29_05h28.04.115,classification_task,2021.2.3,Win32,143.5544071,5eea0a01da0cfc0a744df4d9,626b377229c10585ec392f89,626b39698435957963ffee02,,,,,,,,,,,,,,,,,,,,,,,l,1,1.091,"[""0.050"",""0.199"",""0.503"",""0.621""]","[1,1,1,0]",0,33,33,33,1,1,1,,,0,FALSE,,,,,,,,,,,,,,,,,,,,,,,,,,,,,,
,Tymon,001,2022-04-29_05h28.04.115,classification_task,2021.2.3,Win32,143.5544071,5eea0a01da0cfc0a744df4d9,626b377229c10585ec392f89,626b39698435957963ffee02,,,,,,,,,,,,,,,,,,,,,,,l,1,1.6691,"[""0.621"",""0.247"",""0.659"",""0.721""]","[0,1,1,1]",0,34,34,34,1,1,0,,,0,FALSE,,,,,,,,,,,,,,,,,,,,,,,,,,,,,,
,Tymon,001,2022-04-29_05h28.04.115,classification_task,2021.2.3,Win32,143.5544071,5eea0a01da0cfc0a744df4d9,626b377229c10585ec392f89,626b39698435957963ffee02,,,,,,,,,,,,,,,,,,,,,,,l,1,1.5073,"[""0.050"",""0.199"",""0.624"",""0.776""]","[1,1,0,1]",0,35,35,35,1,1,1,,,0,FALSE,,,,,,,,,,,,,,,,,,,,,,,,,,,,,,
,Tymon,001,2022-04-29_05h28.04.115,classification_task,2021.2.3,Win32,143.5544071,5eea0a01da0cfc0a744df4d9,626b377229c10585ec392f89,626b39698435957963ffee02,,,,,,,,,,,,,,,,,,,,,,,l,1,1.2296,"[""0.138"",""0.247"",""0.363"",""0.721""]","[1,1,0,1]",0,36,36,36,1,1,0,,,0,FALSE,,,,,,,,,,,,,,,,,,,,,,,,,,,,,,
,Tymon,001,2022-04-29_05h28.04.115,classification_task,2021.2.3,Win32,143.5544071,5eea0a01da0cfc0a744df4d9,626b377229c10585ec392f89,626b39698435957963ffee02,,,,,,,,,,,,,,,,,,,,,,,a,1,1.0124,"[""0.322"",""0.556"",""0.368"",""0.973""]","[1,1,0,1]",0,37,37,37,1,0,0,,,0,FALSE,,,,,,,,,,,,,,,,,,,,,,,,,,,,,,
,Tymon,001,2022-04-29_05h28.04.115,classification_task,2021.2.3,Win32,143.5544071,5eea0a01da0cfc0a744df4d9,626b377229c10585ec392f89,626b39698435957963ffee02,,,,,,,,,,,,,,,,,,,,,,,l,0,1.0357,"[""0.322"",""0.098"",""0.872"",""0.973""]","[1,0,1,1]",0,38,38,38,1,0,0,,,0,FALSE,,,,,,,,,,,,,,,,,,,,,,,,,,,,,,
,Tymon,001,2022-04-29_05h28.04.115,classification_task,2021.2.3,Win32,143.5544071,5eea0a01da0cfc0a744df4d9,626b377229c10585ec392f89,626b39698435957963ffee02,,,,,,,,,,,,,,,,,,,,,,,a,0,1.1871,"[""0.138"",""0.247"",""0.659"",""0.442""]","[1,1,1,0]",0,39,39,39,1,1,0,,,0,FALSE,,,,,,,,,,,,,,,,,,,,,,,,,,,,,,
,Tymon,001,2022-04-29_05h28.04.115,classification_task,2021.2.3,Win32,143.5544071,5eea0a01da0cfc0a744df4d9,626b377229c10585ec392f89,626b39698435957963ffee02,,,,,,,,,,,,,,,,,,,,,,,l,1,0.1209,"[""0.368"",""0.199"",""0.503"",""0.776""]","[0,1,1,1]",0,40,40,40,1,1,1,,,0,FALSE,,,,,,,,,,,,,,,,,,,,,,,,,,,,,,
,Tymon,001,2022-04-29_05h28.04.115,classification_task,2021.2.3,Win32,143.5544071,5eea0a01da0cfc0a744df4d9,626b377229c10585ec392f89,626b39698435957963ffee02,,,,,,,,,,,,,,,,,,,,,,,l,1,1.8446,"[""0.050"",""0.454"",""0.503"",""0.776""]","[1,0,1,1]",0,41,41,41,1,1,1,,,0,FALSE,,,,,,,,,,,,,,,,,,,,,,,,,,,,,,
,Tymon,001,2022-04-29_05h28.04.115,classification_task,2021.2.3,Win32,143.5544071,5eea0a01da0cfc0a744df4d9,626b377229c10585ec392f89,626b39698435957963ffee02,,,,,,,,,,,,,,,,,,,,,,,l,1,1.2875,"[""0.138"",""0.595"",""0.659"",""0.721""]","[1,0,1,1]",0,42,42,42,1,1,0,,,0,FALSE,,,,,,,,,,,,,,,,,,,,,,,,,,,,,,
,Tymon,001,2022-04-29_05h28.04.115,classification_task,2021.2.3,Win32,143.5544071,5eea0a01da0cfc0a744df4d9,626b377229c10585ec392f89,626b39698435957963ffee02,,,,,,,,,,,,,,,,,,,,,,,l,0,1.3855,"[""0.322"",""0.556"",""0.872"",""0.356""]","[1,1,1,0]",0,43,43,43,1,0,0,,,0,FALSE,,,,,,,,,,,,,,,,,,,,,,,,,,,,,,
,Tymon,001,2022-04-29_05h28.04.115,classification_task,2021.2.3,Win32,143.5544071,5eea0a01da0cfc0a744df4d9,626b377229c10585ec392f89,626b39698435957963ffee02,,,,,,,,,,,,,,,,,,,,,,,a,1,1.2663,"[""0.288"",""0.408"",""0.362"",""0.933""]","[1,1,0,1]",0,44,44,44,1,0,1,,,0,FALSE,,,,,,,,,,,,,,,,,,,,,,,,,,,,,,
,Tymon,001,2022-04-29_05h28.04.115,classification_task,2021.2.3,Win32,143.5544071,5eea0a01da0cfc0a744df4d9,626b377229c10585ec392f89,626b39698435957963ffee02,,,,,,,,,,,,,,,,,,,,,,,l,0,0.9316,"[""0.288"",""0.624"",""0.811"",""0.933""]","[1,0,1,1]",0,45,45,45,1,0,1,,,0,FALSE,,,,,,,,,,,,,,,,,,,,,,,,,,,,,,
,Tymon,001,2022-04-29_05h28.04.115,classification_task,2021.2.3,Win32,143.5544071,5eea0a01da0cfc0a744df4d9,626b377229c10585ec392f89,626b39698435957963ffee02,,,,,,,,,,,,,,,,,,,,,,,a,1,1.1292,"[""0.288"",""0.408"",""0.811"",""0.085""]","[1,1,1,0]",0,46,46,46,1,0,1,,,0,FALSE,,,,,,,,,,,,,,,,,,,,,,,,,,,,,,
,Tymon,001,2022-04-29_05h28.04.115,classification_task,2021.2.3,Win32,143.5544071,5eea0a01da0cfc0a744df4d9,626b377229c10585ec392f89,626b39698435957963ffee02,,,,,,,,,,,,,,,,,,,,,,,l,0,0.7557,"[""0.624"",""0.408"",""0.811"",""0.933""]","[0,1,1,1]",0,47,47,47,1,0,1,,,0,FALSE,,,,,,,,,,,,,,,,,,,,,,,,,,,,,,
,Tymon,001,2022-04-29_05h28.04.115,classification_task,2021.2.3,Win32,143.5544071,5eea0a01da0cfc0a744df4d9,626b377229c10585ec392f89,626b39698435957963ffee02,,,,,,,,,,,,,,,,,,,,,,,a,0,0.7438,"[""0.050"",""0.199"",""0.503"",""0.368""]","[1,1,1,0]",0,48,48,48,1,1,1,,,0,FALSE,,,,,,,,,,,,,,,,,,,,,,,,,,,,,,
,Tymon,001,2022-04-29_05h28.04.115,classification_task,2021.2.3,Win32,143.5544071,5eea0a01da0cfc0a744df4d9,626b377229c10585ec392f89,626b39698435957963ffee02,,,,,,,,,,,,,,,,,,,,,,,l,0,1.7372,"[""0.322"",""0.454"",""0.872"",""0.973""]","[1,0,1,1]",0,49,49,49,1,0,0,,,0,FALSE,,,,,,,,,,,,,,,,,,,,,,,,,,,,,,
,Tymon,001,2022-04-29_05h28.04.115,classification_task,2021.2.3,Win32,143.5544071,5eea0a01da0cfc0a744df4d9,626b377229c10585ec392f89,626b39698435957963ffee02,,,,,,,,,,,,,,,,,,,,,,,l,1,1.2686,"[""0.138"",""0.247"",""0.458"",""0.721""]","[1,1,0,1]",0,50,50,50,1,1,0,,,0,FALSE,,,,,,,,,,,,,,,,,,,,,,,,,,,,,,
,Tymon,001,2022-04-29_05h28.04.115,classification_task,2021.2.3,Win32,143.5544071,5eea0a01da0cfc0a744df4d9,626b377229c10585ec392f89,626b39698435957963ffee02,,,,,,,,,,,,,,,,,,,,,,,l,1,1.5882,"[""0.085"",""0.247"",""0.659"",""0.721""]","[0,1,1,1]",0,51,51,51,1,1,0,,,0,FALSE,,,,,,,,,,,,,,,,,,,,,,,,,,,,,,
,Tymon,001,2022-04-29_05h28.04.115,classification_task,2021.2.3,Win32,143.5544071,5eea0a01da0cfc0a744df4d9,626b377229c10585ec392f89,626b39698435957963ffee02,,,,,,,,,,,,,,,,,,,,,,,a,1,1.0441,"[""0.288"",""0.408"",""0.811"",""0.098""]","[1,1,1,0]",0,52,52,52,1,0,1,,,0,FALSE,,,,,,,,,,,,,,,,,,,,,,,,,,,,,,
,Tymon,001,2022-04-29_05h28.04.115,classification_task,2021.2.3,Win32,143.5544071,5eea0a01da0cfc0a744df4d9,626b377229c10585ec392f89,626b39698435957963ffee02,,,,,,,,,,,,,,,,,,,,,,,l,0,1.3276,"[""0.623"",""0.408"",""0.811"",""0.933""]","[0,1,1,1]",0,53,53,53,1,0,1,,,0,FALSE,,,,,,,,,,,,,,,,,,,,,,,,,,,,,,
,Tymon,001,2022-04-29_05h28.04.115,classification_task,2021.2.3,Win32,143.5544071,5eea0a01da0cfc0a744df4d9,626b377229c10585ec392f89,626b39698435957963ffee02,,,,,,,,,,,,,,,,,,,,,,,a,1,2.2117,"[""0.288"",""0.362"",""0.811"",""0.933""]","[1,0,1,1]",0,54,54,54,1,0,1,,,0,FALSE,,,,,,,,,,,,,,,,,,,,,,,,,,,,,,
,Tymon,001,2022-04-29_05h28.04.115,classification_task,2021.2.3,Win32,143.5544071,5eea0a01da0cfc0a744df4d9,626b377229c10585ec392f89,626b39698435957963ffee02,,,,,,,,,,,,,,,,,,,,,,,l,1,1.9877,"[""0.363"",""0.199"",""0.503"",""0.776""]","[0,1,1,1]",0,55,55,55,1,1,1,,,0,FALSE,,,,,,,,,,,,,,,,,,,,,,,,,,,,,,
,Tymon,001,2022-04-29_05h28.04.115,classification_task,2021.2.3,Win32,143.5544071,5eea0a01da0cfc0a744df4d9,626b377229c10585ec392f89,626b39698435957963ffee02,,,,,,,,,,,,,,,,,,,,,,,l,0,1.4775,"[""0.322"",""0.556"",""0.088"",""0.973""]","[1,1,0,1]",0,56,56,56,1,0,0,,,0,FALSE,,,,,,,,,,,,,,,,,,,,,,,,,,,,,,
,Tymon,001,2022-04-29_05h28.04.115,classification_task,2021.2.3,Win32,143.5544071,5eea0a01da0cfc0a744df4d9,626b377229c10585ec392f89,626b39698435957963ffee02,,,,,,,,,,,,,,,,,,,,,,,a,1,0.9288,"[""0.322"",""0.556"",""0.872"",""0.368""]","[1,1,1,0]",0,57,57,57,1,0,0,,,0,FALSE,,,,,,,,,,,,,,,,,,,,,,,,,,,,,,
,Tymon,001,2022-04-29_05h28.04.115,classification_task,2021.2.3,Win32,143.5544071,5eea0a01da0cfc0a744df4d9,626b377229c10585ec392f89,626b39698435957963ffee02,,,,,,,,,,,,,,,,,,,,,,,l,1,0.8153,"[""0.138"",""0.247"",""0.659"",""0.362""]","[1,1,1,0]",0,58,58,58,1,1,0,,,0,FALSE,,,,,,,,,,,,,,,,,,,,,,,,,,,,,,
,Tymon,001,2022-04-29_05h28.04.115,classification_task,2021.2.3,Win32,143.5544071,5eea0a01da0cfc0a744df4d9,626b377229c10585ec392f89,626b39698435957963ffee02,,,,,,,,,,,,,,,,,,,,,,,a,1,0.7002,"[""0.623"",""0.556"",""0.872"",""0.973""]","[0,1,1,1]",0,59,59,59,1,0,0,,,0,FALSE,,,,,,,,,,,,,,,,,,,,,,,,,,,,,,
,Tymon,001,2022-04-29_05h28.04.115,classification_task,2021.2.3,Win32,143.5544071,5eea0a01da0cfc0a744df4d9,626b377229c10585ec392f89,626b39698435957963ffee02,,,,,,,,,,,,,,,,,,,,,,,l,1,0.7435,"[""0.138"",""0.088"",""0.659"",""0.721""]","[1,0,1,1]",0,60,60,60,1,1,0,,,0,FALSE,,,,,,,,,,,,,,,,,,,,,,,,,,,,,,
,Tymon,001,2022-04-29_05h28.04.115,classification_task,2021.2.3,Win32,143.5544071,5eea0a01da0cfc0a744df4d9,626b377229c10585ec392f89,626b39698435957963ffee02,,,,,,,,,,,,,,,,,,,,,,,l,1,1.9102,"[""0.050"",""0.199"",""0.368"",""0.776""]","[1,1,0,1]",0,61,61,61,1,1,1,,,0,FALSE,,,,,,,,,,,,,,,,,,,,,,,,,,,,,,
,Tymon,001,2022-04-29_05h28.04.115,classification_task,2021.2.3,Win32,143.5544071,5eea0a01da0cfc0a744df4d9,626b377229c10585ec392f89,626b39698435957963ffee02,,,,,,,,,,,,,,,,,,,,,,,l,1,6.2828,"[""0.050"",""0.362"",""0.503"",""0.776""]","[1,0,1,1]",0,62,62,62,1,1,1,,,0,FALSE,,,,,,,,,,,,,,,,,,,,,,,,,,,,,,
,Tymon,001,2022-04-29_05h28.04.115,classification_task,2021.2.3,Win32,143.5544071,5eea0a01da0cfc0a744df4d9,626b377229c10585ec392f89,626b39698435957963ffee02,,,,,,,,,,,,,,,,,,,,,,,a,1,2.0778,"[""0.288"",""0.408"",""0.621"",""0.933""]","[1,1,0,1]",0,63,63,63,1,0,1,,,0,FALSE,,,,,,,,,,,,,,,,,,,,,,,,,,,,,,
,Tymon,001,2022-04-29_05h28.04.115,classification_task,2021.2.3,Win32,143.5544071,5eea0a01da0cfc0a744df4d9,626b377229c10585ec392f89,626b39698435957963ffee02,,,,,,,,,,,,,,,,,,,,,,,,,,,,,,,,,,,,,,,0, ,,0,8.410984483,199.113,0,1,1,1,1,2,2,,,,,,,,,,,,,,,,,
,Tymon,001,2022-04-29_05h28.04.115,classification_task,2021.2.3,Win32,143.5544071,5eea0a01da0cfc0a744df4d9,626b377229c10585ec392f89,626b39698435957963ffee02,,,,,,,,,,,,,,,,,,,,,,,,,,,,,,,,,,,,,,,1,  ,,0,2.924015659,202.6921,0,1,1,1,1,2,2,,,,,,,,,,,,,,,,,
,Tymon,001,2022-04-29_05h28.04.115,classification_task,2021.2.3,Win32,143.5544071,5eea0a01da0cfc0a744df4d9,626b377229c10585ec392f89,626b39698435957963ffee02,,,,,,,,,,,,,,,,,,,,,,,,,,,,,,,,,,,,,,,2,  ,,0,1.968694885,204.7235,0,1,1,1,1,2,2,,,,,,,,,,,,,,,,,
,Tymon,001,2022-04-29_05h28.04.115,classification_task,2021.2.3,Win32,143.5544071,5eea0a01da0cfc0a744df4d9,626b377229c10585ec392f89,626b39698435957963ffee02,,,,,,,,,,,,,,,,,,,,,,,,,,,,,,,,,,,,,,,,,,,,,0,1,1,1,1,,2,,,,,,,,,,,,,,,,,
,Tymon,001,2022-04-29_05h28.04.115,classification_task,2021.2.3,Win32,143.5544071,5eea0a01da0cfc0a744df4d9,626b377229c10585ec392f89,626b39698435957963ffee02,,,,,,,,,,,,,,,,,,,,,space,10.884,l,1,1.9624,"[""0.138"",""0.247"",""0.659"",""0.443""]","[1,1,1,0]",0,0,0,0,1,1,0,,,0,FALSE,,,,,,,,,,,,,,,,,,,,,,,,,,,,,,
,Tymon,001,2022-04-29_05h28.04.115,classification_task,2021.2.3,Win32,143.5544071,5eea0a01da0cfc0a744df4d9,626b377229c10585ec392f89,626b39698435957963ffee02,,,,,,,,,,,,,,,,,,,,,,,l,1,1.8847,"[""0.050"",""0.595"",""0.503"",""0.776""]","[1,0,1,1]",0,1,1,1,1,1,1,,,0,FALSE,,,,,,,,,,,,,,,,,,,,,,,,,,,,,,
,Tymon,001,2022-04-29_05h28.04.115,classification_task,2021.2.3,Win32,143.5544071,5eea0a01da0cfc0a744df4d9,626b377229c10585ec392f89,626b39698435957963ffee02,,,,,,,,,,,,,,,,,,,,,,,l,0,1.8896,"[""0.443"",""0.408"",""0.811"",""0.933""]","[0,1,1,1]",0,2,2,2,1,0,1,,,0,FALSE,,,,,,,,,,,,,,,,,,,,,,,,,,,,,,
,Tymon,001,2022-04-29_05h28.04.115,classification_task,2021.2.3,Win32,143.5544071,5eea0a01da0cfc0a744df4d9,626b377229c10585ec392f89,626b39698435957963ffee02,,,,,,,,,,,,,,,,,,,,,,,a,1,1.3036,"[""0.288"",""0.408"",""0.811"",""0.362""]","[1,1,1,0]",0,3,3,3,1,0,1,,,0,FALSE,,,,,,,,,,,,,,,,,,,,,,,,,,,,,,
,Tymon,001,2022-04-29_05h28.04.115,classification_task,2021.2.3,Win32,143.5544071,5eea0a01da0cfc0a744df4d9,626b377229c10585ec392f89,626b39698435957963ffee02,,,,,,,,,,,,,,,,,,,,,,,a,1,1.1172,"[""0.443"",""0.556"",""0.872"",""0.973""]","[0,1,1,1]",0,4,4,4,1,0,0,,,0,FALSE,,,,,,,,,,,,,,,,,,,,,,,,,,,,,,
,Tymon,001,2022-04-29_05h28.04.115,classification_task,2021.2.3,Win32,143.5544071,5eea0a01da0cfc0a744df4d9,626b377229c10585ec392f89,626b39698435957963ffee02,,,,,,,,,,,,,,,,,,,,,,,a,1,0.79,"[""0.322"",""0.556"",""0.872"",""0.368""]","[1,1,1,0]",0,5,5,5,1,0,0,,,0,FALSE,,,,,,,,,,,,,,,,,,,,,,,,,,,,,,
,Tymon,001,2022-04-29_05h28.04.115,classification_task,2021.2.3,Win32,143.5544071,5eea0a01da0cfc0a744df4d9,626b377229c10585ec392f89,626b39698435957963ffee02,,,,,,,,,,,,,,,,,,,,,,,a,1,0.5696,"[""0.322"",""0.556"",""0.442"",""0.973""]","[1,1,0,1]",0,6,6,6,1,0,0,,,0,FALSE,,,,,,,,,,,,,,,,,,,,,,,,,,,,,,
,Tymon,001,2022-04-29_05h28.04.115,classification_task,2021.2.3,Win32,143.5544071,5eea0a01da0cfc0a744df4d9,626b377229c10585ec392f89,626b39698435957963ffee02,,,,,,,,,,,,,,,,,,,,,,,l,1,1.7123,"[""0.050"",""0.199"",""0.363"",""0.776""]","[1,1,0,1]",0,7,7,7,1,1,1,,,0,FALSE,,,,,,,,,,,,,,,,,,,,,,,,,,,,,,
,Tymon,001,2022-04-29_05h28.04.115,classification_task,2021.2.3,Win32,143.5544071,5eea0a01da0cfc0a744df4d9,626b377229c10585ec392f89,626b39698435957963ffee02,,,,,,,,,,,,,,,,,,,,,,,l,1,2.4496,"[""0.138"",""0.454"",""0.659"",""0.721""]","[1,0,1,1]",0,8,8,8,1,1,0,,,0,FALSE,,,,,,,,,,,,,,,,,,,,,,,,,,,,,,
,Tymon,001,2022-04-29_05h28.04.115,classification_task,2021.2.3,Win32,143.5544071,5eea0a01da0cfc0a744df4d9,626b377229c10585ec392f89,626b39698435957963ffee02,,,,,,,,,,,,,,,,,,,,,,,l,1,1.3797,"[""0.098"",""0.247"",""0.659"",""0.721""]","[0,1,1,1]",0,9,9,9,1,1,0,,,0,FALSE,,,,,,,,,,,,,,,,,,,,,,,,,,,,,,
,Tymon,001,2022-04-29_05h28.04.115,classification_task,2021.2.3,Win32,143.5544071,5eea0a01da0cfc0a744df4d9,626b377229c10585ec392f89,626b39698435957963ffee02,,,,,,,,,,,,,,,,,,,,,,,l,1,0.9534,"[""0.138"",""0.247"",""0.356"",""0.721""]","[1,1,0,1]",0,10,10,10,1,1,0,,,0,FALSE,,,,,,,,,,,,,,,,,,,,,,,,,,,,,,
,Tymon,001,2022-04-29_05h28.04.115,classification_task,2021.2.3,Win32,143.5544071,5eea0a01da0cfc0a744df4d9,626b377229c10585ec392f89,626b39698435957963ffee02,,,,,,,,,,,,,,,,,,,,,,,l,0,1.2561,"[""0.322"",""0.363"",""0.872"",""0.973""]","[1,0,1,1]",0,11,11,11,1,0,0,,,0,FALSE,,,,,,,,,,,,,,,,,,,,,,,,,,,,,,
,Tymon,001,2022-04-29_05h28.04.115,classification_task,2021.2.3,Win32,143.5544071,5eea0a01da0cfc0a744df4d9,626b377229c10585ec392f89,626b39698435957963ffee02,,,,,,,,,,,,,,,,,,,,,,,a,1,1.4596,"[""0.288"",""0.408"",""0.623"",""0.933""]","[1,1,0,1]",0,12,12,12,1,0,1,,,0,FALSE,,,,,,,,,,,,,,,,,,,,,,,,,,,,,,
,Tymon,001,2022-04-29_05h28.04.115,classification_task,2021.2.3,Win32,143.5544071,5eea0a01da0cfc0a744df4d9,626b377229c10585ec392f89,626b39698435957963ffee02,,,,,,,,,,,,,,,,,,,,,,,a,1,1.9081,"[""0.288"",""0.085"",""0.811"",""0.933""]","[1,0,1,1]",0,13,13,13,1,0,1,,,0,FALSE,,,,,,,,,,,,,,,,,,,,,,,,,,,,,,
,Tymon,001,2022-04-29_05h28.04.115,classification_task,2021.2.3,Win32,143.5544071,5eea0a01da0cfc0a744df4d9,626b377229c10585ec392f89,626b39698435957963ffee02,,,,,,,,,,,,,,,,,,,,,,,l,1,2.8994,"[""0.098"",""0.199"",""0.503"",""0.776""]","[0,1,1,1]",0,14,14,14,1,1,1,,,0,FALSE,,,,,,,,,,,,,,,,,,,,,,,,,,,,,,
,Tymon,001,2022-04-29_05h28.04.115,classification_task,2021.2.3,Win32,143.5544071,5eea0a01da0cfc0a744df4d9,626b377229c10585ec392f89,626b39698435957963ffee02,,,,,,,,,,,,,,,,,,,,,,,l,1,2.7406,"[""0.050"",""0.199"",""0.503"",""0.356""]","[1,1,1,0]",0,15,15,15,1,1,1,,,0,FALSE,,,,,,,,,,,,,,,,,,,,,,,,,,,,,,
,Tymon,001,2022-04-29_05h28.04.115,classification_task,2021.2.3,Win32,143.5544071,5eea0a01da0cfc0a744df4d9,626b377229c10585ec392f89,626b39698435957963ffee02,,,,,,,,,,,,,,,,,,,,,,,l,1,1.7188,"[""0.050"",""0.199"",""0.503"",""0.458""]","[1,1,1,0]",0,16,16,16,1,1,1,,,0,FALSE,,,,,,,,,,,,,,,,,,,,,,,,,,,,,,
,Tymon,001,2022-04-29_05h28.04.115,classification_task,2021.2.3,Win32,143.5544071,5eea0a01da0cfc0a744df4d9,626b377229c10585ec392f89,626b39698435957963ffee02,,,,,,,,,,,,,,,,,,,,,,,a,1,0.5339,"[""0.363"",""0.556"",""0.872"",""0.973""]","[0,1,1,1]",0,17,17,17,1,0,0,,,0,FALSE,,,,,,,,,,,,,,,,,,,,,,,,,,,,,,
,Tymon,001,2022-04-29_05h28.04.115,classification_task,2021.2.3,Win32,143.5544071,5eea0a01da0cfc0a744df4d9,626b377229c10585ec392f89,626b39698435957963ffee02,,,,,,,,,,,,,,,,,,,,,,,l,1,1.9853,"[""0.050"",""0.098"",""0.503"",""0.776""]","[1,0,1,1]",0,18,18,18,1,1,1,,,0,FALSE,,,,,,,,,,,,,,,,,,,,,,,,,,,,,,
,Tymon,001,2022-04-29_05h28.04.115,classification_task,2021.2.3,Win32,143.5544071,5eea0a01da0cfc0a744df4d9,626b377229c10585ec392f89,626b39698435957963ffee02,,,,,,,,,,,,,,,,,,,,,,,a,1,0.9609,"[""0.322"",""0.556"",""0.623"",""0.973""]","[1,1,0,1]",0,19,19,19,1,0,0,,,0,FALSE,,,,,,,,,,,,,,,,,,,,,,,,,,,,,,
,Tymon,001,2022-04-29_05h28.04.115,classification_task,2021.2.3,Win32,143.5544071,5eea0a01da0cfc0a744df4d9,626b377229c10585ec392f89,626b39698435957963ffee02,,,,,,,,,,,,,,,,,,,,,,,l,0,3.9645,"[""0.623"",""0.408"",""0.811"",""0.933""]","[0,1,1,1]",0,20,20,20,1,0,1,,,0,FALSE,,,,,,,,,,,,,,,,,,,,,,,,,,,,,,
,Tymon,001,2022-04-29_05h28.04.115,classification_task,2021.2.3,Win32,143.5544071,5eea0a01da0cfc0a744df4d9,626b377229c10585ec392f89,626b39698435957963ffee02,,,,,,,,,,,,,,,,,,,,,,,l,1,0.9912,"[""0.098"",""0.247"",""0.659"",""0.721""]","[0,1,1,1]",0,21,21,21,1,1,0,,,0,FALSE,,,,,,,,,,,,,,,,,,,,,,,,,,,,,,
,Tymon,001,2022-04-29_05h28.04.115,classification_task,2021.2.3,Win32,143.5544071,5eea0a01da0cfc0a744df4d9,626b377229c10585ec392f89,626b39698435957963ffee02,,,,,,,,,,,,,,,,,,,,,,,l,1,1.503,"[""0.595"",""0.199"",""0.503"",""0.776""]","[0,1,1,1]",0,22,22,22,1,1,1,,,0,FALSE,,,,,,,,,,,,,,,,,,,,,,,,,,,,,,
,Tymon,001,2022-04-29_05h28.04.115,classification_task,2021.2.3,Win32,143.5544071,5eea0a01da0cfc0a744df4d9,626b377229c10585ec392f89,626b39698435957963ffee02,,,,,,,,,,,,,,,,,,,,,,,l,0,1.0391,"[""0.322"",""0.356"",""0.872"",""0.973""]","[1,0,1,1]",0,23,23,23,1,0,0,,,0,FALSE,,,,,,,,,,,,,,,,,,,,,,,,,,,,,,
,Tymon,001,2022-04-29_05h28.04.115,classification_task,2021.2.3,Win32,143.5544071,5eea0a01da0cfc0a744df4d9,626b377229c10585ec392f89,626b39698435957963ffee02,,,,,,,,,,,,,,,,,,,,,,,a,1,1.5715,"[""0.288"",""0.408"",""0.811"",""0.362""]","[1,1,1,0]",0,24,24,24,1,0,1,,,0,FALSE,,,,,,,,,,,,,,,,,,,,,,,,,,,,,,
,Tymon,001,2022-04-29_05h28.04.115,classification_task,2021.2.3,Win32,143.5544071,5eea0a01da0cfc0a744df4d9,626b377229c10585ec392f89,626b39698435957963ffee02,,,,,,,,,,,,,,,,,,,,,,,a,1,0.7248,"[""0.288"",""0.454"",""0.811"",""0.933""]","[1,0,1,1]",0,25,25,25,1,0,1,,,0,FALSE,,,,,,,,,,,,,,,,,,,,,,,,,,,,,,
,Tymon,001,2022-04-29_05h28.04.115,classification_task,2021.2.3,Win32,143.5544071,5eea0a01da0cfc0a744df4d9,626b377229c10585ec392f89,626b39698435957963ffee02,,,,,,,,,,,,,,,,,,,,,,,a,1,1.5137,"[""0.322"",""0.556"",""0.872"",""0.442""]","[1,1,1,0]",0,26,26,26,1,0,0,,,0,FALSE,,,,,,,,,,,,,,,,,,,,,,,,,,,,,,
,Tymon,001,2022-04-29_05h28.04.115,classification_task,2021.2.3,Win32,143.5544071,5eea0a01da0cfc0a744df4d9,626b377229c10585ec392f89,626b39698435957963ffee02,,,,,,,,,,,,,,,,,,,,,,,a,1,1.4706,"[""0.288"",""0.408"",""0.458"",""0.933""]","[1,1,0,1]",0,27,27,27,1,0,1,,,0,FALSE,,,,,,,,,,,,,,,,,,,,,,,,,,,,,,
,Tymon,001,2022-04-29_05h28.04.115,classification_task,2021.2.3,Win32,143.5544071,5eea0a01da0cfc0a744df4d9,626b377229c10585ec392f89,626b39698435957963ffee02,,,,,,,,,,,,,,,,,,,,,,,l,1,1.7571,"[""0.138"",""0.247"",""0.659"",""0.624""]","[1,1,1,0]",0,28,28,28,1,1,0,,,0,FALSE,,,,,,,,,,,,,,,,,,,,,,,,,,,,,,
,Tymon,001,2022-04-29_05h28.04.115,classification_task,2021.2.3,Win32,143.5544071,5eea0a01da0cfc0a744df4d9,626b377229c10585ec392f89,626b39698435957963ffee02,,,,,,,,,,,,,,,,,,,,,,,a,0,3.9256,"[""0.050"",""0.199"",""0.356"",""0.776""]","[1,1,0,1]",0,29,29,29,1,1,1,,,0,FALSE,,,,,,,,,,,,,,,,,,,,,,,,,,,,,,
,Tymon,001,2022-04-29_05h28.04.115,classification_task,2021.2.3,Win32,143.5544071,5eea0a01da0cfc0a744df4d9,626b377229c10585ec392f89,626b39698435957963ffee02,,,,,,,,,,,,,,,,,,,,,,,l,1,2.4255,"[""0.138"",""0.623"",""0.659"",""0.721""]","[1,0,1,1]",0,30,30,30,1,1,0,,,0,FALSE,,,,,,,,,,,,,,,,,,,,,,,,,,,,,,
,Tymon,001,2022-04-29_05h28.04.115,classification_task,2021.2.3,Win32,143.5544071,5eea0a01da0cfc0a744df4d9,626b377229c10585ec392f89,626b39698435957963ffee02,,,,,,,,,,,,,,,,,,,,,,,l,1,2.7853,"[""0.138"",""0.247"",""0.454"",""0.721""]","[1,1,0,1]",0,31,31,31,1,1,0,,,0,FALSE,,,,,,,,,,,,,,,,,,,,,,,,,,,,,,
,Tymon,001,2022-04-29_05h28.04.115,classification_task,2021.2.3,Win32,143.5544071,5eea0a01da0cfc0a744df4d9,626b377229c10585ec392f89,626b39698435957963ffee02,,,,,,,,,,,,,,,,,,,,,,,l,1,1.851,"[""0.050"",""0.199"",""0.503"",""0.458""]","[1,1,1,0]",0,32,32,32,1,1,1,,,0,FALSE,,,,,,,,,,,,,,,,,,,,,,,,,,,,,,
,Tymon,001,2022-04-29_05h28.04.115,classification_task,2021.2.3,Win32,143.5544071,5eea0a01da0cfc0a744df4d9,626b377229c10585ec392f89,626b39698435957963ffee02,,,,,,,,,,,,,,,,,,,,,,,l,0,2.1566,"[""0.322"",""0.623"",""0.872"",""0.973""]","[1,0,1,1]",0,33,33,33,1,0,0,,,0,FALSE,,,,,,,,,,,,,,,,,,,,,,,,,,,,,,
,Tymon,001,2022-04-29_05h28.04.115,classification_task,2021.2.3,Win32,143.5544071,5eea0a01da0cfc0a744df4d9,626b377229c10585ec392f89,626b39698435957963ffee02,,,,,,,,,,,,,,,,,,,,,,,a,1,1.8552,"[""0.288"",""0.408"",""0.811"",""0.458""]","[1,1,1,0]",0,34,34,34,1,0,1,,,0,FALSE,,,,,,,,,,,,,,,,,,,,,,,,,,,,,,
,Tymon,001,2022-04-29_05h28.04.115,classification_task,2021.2.3,Win32,143.5544071,5eea0a01da0cfc0a744df4d9,626b377229c10585ec392f89,626b39698435957963ffee02,,,,,,,,,,,,,,,,,,,,,,,l,1,1.264,"[""0.363"",""0.247"",""0.659"",""0.721""]","[0,1,1,1]",0,35,35,35,1,1,0,,,0,FALSE,,,,,,,,,,,,,,,,,,,,,,,,,,,,,,
,Tymon,001,2022-04-29_05h28.04.115,classification_task,2021.2.3,Win32,143.5544071,5eea0a01da0cfc0a744df4d9,626b377229c10585ec392f89,626b39698435957963ffee02,,,,,,,,,,,,,,,,,,,,,,,a,1,1.4384,"[""0.322"",""0.556"",""0.454"",""0.973""]","[1,1,0,1]",0,36,36,36,1,0,0,,,0,FALSE,,,,,,,,,,,,,,,,,,,,,,,,,,,,,,
,Tymon,001,2022-04-29_05h28.04.115,classification_task,2021.2.3,Win32,143.5544071,5eea0a01da0cfc0a744df4d9,626b377229c10585ec392f89,626b39698435957963ffee02,,,,,,,,,,,,,,,,,,,,,,,l,1,3.4876,"[""0.443"",""0.199"",""0.503"",""0.776""]","[0,1,1,1]",0,37,37,37,1,1,1,,,0,FALSE,,,,,,,,,,,,,,,,,,,,,,,,,,,,,,
,Tymon,001,2022-04-29_05h28.04.115,classification_task,2021.2.3,Win32,143.5544071,5eea0a01da0cfc0a744df4d9,626b377229c10585ec392f89,626b39698435957963ffee02,,,,,,,,,,,,,,,,,,,,,,,a,1,2.32,"[""0.362"",""0.556"",""0.872"",""0.973""]","[0,1,1,1]",0,38,38,38,1,0,0,,,0,FALSE,,,,,,,,,,,,,,,,,,,,,,,,,,,,,,
,Tymon,001,2022-04-29_05h28.04.115,classification_task,2021.2.3,Win32,143.5544071,5eea0a01da0cfc0a744df4d9,626b377229c10585ec392f89,626b39698435957963ffee02,,,,,,,,,,,,,,,,,,,,,,,l,1,1.865,"[""0.050"",""0.458"",""0.503"",""0.776""]","[1,0,1,1]",0,39,39,39,1,1,1,,,0,FALSE,,,,,,,,,,,,,,,,,,,,,,,,,,,,,,
,Tymon,001,2022-04-29_05h28.04.115,classification_task,2021.2.3,Win32,143.5544071,5eea0a01da0cfc0a744df4d9,626b377229c10585ec392f89,626b39698435957963ffee02,,,,,,,,,,,,,,,,,,,,,,,a,1,1.0142,"[""0.322"",""0.556"",""0.872"",""0.443""]","[1,1,1,0]",0,40,40,40,1,0,0,,,0,FALSE,,,,,,,,,,,,,,,,,,,,,,,,,,,,,,
,Tymon,001,2022-04-29_05h28.04.115,classification_task,2021.2.3,Win32,143.5544071,5eea0a01da0cfc0a744df4d9,626b377229c10585ec392f89,626b39698435957963ffee02,,,,,,,,,,,,,,,,,,,,,,,l,1,1.5796,"[""0.138"",""0.442"",""0.659"",""0.721""]","[1,0,1,1]",0,41,41,41,1,1,0,,,0,FALSE,,,,,,,,,,,,,,,,,,,,,,,,,,,,,,
,Tymon,001,2022-04-29_05h28.04.115,classification_task,2021.2.3,Win32,143.5544071,5eea0a01da0cfc0a744df4d9,626b377229c10585ec392f89,626b39698435957963ffee02,,,,,,,,,,,,,,,,,,,,,,,a,1,1.6285,"[""0.288"",""0.085"",""0.811"",""0.933""]","[1,0,1,1]",0,42,42,42,1,0,1,,,0,FALSE,,,,,,,,,,,,,,,,,,,,,,,,,,,,,,
,Tymon,001,2022-04-29_05h28.04.115,classification_task,2021.2.3,Win32,143.5544071,5eea0a01da0cfc0a744df4d9,626b377229c10585ec392f89,626b39698435957963ffee02,,,,,,,,,,,,,,,,,,,,,,,a,1,1.4109,"[""0.288"",""0.408"",""0.621"",""0.933""]","[1,1,0,1]",0,43,43,43,1,0,1,,,0,FALSE,,,,,,,,,,,,,,,,,,,,,,,,,,,,,,
,Tymon,001,2022-04-29_05h28.04.115,classification_task,2021.2.3,Win32,143.5544071,5eea0a01da0cfc0a744df4d9,626b377229c10585ec392f89,626b39698435957963ffee02,,,,,,,,,,,,,,,,,,,,,,,l,1,7.0826,"[""0.138"",""0.247"",""0.659"",""0.442""]","[1,1,1,0]",0,44,44,44,1,1,0,,,0,FALSE,,,,,,,,,,,,,,,,,,,,,,,,,,,,,,
,Tymon,001,2022-04-29_05h28.04.115,classification_task,2021.2.3,Win32,143.5544071,5eea0a01da0cfc0a744df4d9,626b377229c10585ec392f89,626b39698435957963ffee02,,,,,,,,,,,,,,,,,,,,,,,l,1,5.5498,"[""0.050"",""0.199"",""0.621"",""0.776""]","[1,1,0,1]",0,45,45,45,1,1,1,,,0,FALSE,,,,,,,,,,,,,,,,,,,,,,,,,,,,,,
,Tymon,001,2022-04-29_05h28.04.115,classification_task,2021.2.3,Win32,143.5544071,5eea0a01da0cfc0a744df4d9,626b377229c10585ec392f89,626b39698435957963ffee02,,,,,,,,,,,,,,,,,,,,,,,l,0,3.8019,"[""0.621"",""0.408"",""0.811"",""0.933""]","[0,1,1,1]",0,46,46,46,1,0,1,,,0,FALSE,,,,,,,,,,,,,,,,,,,,,,,,,,,,,,
,Tymon,001,2022-04-29_05h28.04.115,classification_task,2021.2.3,Win32,143.5544071,5eea0a01da0cfc0a744df4d9,626b377229c10585ec392f89,626b39698435957963ffee02,,,,,,,,,,,,,,,,,,,,,,,l,1,2.237,"[""0.138"",""0.247"",""0.458"",""0.721""]","[1,1,0,1]",0,47,47,47,1,1,0,,,0,FALSE,,,,,,,,,,,,,,,,,,,,,,,,,,,,,,
,Tymon,001,2022-04-29_05h28.04.115,classification_task,2021.2.3,Win32,143.5544071,5eea0a01da0cfc0a744df4d9,626b377229c10585ec392f89,626b39698435957963ffee02,,,,,,,,,,,,,,,,,,,,,,,a,0,3.2766,"[""0.050"",""0.454"",""0.503"",""0.776""]","[1,0,1,1]",0,48,48,48,1,1,1,,,0,FALSE,,,,,,,,,,,,,,,,,,,,,,,,,,,,,,
,Tymon,001,2022-04-29_05h28.04.115,classification_task,2021.2.3,Win32,143.5544071,5eea0a01da0cfc0a744df4d9,626b377229c10585ec392f89,626b39698435957963ffee02,,,,,,,,,,,,,,,,,,,,,,,a,1,2.4963,"[""0.288"",""0.408"",""0.811"",""0.595""]","[1,1,1,0]",0,49,49,49,1,0,1,,,0,FALSE,,,,,,,,,,,,,,,,,,,,,,,,,,,,,,
,Tymon,001,2022-04-29_05h28.04.115,classification_task,2021.2.3,Win32,143.5544071,5eea0a01da0cfc0a744df4d9,626b377229c10585ec392f89,626b39698435957963ffee02,,,,,,,,,,,,,,,,,,,,,,,l,1,4.4562,"[""0.138"",""0.247"",""0.659"",""0.085""]","[1,1,1,0]",0,50,50,50,1,1,0,,,0,FALSE,,,,,,,,,,,,,,,,,,,,,,,,,,,,,,
,Tymon,001,2022-04-29_05h28.04.115,classification_task,2021.2.3,Win32,143.5544071,5eea0a01da0cfc0a744df4d9,626b377229c10585ec392f89,626b39698435957963ffee02,,,,,,,,,,,,,,,,,,,,,,,l,1,2.3475,"[""0.138"",""0.458"",""0.659"",""0.721""]","[1,0,1,1]",0,51,51,51,1,1,0,,,0,FALSE,,,,,,,,,,,,,,,,,,,,,,,,,,,,,,
,Tymon,001,2022-04-29_05h28.04.115,classification_task,2021.2.3,Win32,143.5544071,5eea0a01da0cfc0a744df4d9,626b377229c10585ec392f89,626b39698435957963ffee02,,,,,,,,,,,,,,,,,,,,,,,a,1,1.007,"[""0.088"",""0.556"",""0.872"",""0.973""]","[0,1,1,1]",0,52,52,52,1,0,0,,,0,FALSE,,,,,,,,,,,,,,,,,,,,,,,,,,,,,,
,Tymon,001,2022-04-29_05h28.04.115,classification_task,2021.2.3,Win32,143.5544071,5eea0a01da0cfc0a744df4d9,626b377229c10585ec392f89,626b39698435957963ffee02,,,,,,,,,,,,,,,,,,,,,,,l,1,2.0887,"[""0.368"",""0.247"",""0.659"",""0.721""]","[0,1,1,1]",0,53,53,53,1,1,0,,,0,FALSE,,,,,,,,,,,,,,,,,,,,,,,,,,,,,,
,Tymon,001,2022-04-29_05h28.04.115,classification_task,2021.2.3,Win32,143.5544071,5eea0a01da0cfc0a744df4d9,626b377229c10585ec392f89,626b39698435957963ffee02,,,,,,,,,,,,,,,,,,,,,,,l,1,1.5893,"[""0.624"",""0.199"",""0.503"",""0.776""]","[0,1,1,1]",0,54,54,54,1,1,1,,,0,FALSE,,,,,,,,,,,,,,,,,,,,,,,,,,,,,,
,Tymon,001,2022-04-29_05h28.04.115,classification_task,2021.2.3,Win32,143.5544071,5eea0a01da0cfc0a744df4d9,626b377229c10585ec392f89,626b39698435957963ffee02,,,,,,,,,,,,,,,,,,,,,,,l,0,1.3592,"[""0.454"",""0.408"",""0.811"",""0.933""]","[0,1,1,1]",0,55,55,55,1,0,1,,,0,FALSE,,,,,,,,,,,,,,,,,,,,,,,,,,,,,,
,Tymon,001,2022-04-29_05h28.04.115,classification_task,2021.2.3,Win32,143.5544071,5eea0a01da0cfc0a744df4d9,626b377229c10585ec392f89,626b39698435957963ffee02,,,,,,,,,,,,,,,,,,,,,,,a,1,0.6309,"[""0.322"",""0.556"",""0.088"",""0.973""]","[1,1,0,1]",0,56,56,56,1,0,0,,,0,FALSE,,,,,,,,,,,,,,,,,,,,,,,,,,,,,,
,Tymon,001,2022-04-29_05h28.04.115,classification_task,2021.2.3,Win32,143.5544071,5eea0a01da0cfc0a744df4d9,626b377229c10585ec392f89,626b39698435957963ffee02,,,,,,,,,,,,,,,,,,,,,,,l,1,1.2566,"[""0.138"",""0.247"",""0.621"",""0.721""]","[1,1,0,1]",0,57,57,57,1,1,0,,,0,FALSE,,,,,,,,,,,,,,,,,,,,,,,,,,,,,,
,Tymon,001,2022-04-29_05h28.04.115,classification_task,2021.2.3,Win32,143.5544071,5eea0a01da0cfc0a744df4d9,626b377229c10585ec392f89,626b39698435957963ffee02,,,,,,,,,,,,,,,,,,,,,,,l,1,1.6073,"[""0.050"",""0.199"",""0.503"",""0.363""]","[1,1,1,0]",0,58,58,58,1,1,1,,,0,FALSE,,,,,,,,,,,,,,,,,,,,,,,,,,,,,,
,Tymon,001,2022-04-29_05h28.04.115,classification_task,2021.2.3,Win32,143.5544071,5eea0a01da0cfc0a744df4d9,626b377229c10585ec392f89,626b39698435957963ffee02,,,,,,,,,,,,,,,,,,,,,,,a,1,2.329,"[""0.322"",""0.556"",""0.872"",""0.088""]","[1,1,1,0]",0,59,59,59,1,0,0,,,0,FALSE,,,,,,,,,,,,,,,,,,,,,,,,,,,,,,
,Tymon,001,2022-04-29_05h28.04.115,classification_task,2021.2.3,Win32,143.5544071,5eea0a01da0cfc0a744df4d9,626b377229c10585ec392f89,626b39698435957963ffee02,,,,,,,,,,,,,,,,,,,,,,,l,0,0.7768,"[""0.288"",""0.088"",""0.811"",""0.933""]","[1,0,1,1]",0,60,60,60,1,0,1,,,0,FALSE,,,,,,,,,,,,,,,,,,,,,,,,,,,,,,
,Tymon,001,2022-04-29_05h28.04.115,classification_task,2021.2.3,Win32,143.5544071,5eea0a01da0cfc0a744df4d9,626b377229c10585ec392f89,626b39698435957963ffee02,,,,,,,,,,,,,,,,,,,,,,,l,0,1.1661,"[""0.288"",""0.408"",""0.362"",""0.933""]","[1,1,0,1]",0,61,61,61,1,0,1,,,0,FALSE,,,,,,,,,,,,,,,,,,,,,,,,,,,,,,
,Tymon,001,2022-04-29_05h28.04.115,classification_task,2021.2.3,Win32,143.5544071,5eea0a01da0cfc0a744df4d9,626b377229c10585ec392f89,626b39698435957963ffee02,,,,,,,,,,,,,,,,,,,,,,,l,0,0.9681,"[""0.322"",""0.621"",""0.872"",""0.973""]","[1,0,1,1]",0,62,62,62,1,0,0,,,0,FALSE,,,,,,,,,,,,,,,,,,,,,,,,,,,,,,
,Tymon,001,2022-04-29_05h28.04.115,classification_task,2021.2.3,Win32,143.5544071,5eea0a01da0cfc0a744df4d9,626b377229c10585ec392f89,626b39698435957963ffee02,,,,,,,,,,,,,,,,,,,,,,,l,1,1.2948,"[""0.050"",""0.199"",""0.363"",""0.776""]","[1,1,0,1]",0,63,63,63,1,1,1,,,0,FALSE,,,,,,,,,,,,,,,,,,,,,,,,,,,,,,
,Tymon,001,2022-04-29_05h28.04.115,classification_task,2021.2.3,Win32,143.5544071,5eea0a01da0cfc0a744df4d9,626b377229c10585ec392f89,626b39698435957963ffee02,,,,,,,,,,,,,,,,,,,,,,,,,,,,,,,,,,,,,,,0, ,,0,0.645943189,207.9572,0,2,2,2,1,2,3,,,,,,,,,,,,,,,,,
,Tymon,001,2022-04-29_05h28.04.115,classification_task,2021.2.3,Win32,143.5544071,5eea0a01da0cfc0a744df4d9,626b377229c10585ec392f89,626b39698435957963ffee02,,,,,,,,,,,,,,,,,,,,,,,,,,,,,,,,,,,,,,,1,  ,,0,5.594014073,216.0673,0,2,2,2,1,2,3,,,,,,,,,,,,,,,,,
,Tymon,001,2022-04-29_05h28.04.115,classification_task,2021.2.3,Win32,143.5544071,5eea0a01da0cfc0a744df4d9,626b377229c10585ec392f89,626b39698435957963ffee02,,,,,,,,,,,,,,,,,,,,,,,,,,,,,,,,,,,,,,,2,  ,,0,3.707867547,218.7886,0,2,2,2,1,2,3,,,,,,,,,,,,,,,,,
,Tymon,001,2022-04-29_05h28.04.115,classification_task,2021.2.3,Win32,143.5544071,5eea0a01da0cfc0a744df4d9,626b377229c10585ec392f89,626b39698435957963ffee02,,,,,,,,,,,,,,,,,,,,,,,,,,,,,,,,,,,,,,,,,,,,,0,2,2,2,1,,3,,,,,,,,,,,,,,,,,
,Tymon,001,2022-04-29_05h28.04.115,classification_task,2021.2.3,Win32,143.5544071,5eea0a01da0cfc0a744df4d9,626b377229c10585ec392f89,626b39698435957963ffee02,,,,,,,,,,,,,,,,,,,,,,,,,,,,,,,,,,,,,,,,,,,,,,,,,,,,,I believe the aid is a competent performer,,0.7,0,3,839.818,0,0,0,0,1,0,,,,
,Tymon,001,2022-04-29_05h28.04.115,classification_task,2021.2.3,Win32,143.5544071,5eea0a01da0cfc0a744df4d9,626b377229c10585ec392f89,626b39698435957963ffee02,,,,,,,,,,,,,,,,,,,,,,,,,,,,,,,,,,,,,,,,,,,,,,,,,,,,,I trust the aid,,0.7,0,3,838.5662,0,0,0,0,1,0,,,,
,Tymon,001,2022-04-29_05h28.04.115,classification_task,2021.2.3,Win32,143.5544071,5eea0a01da0cfc0a744df4d9,626b377229c10585ec392f89,626b39698435957963ffee02,,,,,,,,,,,,,,,,,,,,,,,,,,,,,,,,,,,,,,,,,,,,,,,,,,,,,I have confidence in the advice given by the aid,,0.7,0,4,846.6469,0,0,0,0,1,0,,,,
,Tymon,001,2022-04-29_05h28.04.115,classification_task,2021.2.3,Win32,143.5544071,5eea0a01da0cfc0a744df4d9,626b377229c10585ec392f89,626b39698435957963ffee02,,,,,,,,,,,,,,,,,,,,,,,,,,,,,,,,,,,,,,,,,,,,,,,,,,,,,I can depend on the aid,,0.7,0,3,843.365,0,0,0,0,1,0,,,,
,Tymon,001,2022-04-29_05h28.04.115,classification_task,2021.2.3,Win32,143.5544071,5eea0a01da0cfc0a744df4d9,626b377229c10585ec392f89,626b39698435957963ffee02,,,,,,,,,,,,,,,,,,,,,,,,,,,,,,,,,,,,,,,,,,,,,,,,,,,,,I can rely on the aid to behave in consistent ways,,0.7,0,4,851.4785,0,0,0,0,1,0,,,,
,Tymon,001,2022-04-29_05h28.04.115,classification_task,2021.2.3,Win32,143.5544071,5eea0a01da0cfc0a744df4d9,626b377229c10585ec392f89,626b39698435957963ffee02,,,,,,,,,,,,,,,,,,,,,,,,,,,,,,,,,,,,,,,,,,,,,,,,,,,,,I can rely on the aid to do its best every time I take its advice,,0.7,0,4,881.6645,0,0,0,0,1,0,,,,
,Tymon,001,2022-04-29_05h28.04.115,classification_task,2021.2.3,Win32,143.5544071,5eea0a01da0cfc0a744df4d9,626b377229c10585ec392f89,626b39698435957963ffee02,,,,,,,,,,,,,,,,,,,,,,,,,,,,,,,,,,,,,,,,,,,,,,,,,,,,,"On trials you completed with assistance from the aid, how frequently did you think the aid was correct?",,0.7,0,80%,,0,0,0,0,1,0,,,,
,Tymon,001,2022-04-29_05h28.04.115,classification_task,2021.2.3,Win32,143.5544071,5eea0a01da0cfc0a744df4d9,626b377229c10585ec392f89,626b39698435957963ffee02,,,,,,,,,,,,,,,,,,,,,,,,,,,,,,,,,,,,,,,,,,,,,,,,,,,,,"On trials you completed without the aid, how frequently did you think you were correct?",,0.7,0,85%,,0,0,0,0,1,0,,,,
,Tymon,001,2022-04-29_05h28.04.115,classification_task,2021.2.3,Win32,143.5544071,5eea0a01da0cfc0a744df4d9,626b377229c10585ec392f89,626b39698435957963ffee02,,,,,,,,,,,,,,,,,,,,,,,,,,,,,,,,,,,,,,,,,,,,,,,,,,,,,,,,,,,0,0,0,0,1,,,,,
,Tymon,001,2022-04-29_05h28.04.115,classification_task,2021.2.3,Win32,143.5544071,5eea0a01da0cfc0a744df4d9,626b377229c10585ec392f89,626b39698435957963ffee02,,,,,,,,,,,,,,,,,,,,,,,,,,,,,,,,,,,,,,,,,,,,,,,,,,,,,,,,,,,,,,,,,space,7.3766,889.8529,
,Tymon,001,2022-04-29_05h28.04.115,classification_task,2021.2.3,Win32,143.5544071,5eea0a01da0cfc0a744df4d9,626b377229c10585ec392f89,626b39698435957963ffee02,,,,,,,,,,,,,,,,,,,,,,,,,,,,,,,,,,,,,,,,,,,,,,,,,,,,,,,,,,,,,,,,,,,,"Mozilla/5.0 (Windows NT 10.0; Win64; x64) AppleWebKit/537.36 (KHTML, like Gecko) Chrome/100.0.4896.127 Safari/537.36"
