usingWebGL,participant,session,date,expName,psychopyVersion,OS,frameRate,PROLIFIC_PID,STUDY_ID,SESSION_ID,signatures_friend,signatures_foe,band_ranges_top,band_ranges_bottom,formitemText,formtype,formundefined,formitemWidth,formindex,formresponse,formrt,key_resp_2.keys,key_resp_2.rt,tute_resp.keys,tute_resp.rt,tutorial.thisRepN,tutorial.thisTrialN,tutorial.thisN,tutorial.thisIndex,tutorial.ran,key_resp_4.keys,key_resp_4.rt,key_resp.keys,key_resp.corr,key_resp.rt,lines_presented,is_signal_presented,trials.thisRepN,trials.thisTrialN,trials.thisN,trials.thisIndex,trials.ran,vessel,active_band,lines,is_signal,supported_pos,catch_trial,debrief_formindex,debrief_formitemText,debrief_formtype,debrief_formitemWidth,debrief_formresponse,debrief_formrt,phases.thisRepN,phases.thisTrialN,phases.thisN,phases.thisIndex,phases.ran,phases.order,phase,key_resp_3.keys,trustitemText,trusttype,trustitemWidth,trustindex,trustresponse,trustrt,support_status.thisRepN,support_status.thisTrialN,support_status.thisN,support_status.thisIndex,support_status.ran,support_status.order,key_resp_5.keys,key_resp_5.rt,globalClockTime,userAgent
TRUE,Vania Acosta,001,2022-04-28_21h16.54.612,classification_task,2021.2.3,Win32,60.14675809,5f264332488e13372281c1c8,626b377229c10585ec392f8a,626b3c40b0c628ea2af49a9c,,,,,,,,,,,,,,,,,,,,,,,,,,,,,,,,,,,,,,,,,,,,,,,,,,,,,,,,,,,,,,,,,,,,
,Vania Acosta,001,2022-04-28_21h16.54.612,classification_task,2021.2.3,Win32,60.14675809,5f264332488e13372281c1c8,626b377229c10585ec392f8a,626b3c40b0c628ea2af49a9c,"[[""0.308"",""0.534"",""0.568"",""0.910""],[""0.182"",""0.359"",""0.869"",""0.954""]]","[[""0.064"",""0.220"",""0.463"",""0.822""],[""0.107"",""0.394"",""0.604"",""0.766""]]","[1,10]","[100,1000]",Video game experience,,,0.7,0,,,,,,,,,,,,,,,,,,,,,,,,,,,,,,,,,,,,,,,,,,,,,,,,,,,,,,,,,,,
,Vania Acosta,001,2022-04-28_21h16.54.612,classification_task,2021.2.3,Win32,60.14675809,5f264332488e13372281c1c8,626b377229c10585ec392f8a,626b3c40b0c628ea2af49a9c,,,,,Approximately how many hours did you spend playing video games in the last week?,,,0.7,0,5,,,,,,,,,,,,,,,,,,,,,,,,,,,,,,,,,,,,,,,,,,,,,,,,,,,,,,,,,,
,Vania Acosta,001,2022-04-28_21h16.54.612,classification_task,2021.2.3,Win32,60.14675809,5f264332488e13372281c1c8,626b377229c10585ec392f8a,626b3c40b0c628ea2af49a9c,,,,,"Which game did you play the most this year? (Enter ""None"" if you didn't play any)",,,0.7,0,The sims 4,,,,,,,,,,,,,,,,,,,,,,,,,,,,,,,,,,,,,,,,,,,,,,,,,,,,,,,,,,
,Vania Acosta,001,2022-04-28_21h16.54.612,classification_task,2021.2.3,Win32,60.14675809,5f264332488e13372281c1c8,626b377229c10585ec392f8a,626b3c40b0c628ea2af49a9c,,,,,Visual perception,,,0.7,0,,,,,,,,,,,,,,,,,,,,,,,,,,,,,,,,,,,,,,,,,,,,,,,,,,,,,,,,,,,
,Vania Acosta,001,2022-04-28_21h16.54.612,classification_task,2021.2.3,Win32,60.14675809,5f264332488e13372281c1c8,626b377229c10585ec392f8a,626b3c40b0c628ea2af49a9c,,,,,Do you have any form of color blindness?,,,0.7,0,No,31.6608,,,,,,,,,,,,,,,,,,,,,,,,,,,,,,,,,,,,,,,,,,,,,,,,,,,,,,,,,
,Vania Acosta,001,2022-04-28_21h16.54.612,classification_task,2021.2.3,Win32,60.14675809,5f264332488e13372281c1c8,626b377229c10585ec392f8a,626b3c40b0c628ea2af49a9c,,,,,Do you use software to change the colour temperature of your screen (e.g. f.lux)?,,,0.7,0,No,35.5666,,,,,,,,,,,,,,,,,,,,,,,,,,,,,,,,,,,,,,,,,,,,,,,,,,,,,,,,,
,Vania Acosta,001,2022-04-28_21h16.54.612,classification_task,2021.2.3,Win32,60.14675809,5f264332488e13372281c1c8,626b377229c10585ec392f8a,626b3c40b0c628ea2af49a9c,,,,,,,,,,,,space,111.5855,space,10.8577,0,0,0,0,1,,,,,,,,,,,,,,,,,,,,,,,,,,,,,,,,,,,,,,,,,,,,,,,,
,Vania Acosta,001,2022-04-28_21h16.54.612,classification_task,2021.2.3,Win32,60.14675809,5f264332488e13372281c1c8,626b377229c10585ec392f8a,626b3c40b0c628ea2af49a9c,,,,,,,,,,,,,,space,10.0663,1,0,1,0,1,,,,,,,,,,,,,,,,,,,,,,,,,,,,,,,,,,,,,,,,,,,,,,,,
,Vania Acosta,001,2022-04-28_21h16.54.612,classification_task,2021.2.3,Win32,60.14675809,5f264332488e13372281c1c8,626b377229c10585ec392f8a,626b3c40b0c628ea2af49a9c,,,,,,,,,,,,,,space,16.78,2,0,2,0,1,,,,,,,,,,,,,,,,,,,,,,,,,,,,,,,,,,,,,,,,,,,,,,,,
,Vania Acosta,001,2022-04-28_21h16.54.612,classification_task,2021.2.3,Win32,60.14675809,5f264332488e13372281c1c8,626b377229c10585ec392f8a,626b3c40b0c628ea2af49a9c,,,,,,,,,,,,,,space,23.6926,3,0,3,0,1,,,,,,,,,,,,,,,,,,,,,,,,,,,,,,,,,,,,,,,,,,,,,,,,
,Vania Acosta,001,2022-04-28_21h16.54.612,classification_task,2021.2.3,Win32,60.14675809,5f264332488e13372281c1c8,626b377229c10585ec392f8a,626b3c40b0c628ea2af49a9c,,,,,,,,,,,,,,space,15.5309,4,0,4,0,1,,,,,,,,,,,,,,,,,,,,,,,,,,,,,,,,,,,,,,,,,,,,,,,,
,Vania Acosta,001,2022-04-28_21h16.54.612,classification_task,2021.2.3,Win32,60.14675809,5f264332488e13372281c1c8,626b377229c10585ec392f8a,626b3c40b0c628ea2af49a9c,,,,,,,,,,,,,,,,,,,,,space,16.526,a,1,4.4266,"[""0.308"",""0.534"",""0.680"",""0.910""]","[1,1,0,1]",0,0,0,0,1,0,0,,,0,FALSE,,,,,,,,,,,,,,,,,,,,,,,,,,,,,,
,Vania Acosta,001,2022-04-28_21h16.54.612,classification_task,2021.2.3,Win32,60.14675809,5f264332488e13372281c1c8,626b377229c10585ec392f8a,626b3c40b0c628ea2af49a9c,,,,,,,,,,,,,,,,,,,,,,,a,1,4.4252,"[""0.182"",""0.359"",""0.869"",""0.255""]","[1,1,1,0]",0,1,1,1,1,0,1,,,0,FALSE,,,,,,,,,,,,,,,,,,,,,,,,,,,,,,
,Vania Acosta,001,2022-04-28_21h16.54.612,classification_task,2021.2.3,Win32,60.14675809,5f264332488e13372281c1c8,626b377229c10585ec392f8a,626b3c40b0c628ea2af49a9c,,,,,,,,,,,,,,,,,,,,,,,,0,,"[""0.259"",""0.394"",""0.604"",""0.766""]","[0,1,1,1]",0,2,2,2,1,1,1,,,0,FALSE,,,,,,,,,,,,,,,,,,,,,,,,,,,,,,
,Vania Acosta,001,2022-04-28_21h16.54.612,classification_task,2021.2.3,Win32,60.14675809,5f264332488e13372281c1c8,626b377229c10585ec392f8a,626b3c40b0c628ea2af49a9c,,,,,,,,,,,,,,,,,,,,,,,a,1,6.1989,"[""0.308"",""0.663"",""0.568"",""0.910""]","[1,0,1,1]",0,3,3,3,1,0,0,,,0,FALSE,,,,,,,,,,,,,,,,,,,,,,,,,,,,,,
,Vania Acosta,001,2022-04-28_21h16.54.612,classification_task,2021.2.3,Win32,60.14675809,5f264332488e13372281c1c8,626b377229c10585ec392f8a,626b3c40b0c628ea2af49a9c,,,,,,,,,,,,,,,,,,,,,,,a,1,5.6167,"[""0.182"",""0.359"",""0.270"",""0.954""]","[1,1,0,1]",0,4,4,4,1,0,1,,,0,FALSE,,,,,,,,,,,,,,,,,,,,,,,,,,,,,,
,Vania Acosta,001,2022-04-28_21h16.54.612,classification_task,2021.2.3,Win32,60.14675809,5f264332488e13372281c1c8,626b377229c10585ec392f8a,626b3c40b0c628ea2af49a9c,,,,,,,,,,,,,,,,,,,,,,,l,1,4.503,"[""0.064"",""0.255"",""0.463"",""0.822""]","[1,0,1,1]",0,5,5,5,1,1,0,,,0,FALSE,,,,,,,,,,,,,,,,,,,,,,,,,,,,,,
,Vania Acosta,001,2022-04-28_21h16.54.612,classification_task,2021.2.3,Win32,60.14675809,5f264332488e13372281c1c8,626b377229c10585ec392f8a,626b3c40b0c628ea2af49a9c,,,,,,,,,,,,,,,,,,,,,,,l,1,5.1456,"[""0.064"",""0.220"",""0.463"",""0.267""]","[1,1,1,0]",0,6,6,6,1,1,0,,,0,FALSE,,,,,,,,,,,,,,,,,,,,,,,,,,,,,,
,Vania Acosta,001,2022-04-28_21h16.54.612,classification_task,2021.2.3,Win32,60.14675809,5f264332488e13372281c1c8,626b377229c10585ec392f8a,626b3c40b0c628ea2af49a9c,,,,,,,,,,,,,,,,,,,,,,,a,0,4.6625,"[""0.146"",""0.220"",""0.463"",""0.822""]","[0,1,1,1]",0,7,7,7,1,1,0,,,0,FALSE,,,,,,,,,,,,,,,,,,,,,,,,,,,,,,
,Vania Acosta,001,2022-04-28_21h16.54.612,classification_task,2021.2.3,Win32,60.14675809,5f264332488e13372281c1c8,626b377229c10585ec392f8a,626b3c40b0c628ea2af49a9c,,,,,,,,,,,,,,,,,,,,,,,l,1,5.1794,"[""0.064"",""0.220"",""0.270"",""0.822""]","[1,1,0,1]",0,8,8,8,1,1,0,,,0,FALSE,,,,,,,,,,,,,,,,,,,,,,,,,,,,,,
,Vania Acosta,001,2022-04-28_21h16.54.612,classification_task,2021.2.3,Win32,60.14675809,5f264332488e13372281c1c8,626b377229c10585ec392f8a,626b3c40b0c628ea2af49a9c,,,,,,,,,,,,,,,,,,,,,,,l,0,4.9504,"[""0.142"",""0.359"",""0.869"",""0.954""]","[0,1,1,1]",0,9,9,9,1,0,1,,,0,FALSE,,,,,,,,,,,,,,,,,,,,,,,,,,,,,,
,Vania Acosta,001,2022-04-28_21h16.54.612,classification_task,2021.2.3,Win32,60.14675809,5f264332488e13372281c1c8,626b377229c10585ec392f8a,626b3c40b0c628ea2af49a9c,,,,,,,,,,,,,,,,,,,,,,,a,1,6.748,"[""0.663"",""0.534"",""0.568"",""0.910""]","[0,1,1,1]",0,10,10,10,1,0,0,,,0,FALSE,,,,,,,,,,,,,,,,,,,,,,,,,,,,,,
,Vania Acosta,001,2022-04-28_21h16.54.612,classification_task,2021.2.3,Win32,60.14675809,5f264332488e13372281c1c8,626b377229c10585ec392f8a,626b3c40b0c628ea2af49a9c,,,,,,,,,,,,,,,,,,,,,,,l,1,5.9663,"[""0.107"",""0.394"",""0.029"",""0.766""]","[1,1,0,1]",0,11,11,11,1,1,1,,,0,FALSE,,,,,,,,,,,,,,,,,,,,,,,,,,,,,,
,Vania Acosta,001,2022-04-28_21h16.54.612,classification_task,2021.2.3,Win32,60.14675809,5f264332488e13372281c1c8,626b377229c10585ec392f8a,626b3c40b0c628ea2af49a9c,,,,,,,,,,,,,,,,,,,,,,,l,1,3.4601,"[""0.107"",""0.270"",""0.604"",""0.766""]","[1,0,1,1]",0,12,12,12,1,1,1,,,0,FALSE,,,,,,,,,,,,,,,,,,,,,,,,,,,,,,
,Vania Acosta,001,2022-04-28_21h16.54.612,classification_task,2021.2.3,Win32,60.14675809,5f264332488e13372281c1c8,626b377229c10585ec392f8a,626b3c40b0c628ea2af49a9c,,,,,,,,,,,,,,,,,,,,,,,a,1,3.7523,"[""0.308"",""0.534"",""0.568"",""0.680""]","[1,1,1,0]",0,13,13,13,1,0,0,,,0,FALSE,,,,,,,,,,,,,,,,,,,,,,,,,,,,,,
,Vania Acosta,001,2022-04-28_21h16.54.612,classification_task,2021.2.3,Win32,60.14675809,5f264332488e13372281c1c8,626b377229c10585ec392f8a,626b3c40b0c628ea2af49a9c,,,,,,,,,,,,,,,,,,,,,,,l,1,3.237,"[""0.107"",""0.394"",""0.604"",""0.722""]","[1,1,1,0]",0,14,14,14,1,1,1,,,0,FALSE,,,,,,,,,,,,,,,,,,,,,,,,,,,,,,
,Vania Acosta,001,2022-04-28_21h16.54.612,classification_task,2021.2.3,Win32,60.14675809,5f264332488e13372281c1c8,626b377229c10585ec392f8a,626b3c40b0c628ea2af49a9c,,,,,,,,,,,,,,,,,,,,,,,l,0,2.4311,"[""0.182"",""0.267"",""0.869"",""0.954""]","[1,0,1,1]",0,15,15,15,1,0,1,,,0,FALSE,,,,,,,,,,,,,,,,,,,,,,,,,,,,,,
,Vania Acosta,001,2022-04-28_21h16.54.612,classification_task,2021.2.3,Win32,60.14675809,5f264332488e13372281c1c8,626b377229c10585ec392f8a,626b3c40b0c628ea2af49a9c,,,,,,,,,,,,,,,,,,,,,,,a,1,3.9628,"[""0.267"",""0.359"",""0.869"",""0.954""]","[0,1,1,1]",0,16,16,16,1,0,1,,,0,FALSE,,,,,,,,,,,,,,,,,,,,,,,,,,,,,,
,Vania Acosta,001,2022-04-28_21h16.54.612,classification_task,2021.2.3,Win32,60.14675809,5f264332488e13372281c1c8,626b377229c10585ec392f8a,626b3c40b0c628ea2af49a9c,,,,,,,,,,,,,,,,,,,,,,,l,1,3.0139,"[""0.107"",""0.394"",""0.604"",""0.267""]","[1,1,1,0]",0,17,17,17,1,1,1,,,0,FALSE,,,,,,,,,,,,,,,,,,,,,,,,,,,,,,
,Vania Acosta,001,2022-04-28_21h16.54.612,classification_task,2021.2.3,Win32,60.14675809,5f264332488e13372281c1c8,626b377229c10585ec392f8a,626b3c40b0c628ea2af49a9c,,,,,,,,,,,,,,,,,,,,,,,l,1,3.031,"[""0.107"",""0.394"",""0.668"",""0.766""]","[1,1,0,1]",0,18,18,18,1,1,1,,,0,FALSE,,,,,,,,,,,,,,,,,,,,,,,,,,,,,,
,Vania Acosta,001,2022-04-28_21h16.54.612,classification_task,2021.2.3,Win32,60.14675809,5f264332488e13372281c1c8,626b377229c10585ec392f8a,626b3c40b0c628ea2af49a9c,,,,,,,,,,,,,,,,,,,,,,,l,0,4.5934,"[""0.182"",""0.359"",""0.663"",""0.954""]","[1,1,0,1]",0,19,19,19,1,0,1,,,0,FALSE,,,,,,,,,,,,,,,,,,,,,,,,,,,,,,
,Vania Acosta,001,2022-04-28_21h16.54.612,classification_task,2021.2.3,Win32,60.14675809,5f264332488e13372281c1c8,626b377229c10585ec392f8a,626b3c40b0c628ea2af49a9c,,,,,,,,,,,,,,,,,,,,,,,l,1,6.1335,"[""0.064"",""0.220"",""0.680"",""0.822""]","[1,1,0,1]",0,20,20,20,1,1,0,,,0,FALSE,,,,,,,,,,,,,,,,,,,,,,,,,,,,,,
,Vania Acosta,001,2022-04-28_21h16.54.612,classification_task,2021.2.3,Win32,60.14675809,5f264332488e13372281c1c8,626b377229c10585ec392f8a,626b3c40b0c628ea2af49a9c,,,,,,,,,,,,,,,,,,,,,,,l,0,3.9668,"[""0.182"",""0.359"",""0.869"",""0.142""]","[1,1,1,0]",0,21,21,21,1,0,1,,,0,FALSE,,,,,,,,,,,,,,,,,,,,,,,,,,,,,,
,Vania Acosta,001,2022-04-28_21h16.54.612,classification_task,2021.2.3,Win32,60.14675809,5f264332488e13372281c1c8,626b377229c10585ec392f8a,626b3c40b0c628ea2af49a9c,,,,,,,,,,,,,,,,,,,,,,,l,1,5.7341,"[""0.064"",""0.267"",""0.463"",""0.822""]","[1,0,1,1]",0,22,22,22,1,1,0,,,0,FALSE,,,,,,,,,,,,,,,,,,,,,,,,,,,,,,
,Vania Acosta,001,2022-04-28_21h16.54.612,classification_task,2021.2.3,Win32,60.14675809,5f264332488e13372281c1c8,626b377229c10585ec392f8a,626b3c40b0c628ea2af49a9c,,,,,,,,,,,,,,,,,,,,,,,a,1,6.164,"[""0.182"",""0.029"",""0.869"",""0.954""]","[1,0,1,1]",0,23,23,23,1,0,1,,,0,FALSE,,,,,,,,,,,,,,,,,,,,,,,,,,,,,,
,Vania Acosta,001,2022-04-28_21h16.54.612,classification_task,2021.2.3,Win32,60.14675809,5f264332488e13372281c1c8,626b377229c10585ec392f8a,626b3c40b0c628ea2af49a9c,,,,,,,,,,,,,,,,,,,,,,,l,1,6.5413,"[""0.107"",""0.029"",""0.604"",""0.766""]","[1,0,1,1]",0,24,24,24,1,1,1,,,0,FALSE,,,,,,,,,,,,,,,,,,,,,,,,,,,,,,
,Vania Acosta,001,2022-04-28_21h16.54.612,classification_task,2021.2.3,Win32,60.14675809,5f264332488e13372281c1c8,626b377229c10585ec392f8a,626b3c40b0c628ea2af49a9c,,,,,,,,,,,,,,,,,,,,,,,a,1,5.2184,"[""0.308"",""0.534"",""0.568"",""0.270""]","[1,1,1,0]",0,25,25,25,1,0,0,,,0,FALSE,,,,,,,,,,,,,,,,,,,,,,,,,,,,,,
,Vania Acosta,001,2022-04-28_21h16.54.612,classification_task,2021.2.3,Win32,60.14675809,5f264332488e13372281c1c8,626b377229c10585ec392f8a,626b3c40b0c628ea2af49a9c,,,,,,,,,,,,,,,,,,,,,,,a,1,6.1603,"[""0.308"",""0.534"",""0.663"",""0.910""]","[1,1,0,1]",0,26,26,26,1,0,0,,,0,FALSE,,,,,,,,,,,,,,,,,,,,,,,,,,,,,,
,Vania Acosta,001,2022-04-28_21h16.54.612,classification_task,2021.2.3,Win32,60.14675809,5f264332488e13372281c1c8,626b377229c10585ec392f8a,626b3c40b0c628ea2af49a9c,,,,,,,,,,,,,,,,,,,,,,,a,1,3.2124,"[""0.693"",""0.534"",""0.568"",""0.910""]","[0,1,1,1]",0,27,27,27,1,0,0,,,0,FALSE,,,,,,,,,,,,,,,,,,,,,,,,,,,,,,
,Vania Acosta,001,2022-04-28_21h16.54.612,classification_task,2021.2.3,Win32,60.14675809,5f264332488e13372281c1c8,626b377229c10585ec392f8a,626b3c40b0c628ea2af49a9c,,,,,,,,,,,,,,,,,,,,,,,a,0,5.0351,"[""0.255"",""0.394"",""0.604"",""0.766""]","[0,1,1,1]",0,28,28,28,1,1,1,,,0,FALSE,,,,,,,,,,,,,,,,,,,,,,,,,,,,,,
,Vania Acosta,001,2022-04-28_21h16.54.612,classification_task,2021.2.3,Win32,60.14675809,5f264332488e13372281c1c8,626b377229c10585ec392f8a,626b3c40b0c628ea2af49a9c,,,,,,,,,,,,,,,,,,,,,,,l,1,4.7333,"[""0.064"",""0.220"",""0.463"",""0.642""]","[1,1,1,0]",0,29,29,29,1,1,0,,,0,FALSE,,,,,,,,,,,,,,,,,,,,,,,,,,,,,,
,Vania Acosta,001,2022-04-28_21h16.54.612,classification_task,2021.2.3,Win32,60.14675809,5f264332488e13372281c1c8,626b377229c10585ec392f8a,626b3c40b0c628ea2af49a9c,,,,,,,,,,,,,,,,,,,,,,,l,1,3.3787,"[""0.693"",""0.220"",""0.463"",""0.822""]","[0,1,1,1]",0,30,30,30,1,1,0,,,0,FALSE,,,,,,,,,,,,,,,,,,,,,,,,,,,,,,
,Vania Acosta,001,2022-04-28_21h16.54.612,classification_task,2021.2.3,Win32,60.14675809,5f264332488e13372281c1c8,626b377229c10585ec392f8a,626b3c40b0c628ea2af49a9c,,,,,,,,,,,,,,,,,,,,,,,a,1,4.1131,"[""0.308"",""0.668"",""0.568"",""0.910""]","[1,0,1,1]",0,31,31,31,1,0,0,,,0,FALSE,,,,,,,,,,,,,,,,,,,,,,,,,,,,,,
,Vania Acosta,001,2022-04-28_21h16.54.612,classification_task,2021.2.3,Win32,60.14675809,5f264332488e13372281c1c8,626b377229c10585ec392f8a,626b3c40b0c628ea2af49a9c,,,,,,,,,,,,,,,,,,,,,,,a,0,3.8705,"[""0.259"",""0.394"",""0.604"",""0.766""]","[0,1,1,1]",0,32,32,32,1,1,1,,,0,FALSE,,,,,,,,,,,,,,,,,,,,,,,,,,,,,,
,Vania Acosta,001,2022-04-28_21h16.54.612,classification_task,2021.2.3,Win32,60.14675809,5f264332488e13372281c1c8,626b377229c10585ec392f8a,626b3c40b0c628ea2af49a9c,,,,,,,,,,,,,,,,,,,,,,,a,1,0.8821,"[""0.142"",""0.359"",""0.869"",""0.954""]","[0,1,1,1]",0,33,33,33,1,0,1,,,0,FALSE,,,,,,,,,,,,,,,,,,,,,,,,,,,,,,
,Vania Acosta,001,2022-04-28_21h16.54.612,classification_task,2021.2.3,Win32,60.14675809,5f264332488e13372281c1c8,626b377229c10585ec392f8a,626b3c40b0c628ea2af49a9c,,,,,,,,,,,,,,,,,,,,,,,a,1,1.8266,"[""0.182"",""0.706"",""0.869"",""0.954""]","[1,0,1,1]",0,34,34,34,1,0,1,,,0,FALSE,,,,,,,,,,,,,,,,,,,,,,,,,,,,,,
,Vania Acosta,001,2022-04-28_21h16.54.612,classification_task,2021.2.3,Win32,60.14675809,5f264332488e13372281c1c8,626b377229c10585ec392f8a,626b3c40b0c628ea2af49a9c,,,,,,,,,,,,,,,,,,,,,,,l,1,0.7829,"[""0.064"",""0.270"",""0.463"",""0.822""]","[1,0,1,1]",0,35,35,35,1,1,0,,,0,FALSE,,,,,,,,,,,,,,,,,,,,,,,,,,,,,,
,Vania Acosta,001,2022-04-28_21h16.54.612,classification_task,2021.2.3,Win32,60.14675809,5f264332488e13372281c1c8,626b377229c10585ec392f8a,626b3c40b0c628ea2af49a9c,,,,,,,,,,,,,,,,,,,,,,,l,1,0.943,"[""0.107"",""0.394"",""0.604"",""0.706""]","[1,1,1,0]",0,36,36,36,1,1,1,,,0,FALSE,,,,,,,,,,,,,,,,,,,,,,,,,,,,,,
,Vania Acosta,001,2022-04-28_21h16.54.612,classification_task,2021.2.3,Win32,60.14675809,5f264332488e13372281c1c8,626b377229c10585ec392f8a,626b3c40b0c628ea2af49a9c,,,,,,,,,,,,,,,,,,,,,,,a,0,1.543,"[""0.064"",""0.220"",""0.270"",""0.822""]","[1,1,0,1]",0,37,37,37,1,1,0,,,0,FALSE,,,,,,,,,,,,,,,,,,,,,,,,,,,,,,
,Vania Acosta,001,2022-04-28_21h16.54.612,classification_task,2021.2.3,Win32,60.14675809,5f264332488e13372281c1c8,626b377229c10585ec392f8a,626b3c40b0c628ea2af49a9c,,,,,,,,,,,,,,,,,,,,,,,l,0,1.4666,"[""0.308"",""0.142"",""0.568"",""0.910""]","[1,0,1,1]",0,38,38,38,1,0,0,,,0,FALSE,,,,,,,,,,,,,,,,,,,,,,,,,,,,,,
,Vania Acosta,001,2022-04-28_21h16.54.612,classification_task,2021.2.3,Win32,60.14675809,5f264332488e13372281c1c8,626b377229c10585ec392f8a,626b3c40b0c628ea2af49a9c,,,,,,,,,,,,,,,,,,,,,,,l,1,1.5927,"[""0.107"",""0.255"",""0.604"",""0.766""]","[1,0,1,1]",0,39,39,39,1,1,1,,,0,FALSE,,,,,,,,,,,,,,,,,,,,,,,,,,,,,,
,Vania Acosta,001,2022-04-28_21h16.54.612,classification_task,2021.2.3,Win32,60.14675809,5f264332488e13372281c1c8,626b377229c10585ec392f8a,626b3c40b0c628ea2af49a9c,,,,,,,,,,,,,,,,,,,,,,,l,0,0.9592,"[""0.182"",""0.359"",""0.869"",""0.642""]","[1,1,1,0]",0,40,40,40,1,0,1,,,0,FALSE,,,,,,,,,,,,,,,,,,,,,,,,,,,,,,
,Vania Acosta,001,2022-04-28_21h16.54.612,classification_task,2021.2.3,Win32,60.14675809,5f264332488e13372281c1c8,626b377229c10585ec392f8a,626b3c40b0c628ea2af49a9c,,,,,,,,,,,,,,,,,,,,,,,l,0,2.041,"[""0.308"",""0.534"",""0.568"",""0.255""]","[1,1,1,0]",0,41,41,41,1,0,0,,,0,FALSE,,,,,,,,,,,,,,,,,,,,,,,,,,,,,,
,Vania Acosta,001,2022-04-28_21h16.54.612,classification_task,2021.2.3,Win32,60.14675809,5f264332488e13372281c1c8,626b377229c10585ec392f8a,626b3c40b0c628ea2af49a9c,,,,,,,,,,,,,,,,,,,,,,,a,0,1.0176,"[""0.255"",""0.220"",""0.463"",""0.822""]","[0,1,1,1]",0,42,42,42,1,1,0,,,0,FALSE,,,,,,,,,,,,,,,,,,,,,,,,,,,,,,
,Vania Acosta,001,2022-04-28_21h16.54.612,classification_task,2021.2.3,Win32,60.14675809,5f264332488e13372281c1c8,626b377229c10585ec392f8a,626b3c40b0c628ea2af49a9c,,,,,,,,,,,,,,,,,,,,,,,l,0,3.1712,"[""0.147"",""0.534"",""0.568"",""0.910""]","[0,1,1,1]",0,43,43,43,1,0,0,,,0,FALSE,,,,,,,,,,,,,,,,,,,,,,,,,,,,,,
,Vania Acosta,001,2022-04-28_21h16.54.612,classification_task,2021.2.3,Win32,60.14675809,5f264332488e13372281c1c8,626b377229c10585ec392f8a,626b3c40b0c628ea2af49a9c,,,,,,,,,,,,,,,,,,,,,,,l,1,1.3267,"[""0.064"",""0.220"",""0.463"",""0.722""]","[1,1,1,0]",0,44,44,44,1,1,0,,,0,FALSE,,,,,,,,,,,,,,,,,,,,,,,,,,,,,,
,Vania Acosta,001,2022-04-28_21h16.54.612,classification_task,2021.2.3,Win32,60.14675809,5f264332488e13372281c1c8,626b377229c10585ec392f8a,626b3c40b0c628ea2af49a9c,,,,,,,,,,,,,,,,,,,,,,,l,1,2.1228,"[""0.107"",""0.394"",""0.680"",""0.766""]","[1,1,0,1]",0,45,45,45,1,1,1,,,0,FALSE,,,,,,,,,,,,,,,,,,,,,,,,,,,,,,
,Vania Acosta,001,2022-04-28_21h16.54.612,classification_task,2021.2.3,Win32,60.14675809,5f264332488e13372281c1c8,626b377229c10585ec392f8a,626b3c40b0c628ea2af49a9c,,,,,,,,,,,,,,,,,,,,,,,a,1,0.9052,"[""0.308"",""0.534"",""0.142"",""0.910""]","[1,1,0,1]",0,46,46,46,1,0,0,,,0,FALSE,,,,,,,,,,,,,,,,,,,,,,,,,,,,,,
,Vania Acosta,001,2022-04-28_21h16.54.612,classification_task,2021.2.3,Win32,60.14675809,5f264332488e13372281c1c8,626b377229c10585ec392f8a,626b3c40b0c628ea2af49a9c,,,,,,,,,,,,,,,,,,,,,,,a,1,1.3817,"[""0.182"",""0.359"",""0.722"",""0.954""]","[1,1,0,1]",0,47,47,47,1,0,1,,,0,FALSE,,,,,,,,,,,,,,,,,,,,,,,,,,,,,,
,Vania Acosta,001,2022-04-28_21h16.54.612,classification_task,2021.2.3,Win32,60.14675809,5f264332488e13372281c1c8,626b377229c10585ec392f8a,626b3c40b0c628ea2af49a9c,,,,,,,,,,,,,,,,,,,,,,,l,0,1.2121,"[""0.308"",""0.534"",""0.568"",""0.147""]","[1,1,1,0]",0,48,48,48,1,0,0,,,0,FALSE,,,,,,,,,,,,,,,,,,,,,,,,,,,,,,
,Vania Acosta,001,2022-04-28_21h16.54.612,classification_task,2021.2.3,Win32,60.14675809,5f264332488e13372281c1c8,626b377229c10585ec392f8a,626b3c40b0c628ea2af49a9c,,,,,,,,,,,,,,,,,,,,,,,l,0,0.9243,"[""0.255"",""0.534"",""0.568"",""0.910""]","[0,1,1,1]",0,49,49,49,1,0,0,,,0,FALSE,,,,,,,,,,,,,,,,,,,,,,,,,,,,,,
,Vania Acosta,001,2022-04-28_21h16.54.612,classification_task,2021.2.3,Win32,60.14675809,5f264332488e13372281c1c8,626b377229c10585ec392f8a,626b3c40b0c628ea2af49a9c,,,,,,,,,,,,,,,,,,,,,,,l,1,1.0151,"[""0.064"",""0.220"",""0.259"",""0.822""]","[1,1,0,1]",0,50,50,50,1,1,0,,,0,FALSE,,,,,,,,,,,,,,,,,,,,,,,,,,,,,,
,Vania Acosta,001,2022-04-28_21h16.54.612,classification_task,2021.2.3,Win32,60.14675809,5f264332488e13372281c1c8,626b377229c10585ec392f8a,626b3c40b0c628ea2af49a9c,,,,,,,,,,,,,,,,,,,,,,,l,0,2.2268,"[""0.308"",""0.534"",""0.706"",""0.910""]","[1,1,0,1]",0,51,51,51,1,0,0,,,0,FALSE,,,,,,,,,,,,,,,,,,,,,,,,,,,,,,
,Vania Acosta,001,2022-04-28_21h16.54.612,classification_task,2021.2.3,Win32,60.14675809,5f264332488e13372281c1c8,626b377229c10585ec392f8a,626b3c40b0c628ea2af49a9c,,,,,,,,,,,,,,,,,,,,,,,a,0,1.0327,"[""0.107"",""0.394"",""0.706"",""0.766""]","[1,1,0,1]",0,52,52,52,1,1,1,,,0,FALSE,,,,,,,,,,,,,,,,,,,,,,,,,,,,,,
,Vania Acosta,001,2022-04-28_21h16.54.612,classification_task,2021.2.3,Win32,60.14675809,5f264332488e13372281c1c8,626b377229c10585ec392f8a,626b3c40b0c628ea2af49a9c,,,,,,,,,,,,,,,,,,,,,,,a,1,1.7258,"[""0.182"",""0.142"",""0.869"",""0.954""]","[1,0,1,1]",0,53,53,53,1,0,1,,,0,FALSE,,,,,,,,,,,,,,,,,,,,,,,,,,,,,,
,Vania Acosta,001,2022-04-28_21h16.54.612,classification_task,2021.2.3,Win32,60.14675809,5f264332488e13372281c1c8,626b377229c10585ec392f8a,626b3c40b0c628ea2af49a9c,,,,,,,,,,,,,,,,,,,,,,,l,1,1.4603,"[""0.255"",""0.394"",""0.604"",""0.766""]","[0,1,1,1]",0,54,54,54,1,1,1,,,0,FALSE,,,,,,,,,,,,,,,,,,,,,,,,,,,,,,
,Vania Acosta,001,2022-04-28_21h16.54.612,classification_task,2021.2.3,Win32,60.14675809,5f264332488e13372281c1c8,626b377229c10585ec392f8a,626b3c40b0c628ea2af49a9c,,,,,,,,,,,,,,,,,,,,,,,l,1,2.4082,"[""0.107"",""0.394"",""0.604"",""0.663""]","[1,1,1,0]",0,55,55,55,1,1,1,,,0,FALSE,,,,,,,,,,,,,,,,,,,,,,,,,,,,,,
,Vania Acosta,001,2022-04-28_21h16.54.612,classification_task,2021.2.3,Win32,60.14675809,5f264332488e13372281c1c8,626b377229c10585ec392f8a,626b3c40b0c628ea2af49a9c,,,,,,,,,,,,,,,,,,,,,,,l,1,1.8478,"[""0.064"",""0.220"",""0.463"",""0.680""]","[1,1,1,0]",0,56,56,56,1,1,0,,,0,FALSE,,,,,,,,,,,,,,,,,,,,,,,,,,,,,,
,Vania Acosta,001,2022-04-28_21h16.54.612,classification_task,2021.2.3,Win32,60.14675809,5f264332488e13372281c1c8,626b377229c10585ec392f8a,626b3c40b0c628ea2af49a9c,,,,,,,,,,,,,,,,,,,,,,,a,1,1.1268,"[""0.182"",""0.359"",""0.668"",""0.954""]","[1,1,0,1]",0,57,57,57,1,0,1,,,0,FALSE,,,,,,,,,,,,,,,,,,,,,,,,,,,,,,
,Vania Acosta,001,2022-04-28_21h16.54.612,classification_task,2021.2.3,Win32,60.14675809,5f264332488e13372281c1c8,626b377229c10585ec392f8a,626b3c40b0c628ea2af49a9c,,,,,,,,,,,,,,,,,,,,,,,l,1,2.4932,"[""0.107"",""0.642"",""0.604"",""0.766""]","[1,0,1,1]",0,58,58,58,1,1,1,,,0,FALSE,,,,,,,,,,,,,,,,,,,,,,,,,,,,,,
,Vania Acosta,001,2022-04-28_21h16.54.612,classification_task,2021.2.3,Win32,60.14675809,5f264332488e13372281c1c8,626b377229c10585ec392f8a,626b3c40b0c628ea2af49a9c,,,,,,,,,,,,,,,,,,,,,,,l,1,1.0125,"[""0.255"",""0.220"",""0.463"",""0.822""]","[0,1,1,1]",0,59,59,59,1,1,0,,,0,FALSE,,,,,,,,,,,,,,,,,,,,,,,,,,,,,,
,Vania Acosta,001,2022-04-28_21h16.54.612,classification_task,2021.2.3,Win32,60.14675809,5f264332488e13372281c1c8,626b377229c10585ec392f8a,626b3c40b0c628ea2af49a9c,,,,,,,,,,,,,,,,,,,,,,,a,1,0.7824,"[""0.147"",""0.359"",""0.869"",""0.954""]","[0,1,1,1]",0,60,60,60,1,0,1,,,0,FALSE,,,,,,,,,,,,,,,,,,,,,,,,,,,,,,
,Vania Acosta,001,2022-04-28_21h16.54.612,classification_task,2021.2.3,Win32,60.14675809,5f264332488e13372281c1c8,626b377229c10585ec392f8a,626b3c40b0c628ea2af49a9c,,,,,,,,,,,,,,,,,,,,,,,a,1,0.9932,"[""0.182"",""0.359"",""0.869"",""0.259""]","[1,1,1,0]",0,61,61,61,1,0,1,,,0,FALSE,,,,,,,,,,,,,,,,,,,,,,,,,,,,,,
,Vania Acosta,001,2022-04-28_21h16.54.612,classification_task,2021.2.3,Win32,60.14675809,5f264332488e13372281c1c8,626b377229c10585ec392f8a,626b3c40b0c628ea2af49a9c,,,,,,,,,,,,,,,,,,,,,,,a,0,1.3752,"[""0.064"",""0.680"",""0.463"",""0.822""]","[1,0,1,1]",0,62,62,62,1,1,0,,,0,FALSE,,,,,,,,,,,,,,,,,,,,,,,,,,,,,,
,Vania Acosta,001,2022-04-28_21h16.54.612,classification_task,2021.2.3,Win32,60.14675809,5f264332488e13372281c1c8,626b377229c10585ec392f8a,626b3c40b0c628ea2af49a9c,,,,,,,,,,,,,,,,,,,,,,,l,0,0.7445,"[""0.308"",""0.147"",""0.568"",""0.910""]","[1,0,1,1]",0,63,63,63,1,0,0,,,0,FALSE,,,,,,,,,,,,,,,,,,,,,,,,,,,,,,
,Vania Acosta,001,2022-04-28_21h16.54.612,classification_task,2021.2.3,Win32,60.14675809,5f264332488e13372281c1c8,626b377229c10585ec392f8a,626b3c40b0c628ea2af49a9c,,,,,,,,,,,,,,,,,,,,,,,,,,,,,,,,,,,,,,,0, ,,0,2.726521164,536.4257,0,0,0,0,1,2,1,,,,,,,,,,,,,,,,,
,Vania Acosta,001,2022-04-28_21h16.54.612,classification_task,2021.2.3,Win32,60.14675809,5f264332488e13372281c1c8,626b377229c10585ec392f8a,626b3c40b0c628ea2af49a9c,,,,,,,,,,,,,,,,,,,,,,,,,,,,,,,,,,,,,,,1,  ,,0,8.582451499,540.7029,0,0,0,0,1,2,1,,,,,,,,,,,,,,,,,
,Vania Acosta,001,2022-04-28_21h16.54.612,classification_task,2021.2.3,Win32,60.14675809,5f264332488e13372281c1c8,626b377229c10585ec392f8a,626b3c40b0c628ea2af49a9c,,,,,,,,,,,,,,,,,,,,,,,,,,,,,,,,,,,,,,,2,  ,,0,3.20877425,545.0792,0,0,0,0,1,2,1,,,,,,,,,,,,,,,,,
,Vania Acosta,001,2022-04-28_21h16.54.612,classification_task,2021.2.3,Win32,60.14675809,5f264332488e13372281c1c8,626b377229c10585ec392f8a,626b3c40b0c628ea2af49a9c,,,,,,,,,,,,,,,,,,,,,,,,,,,,,,,,,,,,,,,,,,,,,0,0,0,0,1,,1,,,,,,,,,,,,,,,,,
,Vania Acosta,001,2022-04-28_21h16.54.612,classification_task,2021.2.3,Win32,60.14675809,5f264332488e13372281c1c8,626b377229c10585ec392f8a,626b3c40b0c628ea2af49a9c,,,,,,,,,,,,,,,,,,,,,space,11.0008,a,1,3.7279,"[""0.308"",""0.534"",""0.706"",""0.910""]","[1,1,0,1]",0,0,0,0,1,0,0,,,0,FALSE,,,,,,,,,,,,,,,,,,,,,,,,,,,,,,
,Vania Acosta,001,2022-04-28_21h16.54.612,classification_task,2021.2.3,Win32,60.14675809,5f264332488e13372281c1c8,626b377229c10585ec392f8a,626b3c40b0c628ea2af49a9c,,,,,,,,,,,,,,,,,,,,,,,l,1,2.5117,"[""0.064"",""0.693"",""0.463"",""0.822""]","[1,0,1,1]",0,1,1,1,1,1,0,,,0,FALSE,,,,,,,,,,,,,,,,,,,,,,,,,,,,,,
,Vania Acosta,001,2022-04-28_21h16.54.612,classification_task,2021.2.3,Win32,60.14675809,5f264332488e13372281c1c8,626b377229c10585ec392f8a,626b3c40b0c628ea2af49a9c,,,,,,,,,,,,,,,,,,,,,,,a,0,1.8541,"[""0.107"",""0.394"",""0.604"",""0.146""]","[1,1,1,0]",0,2,2,2,1,1,1,,,0,FALSE,,,,,,,,,,,,,,,,,,,,,,,,,,,,,,
,Vania Acosta,001,2022-04-28_21h16.54.612,classification_task,2021.2.3,Win32,60.14675809,5f264332488e13372281c1c8,626b377229c10585ec392f8a,626b3c40b0c628ea2af49a9c,,,,,,,,,,,,,,,,,,,,,,,l,0,2.5406,"[""0.147"",""0.359"",""0.869"",""0.954""]","[0,1,1,1]",0,3,3,3,1,0,1,,,0,FALSE,,,,,,,,,,,,,,,,,,,,,,,,,,,,,,
,Vania Acosta,001,2022-04-28_21h16.54.612,classification_task,2021.2.3,Win32,60.14675809,5f264332488e13372281c1c8,626b377229c10585ec392f8a,626b3c40b0c628ea2af49a9c,,,,,,,,,,,,,,,,,,,,,,,l,0,1.5465,"[""0.182"",""0.642"",""0.869"",""0.954""]","[1,0,1,1]",0,4,4,4,1,0,1,,,0,FALSE,,,,,,,,,,,,,,,,,,,,,,,,,,,,,,
,Vania Acosta,001,2022-04-28_21h16.54.612,classification_task,2021.2.3,Win32,60.14675809,5f264332488e13372281c1c8,626b377229c10585ec392f8a,626b3c40b0c628ea2af49a9c,,,,,,,,,,,,,,,,,,,,,,,l,1,2.0427,"[""0.107"",""0.394"",""0.706"",""0.766""]","[1,1,0,1]",0,5,5,5,1,1,1,,,0,FALSE,,,,,,,,,,,,,,,,,,,,,,,,,,,,,,
,Vania Acosta,001,2022-04-28_21h16.54.612,classification_task,2021.2.3,Win32,60.14675809,5f264332488e13372281c1c8,626b377229c10585ec392f8a,626b3c40b0c628ea2af49a9c,,,,,,,,,,,,,,,,,,,,,,,l,1,2.1574,"[""0.064"",""0.220"",""0.029"",""0.822""]","[1,1,0,1]",0,6,6,6,1,1,0,,,0,FALSE,,,,,,,,,,,,,,,,,,,,,,,,,,,,,,
,Vania Acosta,001,2022-04-28_21h16.54.612,classification_task,2021.2.3,Win32,60.14675809,5f264332488e13372281c1c8,626b377229c10585ec392f8a,626b3c40b0c628ea2af49a9c,,,,,,,,,,,,,,,,,,,,,,,a,1,0.6568,"[""0.308"",""0.733"",""0.568"",""0.910""]","[1,0,1,1]",0,7,7,7,1,0,0,,,0,FALSE,,,,,,,,,,,,,,,,,,,,,,,,,,,,,,
,Vania Acosta,001,2022-04-28_21h16.54.612,classification_task,2021.2.3,Win32,60.14675809,5f264332488e13372281c1c8,626b377229c10585ec392f8a,626b3c40b0c628ea2af49a9c,,,,,,,,,,,,,,,,,,,,,,,l,0,1.6957,"[""0.182"",""0.359"",""0.869"",""0.706""]","[1,1,1,0]",0,8,8,8,1,0,1,,,0,FALSE,,,,,,,,,,,,,,,,,,,,,,,,,,,,,,
,Vania Acosta,001,2022-04-28_21h16.54.612,classification_task,2021.2.3,Win32,60.14675809,5f264332488e13372281c1c8,626b377229c10585ec392f8a,626b3c40b0c628ea2af49a9c,,,,,,,,,,,,,,,,,,,,,,,a,1,1.6454,"[""0.308"",""0.534"",""0.568"",""0.663""]","[1,1,1,0]",0,9,9,9,1,0,0,,,0,FALSE,,,,,,,,,,,,,,,,,,,,,,,,,,,,,,
,Vania Acosta,001,2022-04-28_21h16.54.612,classification_task,2021.2.3,Win32,60.14675809,5f264332488e13372281c1c8,626b377229c10585ec392f8a,626b3c40b0c628ea2af49a9c,,,,,,,,,,,,,,,,,,,,,,,l,1,0.681,"[""0.064"",""0.220"",""0.463"",""0.147""]","[1,1,1,0]",0,10,10,10,1,1,0,,,0,FALSE,,,,,,,,,,,,,,,,,,,,,,,,,,,,,,
,Vania Acosta,001,2022-04-28_21h16.54.612,classification_task,2021.2.3,Win32,60.14675809,5f264332488e13372281c1c8,626b377229c10585ec392f8a,626b3c40b0c628ea2af49a9c,,,,,,,,,,,,,,,,,,,,,,,a,1,1.2693,"[""0.182"",""0.359"",""0.255"",""0.954""]","[1,1,0,1]",0,11,11,11,1,0,1,,,0,FALSE,,,,,,,,,,,,,,,,,,,,,,,,,,,,,,
,Vania Acosta,001,2022-04-28_21h16.54.612,classification_task,2021.2.3,Win32,60.14675809,5f264332488e13372281c1c8,626b377229c10585ec392f8a,626b3c40b0c628ea2af49a9c,,,,,,,,,,,,,,,,,,,,,,,a,1,0.8613,"[""0.255"",""0.534"",""0.568"",""0.910""]","[0,1,1,1]",0,12,12,12,1,0,0,,,0,FALSE,,,,,,,,,,,,,,,,,,,,,,,,,,,,,,
,Vania Acosta,001,2022-04-28_21h16.54.612,classification_task,2021.2.3,Win32,60.14675809,5f264332488e13372281c1c8,626b377229c10585ec392f8a,626b3c40b0c628ea2af49a9c,,,,,,,,,,,,,,,,,,,,,,,l,1,1.127,"[""0.733"",""0.394"",""0.604"",""0.766""]","[0,1,1,1]",0,13,13,13,1,1,1,,,0,FALSE,,,,,,,,,,,,,,,,,,,,,,,,,,,,,,
,Vania Acosta,001,2022-04-28_21h16.54.612,classification_task,2021.2.3,Win32,60.14675809,5f264332488e13372281c1c8,626b377229c10585ec392f8a,626b3c40b0c628ea2af49a9c,,,,,,,,,,,,,,,,,,,,,,,l,1,0.5626,"[""0.668"",""0.220"",""0.463"",""0.822""]","[0,1,1,1]",0,14,14,14,1,1,0,,,0,FALSE,,,,,,,,,,,,,,,,,,,,,,,,,,,,,,
,Vania Acosta,001,2022-04-28_21h16.54.612,classification_task,2021.2.3,Win32,60.14675809,5f264332488e13372281c1c8,626b377229c10585ec392f8a,626b3c40b0c628ea2af49a9c,,,,,,,,,,,,,,,,,,,,,,,a,0,1.1956,"[""0.107"",""0.146"",""0.604"",""0.766""]","[1,0,1,1]",0,15,15,15,1,1,1,,,0,FALSE,,,,,,,,,,,,,,,,,,,,,,,,,,,,,,
,Vania Acosta,001,2022-04-28_21h16.54.612,classification_task,2021.2.3,Win32,60.14675809,5f264332488e13372281c1c8,626b377229c10585ec392f8a,626b3c40b0c628ea2af49a9c,,,,,,,,,,,,,,,,,,,,,,,l,1,1.1481,"[""0.029"",""0.220"",""0.463"",""0.822""]","[0,1,1,1]",0,16,16,16,1,1,0,,,0,FALSE,,,,,,,,,,,,,,,,,,,,,,,,,,,,,,
,Vania Acosta,001,2022-04-28_21h16.54.612,classification_task,2021.2.3,Win32,60.14675809,5f264332488e13372281c1c8,626b377229c10585ec392f8a,626b3c40b0c628ea2af49a9c,,,,,,,,,,,,,,,,,,,,,,,a,1,1.4322,"[""0.182"",""0.359"",""0.267"",""0.954""]","[1,1,0,1]",0,17,17,17,1,0,1,,,0,FALSE,,,,,,,,,,,,,,,,,,,,,,,,,,,,,,
,Vania Acosta,001,2022-04-28_21h16.54.612,classification_task,2021.2.3,Win32,60.14675809,5f264332488e13372281c1c8,626b377229c10585ec392f8a,626b3c40b0c628ea2af49a9c,,,,,,,,,,,,,,,,,,,,,,,l,1,1.1486,"[""0.259"",""0.394"",""0.604"",""0.766""]","[0,1,1,1]",0,18,18,18,1,1,1,,,0,FALSE,,,,,,,,,,,,,,,,,,,,,,,,,,,,,,
,Vania Acosta,001,2022-04-28_21h16.54.612,classification_task,2021.2.3,Win32,60.14675809,5f264332488e13372281c1c8,626b377229c10585ec392f8a,626b3c40b0c628ea2af49a9c,,,,,,,,,,,,,,,,,,,,,,,l,1,1.0826,"[""0.064"",""0.220"",""0.255"",""0.822""]","[1,1,0,1]",0,19,19,19,1,1,0,,,0,FALSE,,,,,,,,,,,,,,,,,,,,,,,,,,,,,,
,Vania Acosta,001,2022-04-28_21h16.54.612,classification_task,2021.2.3,Win32,60.14675809,5f264332488e13372281c1c8,626b377229c10585ec392f8a,626b3c40b0c628ea2af49a9c,,,,,,,,,,,,,,,,,,,,,,,l,0,1.88,"[""0.182"",""0.680"",""0.869"",""0.954""]","[1,0,1,1]",0,20,20,20,1,0,1,,,0,FALSE,,,,,,,,,,,,,,,,,,,,,,,,,,,,,,
,Vania Acosta,001,2022-04-28_21h16.54.612,classification_task,2021.2.3,Win32,60.14675809,5f264332488e13372281c1c8,626b377229c10585ec392f8a,626b3c40b0c628ea2af49a9c,,,,,,,,,,,,,,,,,,,,,,,l,1,1.3306,"[""0.107"",""0.394"",""0.604"",""0.029""]","[1,1,1,0]",0,21,21,21,1,1,1,,,0,FALSE,,,,,,,,,,,,,,,,,,,,,,,,,,,,,,
,Vania Acosta,001,2022-04-28_21h16.54.612,classification_task,2021.2.3,Win32,60.14675809,5f264332488e13372281c1c8,626b377229c10585ec392f8a,626b3c40b0c628ea2af49a9c,,,,,,,,,,,,,,,,,,,,,,,a,1,1.3321,"[""0.308"",""0.255"",""0.568"",""0.910""]","[1,0,1,1]",0,22,22,22,1,0,0,,,0,FALSE,,,,,,,,,,,,,,,,,,,,,,,,,,,,,,
,Vania Acosta,001,2022-04-28_21h16.54.612,classification_task,2021.2.3,Win32,60.14675809,5f264332488e13372281c1c8,626b377229c10585ec392f8a,626b3c40b0c628ea2af49a9c,,,,,,,,,,,,,,,,,,,,,,,l,1,0.7057,"[""0.064"",""0.255"",""0.463"",""0.822""]","[1,0,1,1]",0,23,23,23,1,1,0,,,0,FALSE,,,,,,,,,,,,,,,,,,,,,,,,,,,,,,
,Vania Acosta,001,2022-04-28_21h16.54.612,classification_task,2021.2.3,Win32,60.14675809,5f264332488e13372281c1c8,626b377229c10585ec392f8a,626b3c40b0c628ea2af49a9c,,,,,,,,,,,,,,,,,,,,,,,a,1,0.7128,"[""0.308"",""0.534"",""0.568"",""0.706""]","[1,1,1,0]",0,24,24,24,1,0,0,,,0,FALSE,,,,,,,,,,,,,,,,,,,,,,,,,,,,,,
,Vania Acosta,001,2022-04-28_21h16.54.612,classification_task,2021.2.3,Win32,60.14675809,5f264332488e13372281c1c8,626b377229c10585ec392f8a,626b3c40b0c628ea2af49a9c,,,,,,,,,,,,,,,,,,,,,,,a,0,1.1628,"[""0.107"",""0.394"",""0.267"",""0.766""]","[1,1,0,1]",0,25,25,25,1,1,1,,,0,FALSE,,,,,,,,,,,,,,,,,,,,,,,,,,,,,,
,Vania Acosta,001,2022-04-28_21h16.54.612,classification_task,2021.2.3,Win32,60.14675809,5f264332488e13372281c1c8,626b377229c10585ec392f8a,626b3c40b0c628ea2af49a9c,,,,,,,,,,,,,,,,,,,,,,,a,1,0.8557,"[""0.182"",""0.359"",""0.869"",""0.680""]","[1,1,1,0]",0,26,26,26,1,0,1,,,0,FALSE,,,,,,,,,,,,,,,,,,,,,,,,,,,,,,
,Vania Acosta,001,2022-04-28_21h16.54.612,classification_task,2021.2.3,Win32,60.14675809,5f264332488e13372281c1c8,626b377229c10585ec392f8a,626b3c40b0c628ea2af49a9c,,,,,,,,,,,,,,,,,,,,,,,a,1,1.4462,"[""0.706"",""0.534"",""0.568"",""0.910""]","[0,1,1,1]",0,27,27,27,1,0,0,,,0,FALSE,,,,,,,,,,,,,,,,,,,,,,,,,,,,,,
,Vania Acosta,001,2022-04-28_21h16.54.612,classification_task,2021.2.3,Win32,60.14675809,5f264332488e13372281c1c8,626b377229c10585ec392f8a,626b3c40b0c628ea2af49a9c,,,,,,,,,,,,,,,,,,,,,,,l,1,2.3468,"[""0.107"",""0.255"",""0.604"",""0.766""]","[1,0,1,1]",0,28,28,28,1,1,1,,,0,FALSE,,,,,,,,,,,,,,,,,,,,,,,,,,,,,,
,Vania Acosta,001,2022-04-28_21h16.54.612,classification_task,2021.2.3,Win32,60.14675809,5f264332488e13372281c1c8,626b377229c10585ec392f8a,626b3c40b0c628ea2af49a9c,,,,,,,,,,,,,,,,,,,,,,,a,1,0.5805,"[""0.308"",""0.534"",""0.706"",""0.910""]","[1,1,0,1]",0,29,29,29,1,0,0,,,0,FALSE,,,,,,,,,,,,,,,,,,,,,,,,,,,,,,
,Vania Acosta,001,2022-04-28_21h16.54.612,classification_task,2021.2.3,Win32,60.14675809,5f264332488e13372281c1c8,626b377229c10585ec392f8a,626b3c40b0c628ea2af49a9c,,,,,,,,,,,,,,,,,,,,,,,l,1,0.6431,"[""0.064"",""0.220"",""0.463"",""0.693""]","[1,1,1,0]",0,30,30,30,1,1,0,,,0,FALSE,,,,,,,,,,,,,,,,,,,,,,,,,,,,,,
,Vania Acosta,001,2022-04-28_21h16.54.612,classification_task,2021.2.3,Win32,60.14675809,5f264332488e13372281c1c8,626b377229c10585ec392f8a,626b3c40b0c628ea2af49a9c,,,,,,,,,,,,,,,,,,,,,,,l,0,1.5536,"[""0.663"",""0.359"",""0.869"",""0.954""]","[0,1,1,1]",0,31,31,31,1,0,1,,,0,FALSE,,,,,,,,,,,,,,,,,,,,,,,,,,,,,,
,Vania Acosta,001,2022-04-28_21h16.54.612,classification_task,2021.2.3,Win32,60.14675809,5f264332488e13372281c1c8,626b377229c10585ec392f8a,626b3c40b0c628ea2af49a9c,,,,,,,,,,,,,,,,,,,,,,,l,1,1.3778,"[""0.107"",""0.680"",""0.604"",""0.766""]","[1,0,1,1]",0,32,32,32,1,1,1,,,0,FALSE,,,,,,,,,,,,,,,,,,,,,,,,,,,,,,
,Vania Acosta,001,2022-04-28_21h16.54.612,classification_task,2021.2.3,Win32,60.14675809,5f264332488e13372281c1c8,626b377229c10585ec392f8a,626b3c40b0c628ea2af49a9c,,,,,,,,,,,,,,,,,,,,,,,l,1,0.7459,"[""0.642"",""0.220"",""0.463"",""0.822""]","[0,1,1,1]",0,33,33,33,1,1,0,,,0,FALSE,,,,,,,,,,,,,,,,,,,,,,,,,,,,,,
,Vania Acosta,001,2022-04-28_21h16.54.612,classification_task,2021.2.3,Win32,60.14675809,5f264332488e13372281c1c8,626b377229c10585ec392f8a,626b3c40b0c628ea2af49a9c,,,,,,,,,,,,,,,,,,,,,,,a,0,1.0973,"[""0.668"",""0.394"",""0.604"",""0.766""]","[0,1,1,1]",0,34,34,34,1,1,1,,,0,FALSE,,,,,,,,,,,,,,,,,,,,,,,,,,,,,,
,Vania Acosta,001,2022-04-28_21h16.54.612,classification_task,2021.2.3,Win32,60.14675809,5f264332488e13372281c1c8,626b377229c10585ec392f8a,626b3c40b0c628ea2af49a9c,,,,,,,,,,,,,,,,,,,,,,,l,1,0.9769,"[""0.064"",""0.220"",""0.463"",""0.259""]","[1,1,1,0]",0,35,35,35,1,1,0,,,0,FALSE,,,,,,,,,,,,,,,,,,,,,,,,,,,,,,
,Vania Acosta,001,2022-04-28_21h16.54.612,classification_task,2021.2.3,Win32,60.14675809,5f264332488e13372281c1c8,626b377229c10585ec392f8a,626b3c40b0c628ea2af49a9c,,,,,,,,,,,,,,,,,,,,,,,l,1,1.1459,"[""0.107"",""0.394"",""0.722"",""0.766""]","[1,1,0,1]",0,36,36,36,1,1,1,,,0,FALSE,,,,,,,,,,,,,,,,,,,,,,,,,,,,,,
,Vania Acosta,001,2022-04-28_21h16.54.612,classification_task,2021.2.3,Win32,60.14675809,5f264332488e13372281c1c8,626b377229c10585ec392f8a,626b3c40b0c628ea2af49a9c,,,,,,,,,,,,,,,,,,,,,,,a,1,0.6981,"[""0.147"",""0.534"",""0.568"",""0.910""]","[0,1,1,1]",0,37,37,37,1,0,0,,,0,FALSE,,,,,,,,,,,,,,,,,,,,,,,,,,,,,,
,Vania Acosta,001,2022-04-28_21h16.54.612,classification_task,2021.2.3,Win32,60.14675809,5f264332488e13372281c1c8,626b377229c10585ec392f8a,626b3c40b0c628ea2af49a9c,,,,,,,,,,,,,,,,,,,,,,,l,1,0.7412,"[""0.064"",""0.220"",""0.142"",""0.822""]","[1,1,0,1]",0,38,38,38,1,1,0,,,0,FALSE,,,,,,,,,,,,,,,,,,,,,,,,,,,,,,
,Vania Acosta,001,2022-04-28_21h16.54.612,classification_task,2021.2.3,Win32,60.14675809,5f264332488e13372281c1c8,626b377229c10585ec392f8a,626b3c40b0c628ea2af49a9c,,,,,,,,,,,,,,,,,,,,,,,l,0,1.8324,"[""0.182"",""0.359"",""0.270"",""0.954""]","[1,1,0,1]",0,39,39,39,1,0,1,,,0,FALSE,,,,,,,,,,,,,,,,,,,,,,,,,,,,,,
,Vania Acosta,001,2022-04-28_21h16.54.612,classification_task,2021.2.3,Win32,60.14675809,5f264332488e13372281c1c8,626b377229c10585ec392f8a,626b3c40b0c628ea2af49a9c,,,,,,,,,,,,,,,,,,,,,,,l,0,0.664,"[""0.308"",""0.534"",""0.680"",""0.910""]","[1,1,0,1]",0,40,40,40,1,0,0,,,0,FALSE,,,,,,,,,,,,,,,,,,,,,,,,,,,,,,
,Vania Acosta,001,2022-04-28_21h16.54.612,classification_task,2021.2.3,Win32,60.14675809,5f264332488e13372281c1c8,626b377229c10585ec392f8a,626b3c40b0c628ea2af49a9c,,,,,,,,,,,,,,,,,,,,,,,a,1,2.0448,"[""0.182"",""0.680"",""0.869"",""0.954""]","[1,0,1,1]",0,41,41,41,1,0,1,,,0,FALSE,,,,,,,,,,,,,,,,,,,,,,,,,,,,,,
,Vania Acosta,001,2022-04-28_21h16.54.612,classification_task,2021.2.3,Win32,60.14675809,5f264332488e13372281c1c8,626b377229c10585ec392f8a,626b3c40b0c628ea2af49a9c,,,,,,,,,,,,,,,,,,,,,,,l,1,0.6674,"[""0.064"",""0.733"",""0.463"",""0.822""]","[1,0,1,1]",0,42,42,42,1,1,0,,,0,FALSE,,,,,,,,,,,,,,,,,,,,,,,,,,,,,,
,Vania Acosta,001,2022-04-28_21h16.54.612,classification_task,2021.2.3,Win32,60.14675809,5f264332488e13372281c1c8,626b377229c10585ec392f8a,626b3c40b0c628ea2af49a9c,,,,,,,,,,,,,,,,,,,,,,,l,0,1.826,"[""0.733"",""0.359"",""0.869"",""0.954""]","[0,1,1,1]",0,43,43,43,1,0,1,,,0,FALSE,,,,,,,,,,,,,,,,,,,,,,,,,,,,,,
,Vania Acosta,001,2022-04-28_21h16.54.612,classification_task,2021.2.3,Win32,60.14675809,5f264332488e13372281c1c8,626b377229c10585ec392f8a,626b3c40b0c628ea2af49a9c,,,,,,,,,,,,,,,,,,,,,,,a,0,1.5641,"[""0.107"",""0.394"",""0.604"",""0.680""]","[1,1,1,0]",0,44,44,44,1,1,1,,,0,FALSE,,,,,,,,,,,,,,,,,,,,,,,,,,,,,,
,Vania Acosta,001,2022-04-28_21h16.54.612,classification_task,2021.2.3,Win32,60.14675809,5f264332488e13372281c1c8,626b377229c10585ec392f8a,626b3c40b0c628ea2af49a9c,,,,,,,,,,,,,,,,,,,,,,,a,1,1.1697,"[""0.308"",""0.534"",""0.568"",""0.255""]","[1,1,1,0]",0,45,45,45,1,0,0,,,0,FALSE,,,,,,,,,,,,,,,,,,,,,,,,,,,,,,
,Vania Acosta,001,2022-04-28_21h16.54.612,classification_task,2021.2.3,Win32,60.14675809,5f264332488e13372281c1c8,626b377229c10585ec392f8a,626b3c40b0c628ea2af49a9c,,,,,,,,,,,,,,,,,,,,,,,a,1,0.8145,"[""0.308"",""0.267"",""0.568"",""0.910""]","[1,0,1,1]",0,46,46,46,1,0,0,,,0,FALSE,,,,,,,,,,,,,,,,,,,,,,,,,,,,,,
,Vania Acosta,001,2022-04-28_21h16.54.612,classification_task,2021.2.3,Win32,60.14675809,5f264332488e13372281c1c8,626b377229c10585ec392f8a,626b3c40b0c628ea2af49a9c,,,,,,,,,,,,,,,,,,,,,,,l,0,1.3709,"[""0.182"",""0.359"",""0.869"",""0.267""]","[1,1,1,0]",0,47,47,47,1,0,1,,,0,FALSE,,,,,,,,,,,,,,,,,,,,,,,,,,,,,,
,Vania Acosta,001,2022-04-28_21h16.54.612,classification_task,2021.2.3,Win32,60.14675809,5f264332488e13372281c1c8,626b377229c10585ec392f8a,626b3c40b0c628ea2af49a9c,,,,,,,,,,,,,,,,,,,,,,,a,1,0.9816,"[""0.308"",""0.722"",""0.568"",""0.910""]","[1,0,1,1]",0,48,48,48,1,0,0,,,0,FALSE,,,,,,,,,,,,,,,,,,,,,,,,,,,,,,
,Vania Acosta,001,2022-04-28_21h16.54.612,classification_task,2021.2.3,Win32,60.14675809,5f264332488e13372281c1c8,626b377229c10585ec392f8a,626b3c40b0c628ea2af49a9c,,,,,,,,,,,,,,,,,,,,,,,l,1,0.509,"[""0.642"",""0.220"",""0.463"",""0.822""]","[0,1,1,1]",0,49,49,49,1,1,0,,,0,FALSE,,,,,,,,,,,,,,,,,,,,,,,,,,,,,,
,Vania Acosta,001,2022-04-28_21h16.54.612,classification_task,2021.2.3,Win32,60.14675809,5f264332488e13372281c1c8,626b377229c10585ec392f8a,626b3c40b0c628ea2af49a9c,,,,,,,,,,,,,,,,,,,,,,,l,0,1.144,"[""0.267"",""0.359"",""0.869"",""0.954""]","[0,1,1,1]",0,50,50,50,1,0,1,,,0,FALSE,,,,,,,,,,,,,,,,,,,,,,,,,,,,,,
,Vania Acosta,001,2022-04-28_21h16.54.612,classification_task,2021.2.3,Win32,60.14675809,5f264332488e13372281c1c8,626b377229c10585ec392f8a,626b3c40b0c628ea2af49a9c,,,,,,,,,,,,,,,,,,,,,,,l,1,0.9661,"[""0.107"",""0.394"",""0.142"",""0.766""]","[1,1,0,1]",0,51,51,51,1,1,1,,,0,FALSE,,,,,,,,,,,,,,,,,,,,,,,,,,,,,,
,Vania Acosta,001,2022-04-28_21h16.54.612,classification_task,2021.2.3,Win32,60.14675809,5f264332488e13372281c1c8,626b377229c10585ec392f8a,626b3c40b0c628ea2af49a9c,,,,,,,,,,,,,,,,,,,,,,,l,0,0.6839,"[""0.308"",""0.534"",""0.146"",""0.910""]","[1,1,0,1]",0,52,52,52,1,0,0,,,0,FALSE,,,,,,,,,,,,,,,,,,,,,,,,,,,,,,
,Vania Acosta,001,2022-04-28_21h16.54.612,classification_task,2021.2.3,Win32,60.14675809,5f264332488e13372281c1c8,626b377229c10585ec392f8a,626b3c40b0c628ea2af49a9c,,,,,,,,,,,,,,,,,,,,,,,a,0,1.029,"[""0.663"",""0.394"",""0.604"",""0.766""]","[0,1,1,1]",0,53,53,53,1,1,1,,,0,FALSE,,,,,,,,,,,,,,,,,,,,,,,,,,,,,,
,Vania Acosta,001,2022-04-28_21h16.54.612,classification_task,2021.2.3,Win32,60.14675809,5f264332488e13372281c1c8,626b377229c10585ec392f8a,626b3c40b0c628ea2af49a9c,,,,,,,,,,,,,,,,,,,,,,,a,1,1.0618,"[""0.182"",""0.359"",""0.869"",""0.693""]","[1,1,1,0]",0,54,54,54,1,0,1,,,0,FALSE,,,,,,,,,,,,,,,,,,,,,,,,,,,,,,
,Vania Acosta,001,2022-04-28_21h16.54.612,classification_task,2021.2.3,Win32,60.14675809,5f264332488e13372281c1c8,626b377229c10585ec392f8a,626b3c40b0c628ea2af49a9c,,,,,,,,,,,,,,,,,,,,,,,l,1,1.3758,"[""0.064"",""0.142"",""0.463"",""0.822""]","[1,0,1,1]",0,55,55,55,1,1,0,,,0,FALSE,,,,,,,,,,,,,,,,,,,,,,,,,,,,,,
,Vania Acosta,001,2022-04-28_21h16.54.612,classification_task,2021.2.3,Win32,60.14675809,5f264332488e13372281c1c8,626b377229c10585ec392f8a,626b3c40b0c628ea2af49a9c,,,,,,,,,,,,,,,,,,,,,,,a,1,0.7299,"[""0.308"",""0.534"",""0.568"",""0.270""]","[1,1,1,0]",0,56,56,56,1,0,0,,,0,FALSE,,,,,,,,,,,,,,,,,,,,,,,,,,,,,,
,Vania Acosta,001,2022-04-28_21h16.54.612,classification_task,2021.2.3,Win32,60.14675809,5f264332488e13372281c1c8,626b377229c10585ec392f8a,626b3c40b0c628ea2af49a9c,,,,,,,,,,,,,,,,,,,,,,,l,1,1.4103,"[""0.107"",""0.394"",""0.604"",""0.642""]","[1,1,1,0]",0,57,57,57,1,1,1,,,0,FALSE,,,,,,,,,,,,,,,,,,,,,,,,,,,,,,
,Vania Acosta,001,2022-04-28_21h16.54.612,classification_task,2021.2.3,Win32,60.14675809,5f264332488e13372281c1c8,626b377229c10585ec392f8a,626b3c40b0c628ea2af49a9c,,,,,,,,,,,,,,,,,,,,,,,l,0,1.1308,"[""0.182"",""0.359"",""0.267"",""0.954""]","[1,1,0,1]",0,58,58,58,1,0,1,,,0,FALSE,,,,,,,,,,,,,,,,,,,,,,,,,,,,,,
,Vania Acosta,001,2022-04-28_21h16.54.612,classification_task,2021.2.3,Win32,60.14675809,5f264332488e13372281c1c8,626b377229c10585ec392f8a,626b3c40b0c628ea2af49a9c,,,,,,,,,,,,,,,,,,,,,,,a,1,2.0586,"[""0.663"",""0.534"",""0.568"",""0.910""]","[0,1,1,1]",0,59,59,59,1,0,0,,,0,FALSE,,,,,,,,,,,,,,,,,,,,,,,,,,,,,,
,Vania Acosta,001,2022-04-28_21h16.54.612,classification_task,2021.2.3,Win32,60.14675809,5f264332488e13372281c1c8,626b377229c10585ec392f8a,626b3c40b0c628ea2af49a9c,,,,,,,,,,,,,,,,,,,,,,,a,1,1.0046,"[""0.182"",""0.270"",""0.869"",""0.954""]","[1,0,1,1]",0,60,60,60,1,0,1,,,0,FALSE,,,,,,,,,,,,,,,,,,,,,,,,,,,,,,
,Vania Acosta,001,2022-04-28_21h16.54.612,classification_task,2021.2.3,Win32,60.14675809,5f264332488e13372281c1c8,626b377229c10585ec392f8a,626b3c40b0c628ea2af49a9c,,,,,,,,,,,,,,,,,,,,,,,l,1,0.9319,"[""0.064"",""0.220"",""0.680"",""0.822""]","[1,1,0,1]",0,61,61,61,1,1,0,,,0,FALSE,,,,,,,,,,,,,,,,,,,,,,,,,,,,,,
,Vania Acosta,001,2022-04-28_21h16.54.612,classification_task,2021.2.3,Win32,60.14675809,5f264332488e13372281c1c8,626b377229c10585ec392f8a,626b3c40b0c628ea2af49a9c,,,,,,,,,,,,,,,,,,,,,,,a,0,2.1618,"[""0.107"",""0.255"",""0.604"",""0.766""]","[1,0,1,1]",0,62,62,62,1,1,1,,,0,FALSE,,,,,,,,,,,,,,,,,,,,,,,,,,,,,,
,Vania Acosta,001,2022-04-28_21h16.54.612,classification_task,2021.2.3,Win32,60.14675809,5f264332488e13372281c1c8,626b377229c10585ec392f8a,626b3c40b0c628ea2af49a9c,,,,,,,,,,,,,,,,,,,,,,,l,1,1.482,"[""0.064"",""0.220"",""0.463"",""0.146""]","[1,1,1,0]",0,63,63,63,1,1,0,,,0,FALSE,,,,,,,,,,,,,,,,,,,,,,,,,,,,,,
,Vania Acosta,001,2022-04-28_21h16.54.612,classification_task,2021.2.3,Win32,60.14675809,5f264332488e13372281c1c8,626b377229c10585ec392f8a,626b3c40b0c628ea2af49a9c,,,,,,,,,,,,,,,,,,,,,,,,,,,,,,,,,,,,,,,0, ,,0,1.830908289,166.1363,0,1,1,1,1,2,2,,,,,,,,,,,,,,,,,
,Vania Acosta,001,2022-04-28_21h16.54.612,classification_task,2021.2.3,Win32,60.14675809,5f264332488e13372281c1c8,626b377229c10585ec392f8a,626b3c40b0c628ea2af49a9c,,,,,,,,,,,,,,,,,,,,,,,,,,,,,,,,,,,,,,,1,  ,,0,9.443617725,169.2162,0,1,1,1,1,2,2,,,,,,,,,,,,,,,,,
,Vania Acosta,001,2022-04-28_21h16.54.612,classification_task,2021.2.3,Win32,60.14675809,5f264332488e13372281c1c8,626b377229c10585ec392f8a,626b3c40b0c628ea2af49a9c,,,,,,,,,,,,,,,,,,,,,,,,,,,,,,,,,,,,,,,2,  ,,0,7.583498677,175.5795,0,1,1,1,1,2,2,,,,,,,,,,,,,,,,,
,Vania Acosta,001,2022-04-28_21h16.54.612,classification_task,2021.2.3,Win32,60.14675809,5f264332488e13372281c1c8,626b377229c10585ec392f8a,626b3c40b0c628ea2af49a9c,,,,,,,,,,,,,,,,,,,,,,,,,,,,,,,,,,,,,,,,,,,,,0,1,1,1,1,,2,,,,,,,,,,,,,,,,,
,Vania Acosta,001,2022-04-28_21h16.54.612,classification_task,2021.2.3,Win32,60.14675809,5f264332488e13372281c1c8,626b377229c10585ec392f8a,626b3c40b0c628ea2af49a9c,,,,,,,,,,,,,,,,,,,,,space,10.2618,a,0,1.8974,"[""0.107"",""0.394"",""0.604"",""0.255""]","[1,1,1,0]",0,0,0,0,1,1,1,,,0,FALSE,,,,,,,,,,,,,,,,,,,,,,,,,,,,,,
,Vania Acosta,001,2022-04-28_21h16.54.612,classification_task,2021.2.3,Win32,60.14675809,5f264332488e13372281c1c8,626b377229c10585ec392f8a,626b3c40b0c628ea2af49a9c,,,,,,,,,,,,,,,,,,,,,,,a,1,4.4254,"[""0.182"",""0.359"",""0.869"",""0.693""]","[1,1,1,0]",0,1,1,1,1,0,1,,,0,FALSE,,,,,,,,,,,,,,,,,,,,,,,,,,,,,,
,Vania Acosta,001,2022-04-28_21h16.54.612,classification_task,2021.2.3,Win32,60.14675809,5f264332488e13372281c1c8,626b377229c10585ec392f8a,626b3c40b0c628ea2af49a9c,,,,,,,,,,,,,,,,,,,,,,,l,0,1.265,"[""0.668"",""0.534"",""0.568"",""0.910""]","[0,1,1,1]",0,2,2,2,1,0,0,,,0,FALSE,,,,,,,,,,,,,,,,,,,,,,,,,,,,,,
,Vania Acosta,001,2022-04-28_21h16.54.612,classification_task,2021.2.3,Win32,60.14675809,5f264332488e13372281c1c8,626b377229c10585ec392f8a,626b3c40b0c628ea2af49a9c,,,,,,,,,,,,,,,,,,,,,,,l,1,2.5544,"[""0.107"",""0.668"",""0.604"",""0.766""]","[1,0,1,1]",0,3,3,3,1,1,1,,,0,FALSE,,,,,,,,,,,,,,,,,,,,,,,,,,,,,,
,Vania Acosta,001,2022-04-28_21h16.54.612,classification_task,2021.2.3,Win32,60.14675809,5f264332488e13372281c1c8,626b377229c10585ec392f8a,626b3c40b0c628ea2af49a9c,,,,,,,,,,,,,,,,,,,,,,,a,0,1.0145,"[""0.064"",""0.147"",""0.463"",""0.822""]","[1,0,1,1]",0,4,4,4,1,1,0,,,0,FALSE,,,,,,,,,,,,,,,,,,,,,,,,,,,,,,
,Vania Acosta,001,2022-04-28_21h16.54.612,classification_task,2021.2.3,Win32,60.14675809,5f264332488e13372281c1c8,626b377229c10585ec392f8a,626b3c40b0c628ea2af49a9c,,,,,,,,,,,,,,,,,,,,,,,a,0,1.0628,"[""0.064"",""0.220"",""0.463"",""0.693""]","[1,1,1,0]",0,5,5,5,1,1,0,,,0,FALSE,,,,,,,,,,,,,,,,,,,,,,,,,,,,,,
,Vania Acosta,001,2022-04-28_21h16.54.612,classification_task,2021.2.3,Win32,60.14675809,5f264332488e13372281c1c8,626b377229c10585ec392f8a,626b3c40b0c628ea2af49a9c,,,,,,,,,,,,,,,,,,,,,,,a,1,1.3743,"[""0.182"",""0.733"",""0.869"",""0.954""]","[1,0,1,1]",0,6,6,6,1,0,1,,,0,FALSE,,,,,,,,,,,,,,,,,,,,,,,,,,,,,,
,Vania Acosta,001,2022-04-28_21h16.54.612,classification_task,2021.2.3,Win32,60.14675809,5f264332488e13372281c1c8,626b377229c10585ec392f8a,626b3c40b0c628ea2af49a9c,,,,,,,,,,,,,,,,,,,,,,,l,0,0.673,"[""0.308"",""0.722"",""0.568"",""0.910""]","[1,0,1,1]",0,7,7,7,1,0,0,,,0,FALSE,,,,,,,,,,,,,,,,,,,,,,,,,,,,,,
,Vania Acosta,001,2022-04-28_21h16.54.612,classification_task,2021.2.3,Win32,60.14675809,5f264332488e13372281c1c8,626b377229c10585ec392f8a,626b3c40b0c628ea2af49a9c,,,,,,,,,,,,,,,,,,,,,,,l,0,1.593,"[""0.308"",""0.534"",""0.642"",""0.910""]","[1,1,0,1]",0,8,8,8,1,0,0,,,0,FALSE,,,,,,,,,,,,,,,,,,,,,,,,,,,,,,
,Vania Acosta,001,2022-04-28_21h16.54.612,classification_task,2021.2.3,Win32,60.14675809,5f264332488e13372281c1c8,626b377229c10585ec392f8a,626b3c40b0c628ea2af49a9c,,,,,,,,,,,,,,,,,,,,,,,a,0,0.9234,"[""0.722"",""0.394"",""0.604"",""0.766""]","[0,1,1,1]",0,9,9,9,1,1,1,,,0,FALSE,,,,,,,,,,,,,,,,,,,,,,,,,,,,,,
,Vania Acosta,001,2022-04-28_21h16.54.612,classification_task,2021.2.3,Win32,60.14675809,5f264332488e13372281c1c8,626b377229c10585ec392f8a,626b3c40b0c628ea2af49a9c,,,,,,,,,,,,,,,,,,,,,,,l,0,1.5766,"[""0.722"",""0.359"",""0.869"",""0.954""]","[0,1,1,1]",0,10,10,10,1,0,1,,,0,FALSE,,,,,,,,,,,,,,,,,,,,,,,,,,,,,,
,Vania Acosta,001,2022-04-28_21h16.54.612,classification_task,2021.2.3,Win32,60.14675809,5f264332488e13372281c1c8,626b377229c10585ec392f8a,626b3c40b0c628ea2af49a9c,,,,,,,,,,,,,,,,,,,,,,,l,1,1.1909,"[""0.733"",""0.220"",""0.463"",""0.822""]","[0,1,1,1]",0,11,11,11,1,1,0,,,0,FALSE,,,,,,,,,,,,,,,,,,,,,,,,,,,,,,
,Vania Acosta,001,2022-04-28_21h16.54.612,classification_task,2021.2.3,Win32,60.14675809,5f264332488e13372281c1c8,626b377229c10585ec392f8a,626b3c40b0c628ea2af49a9c,,,,,,,,,,,,,,,,,,,,,,,l,0,1.4913,"[""0.182"",""0.359"",""0.255"",""0.954""]","[1,1,0,1]",0,12,12,12,1,0,1,,,0,FALSE,,,,,,,,,,,,,,,,,,,,,,,,,,,,,,
,Vania Acosta,001,2022-04-28_21h16.54.612,classification_task,2021.2.3,Win32,60.14675809,5f264332488e13372281c1c8,626b377229c10585ec392f8a,626b3c40b0c628ea2af49a9c,,,,,,,,,,,,,,,,,,,,,,,l,0,0.9455,"[""0.308"",""0.534"",""0.568"",""0.663""]","[1,1,1,0]",0,13,13,13,1,0,0,,,0,FALSE,,,,,,,,,,,,,,,,,,,,,,,,,,,,,,
,Vania Acosta,001,2022-04-28_21h16.54.612,classification_task,2021.2.3,Win32,60.14675809,5f264332488e13372281c1c8,626b377229c10585ec392f8a,626b3c40b0c628ea2af49a9c,,,,,,,,,,,,,,,,,,,,,,,a,0,1.1282,"[""0.064"",""0.220"",""0.255"",""0.822""]","[1,1,0,1]",0,14,14,14,1,1,0,,,0,FALSE,,,,,,,,,,,,,,,,,,,,,,,,,,,,,,
,Vania Acosta,001,2022-04-28_21h16.54.612,classification_task,2021.2.3,Win32,60.14675809,5f264332488e13372281c1c8,626b377229c10585ec392f8a,626b3c40b0c628ea2af49a9c,,,,,,,,,,,,,,,,,,,,,,,a,0,1.2955,"[""0.107"",""0.394"",""0.722"",""0.766""]","[1,1,0,1]",0,15,15,15,1,1,1,,,0,FALSE,,,,,,,,,,,,,,,,,,,,,,,,,,,,,,
,Vania Acosta,001,2022-04-28_21h16.54.612,classification_task,2021.2.3,Win32,60.14675809,5f264332488e13372281c1c8,626b377229c10585ec392f8a,626b3c40b0c628ea2af49a9c,,,,,,,,,,,,,,,,,,,,,,,l,1,1.7096,"[""0.107"",""0.722"",""0.604"",""0.766""]","[1,0,1,1]",0,16,16,16,1,1,1,,,0,FALSE,,,,,,,,,,,,,,,,,,,,,,,,,,,,,,
,Vania Acosta,001,2022-04-28_21h16.54.612,classification_task,2021.2.3,Win32,60.14675809,5f264332488e13372281c1c8,626b377229c10585ec392f8a,626b3c40b0c628ea2af49a9c,,,,,,,,,,,,,,,,,,,,,,,a,0,0.9777,"[""0.107"",""0.394"",""0.147"",""0.766""]","[1,1,0,1]",0,17,17,17,1,1,1,,,0,FALSE,,,,,,,,,,,,,,,,,,,,,,,,,,,,,,
,Vania Acosta,001,2022-04-28_21h16.54.612,classification_task,2021.2.3,Win32,60.14675809,5f264332488e13372281c1c8,626b377229c10585ec392f8a,626b3c40b0c628ea2af49a9c,,,,,,,,,,,,,,,,,,,,,,,l,1,0.8763,"[""0.267"",""0.220"",""0.463"",""0.822""]","[0,1,1,1]",0,18,18,18,1,1,0,,,0,FALSE,,,,,,,,,,,,,,,,,,,,,,,,,,,,,,
,Vania Acosta,001,2022-04-28_21h16.54.612,classification_task,2021.2.3,Win32,60.14675809,5f264332488e13372281c1c8,626b377229c10585ec392f8a,626b3c40b0c628ea2af49a9c,,,,,,,,,,,,,,,,,,,,,,,l,1,0.8117,"[""0.064"",""0.220"",""0.463"",""0.267""]","[1,1,1,0]",0,19,19,19,1,1,0,,,0,FALSE,,,,,,,,,,,,,,,,,,,,,,,,,,,,,,
,Vania Acosta,001,2022-04-28_21h16.54.612,classification_task,2021.2.3,Win32,60.14675809,5f264332488e13372281c1c8,626b377229c10585ec392f8a,626b3c40b0c628ea2af49a9c,,,,,,,,,,,,,,,,,,,,,,,a,1,0.7412,"[""0.668"",""0.359"",""0.869"",""0.954""]","[0,1,1,1]",0,20,20,20,1,0,1,,,0,FALSE,,,,,,,,,,,,,,,,,,,,,,,,,,,,,,
,Vania Acosta,001,2022-04-28_21h16.54.612,classification_task,2021.2.3,Win32,60.14675809,5f264332488e13372281c1c8,626b377229c10585ec392f8a,626b3c40b0c628ea2af49a9c,,,,,,,,,,,,,,,,,,,,,,,a,0,1.5778,"[""0.064"",""0.147"",""0.463"",""0.822""]","[1,0,1,1]",0,21,21,21,1,1,0,,,0,FALSE,,,,,,,,,,,,,,,,,,,,,,,,,,,,,,
,Vania Acosta,001,2022-04-28_21h16.54.612,classification_task,2021.2.3,Win32,60.14675809,5f264332488e13372281c1c8,626b377229c10585ec392f8a,626b3c40b0c628ea2af49a9c,,,,,,,,,,,,,,,,,,,,,,,l,0,0.8952,"[""0.267"",""0.534"",""0.568"",""0.910""]","[0,1,1,1]",0,22,22,22,1,0,0,,,0,FALSE,,,,,,,,,,,,,,,,,,,,,,,,,,,,,,
,Vania Acosta,001,2022-04-28_21h16.54.612,classification_task,2021.2.3,Win32,60.14675809,5f264332488e13372281c1c8,626b377229c10585ec392f8a,626b3c40b0c628ea2af49a9c,,,,,,,,,,,,,,,,,,,,,,,l,1,1.3468,"[""0.107"",""0.394"",""0.604"",""0.255""]","[1,1,1,0]",0,23,23,23,1,1,1,,,0,FALSE,,,,,,,,,,,,,,,,,,,,,,,,,,,,,,
,Vania Acosta,001,2022-04-28_21h16.54.612,classification_task,2021.2.3,Win32,60.14675809,5f264332488e13372281c1c8,626b377229c10585ec392f8a,626b3c40b0c628ea2af49a9c,,,,,,,,,,,,,,,,,,,,,,,a,1,1.3615,"[""0.182"",""0.359"",""0.680"",""0.954""]","[1,1,0,1]",0,24,24,24,1,0,1,,,0,FALSE,,,,,,,,,,,,,,,,,,,,,,,,,,,,,,
,Vania Acosta,001,2022-04-28_21h16.54.612,classification_task,2021.2.3,Win32,60.14675809,5f264332488e13372281c1c8,626b377229c10585ec392f8a,626b3c40b0c628ea2af49a9c,,,,,,,,,,,,,,,,,,,,,,,a,1,1.4812,"[""0.182"",""0.693"",""0.869"",""0.954""]","[1,0,1,1]",0,25,25,25,1,0,1,,,0,FALSE,,,,,,,,,,,,,,,,,,,,,,,,,,,,,,
,Vania Acosta,001,2022-04-28_21h16.54.612,classification_task,2021.2.3,Win32,60.14675809,5f264332488e13372281c1c8,626b377229c10585ec392f8a,626b3c40b0c628ea2af49a9c,,,,,,,,,,,,,,,,,,,,,,,a,1,1.1566,"[""0.308"",""0.534"",""0.568"",""0.642""]","[1,1,1,0]",0,26,26,26,1,0,0,,,0,FALSE,,,,,,,,,,,,,,,,,,,,,,,,,,,,,,
,Vania Acosta,001,2022-04-28_21h16.54.612,classification_task,2021.2.3,Win32,60.14675809,5f264332488e13372281c1c8,626b377229c10585ec392f8a,626b3c40b0c628ea2af49a9c,,,,,,,,,,,,,,,,,,,,,,,l,1,1.5481,"[""0.259"",""0.394"",""0.604"",""0.766""]","[0,1,1,1]",0,27,27,27,1,1,1,,,0,FALSE,,,,,,,,,,,,,,,,,,,,,,,,,,,,,,
,Vania Acosta,001,2022-04-28_21h16.54.612,classification_task,2021.2.3,Win32,60.14675809,5f264332488e13372281c1c8,626b377229c10585ec392f8a,626b3c40b0c628ea2af49a9c,,,,,,,,,,,,,,,,,,,,,,,l,0,1.5949,"[""0.308"",""0.706"",""0.568"",""0.910""]","[1,0,1,1]",0,28,28,28,1,0,0,,,0,FALSE,,,,,,,,,,,,,,,,,,,,,,,,,,,,,,
,Vania Acosta,001,2022-04-28_21h16.54.612,classification_task,2021.2.3,Win32,60.14675809,5f264332488e13372281c1c8,626b377229c10585ec392f8a,626b3c40b0c628ea2af49a9c,,,,,,,,,,,,,,,,,,,,,,,l,1,0.9158,"[""0.064"",""0.220"",""0.663"",""0.822""]","[1,1,0,1]",0,29,29,29,1,1,0,,,0,FALSE,,,,,,,,,,,,,,,,,,,,,,,,,,,,,,
,Vania Acosta,001,2022-04-28_21h16.54.612,classification_task,2021.2.3,Win32,60.14675809,5f264332488e13372281c1c8,626b377229c10585ec392f8a,626b3c40b0c628ea2af49a9c,,,,,,,,,,,,,,,,,,,,,,,a,1,1.0118,"[""0.308"",""0.534"",""0.255"",""0.910""]","[1,1,0,1]",0,30,30,30,1,0,0,,,0,FALSE,,,,,,,,,,,,,,,,,,,,,,,,,,,,,,
,Vania Acosta,001,2022-04-28_21h16.54.612,classification_task,2021.2.3,Win32,60.14675809,5f264332488e13372281c1c8,626b377229c10585ec392f8a,626b3c40b0c628ea2af49a9c,,,,,,,,,,,,,,,,,,,,,,,l,0,2.742,"[""0.182"",""0.359"",""0.869"",""0.270""]","[1,1,1,0]",0,31,31,31,1,0,1,,,0,FALSE,,,,,,,,,,,,,,,,,,,,,,,,,,,,,,
,Vania Acosta,001,2022-04-28_21h16.54.612,classification_task,2021.2.3,Win32,60.14675809,5f264332488e13372281c1c8,626b377229c10585ec392f8a,626b3c40b0c628ea2af49a9c,,,,,,,,,,,,,,,,,,,,,,,a,0,1.4011,"[""0.064"",""0.270"",""0.463"",""0.822""]","[1,0,1,1]",0,32,32,32,1,1,0,,,0,FALSE,,,,,,,,,,,,,,,,,,,,,,,,,,,,,,
,Vania Acosta,001,2022-04-28_21h16.54.612,classification_task,2021.2.3,Win32,60.14675809,5f264332488e13372281c1c8,626b377229c10585ec392f8a,626b3c40b0c628ea2af49a9c,,,,,,,,,,,,,,,,,,,,,,,a,0,1.4326,"[""0.642"",""0.394"",""0.604"",""0.766""]","[0,1,1,1]",0,33,33,33,1,1,1,,,0,FALSE,,,,,,,,,,,,,,,,,,,,,,,,,,,,,,
,Vania Acosta,001,2022-04-28_21h16.54.612,classification_task,2021.2.3,Win32,60.14675809,5f264332488e13372281c1c8,626b377229c10585ec392f8a,626b3c40b0c628ea2af49a9c,,,,,,,,,,,,,,,,,,,,,,,l,1,1.1614,"[""0.107"",""0.394"",""0.642"",""0.766""]","[1,1,0,1]",0,34,34,34,1,1,1,,,0,FALSE,,,,,,,,,,,,,,,,,,,,,,,,,,,,,,
,Vania Acosta,001,2022-04-28_21h16.54.612,classification_task,2021.2.3,Win32,60.14675809,5f264332488e13372281c1c8,626b377229c10585ec392f8a,626b3c40b0c628ea2af49a9c,,,,,,,,,,,,,,,,,,,,,,,l,0,0.9402,"[""0.308"",""0.534"",""0.568"",""0.259""]","[1,1,1,0]",0,35,35,35,1,0,0,,,0,FALSE,,,,,,,,,,,,,,,,,,,,,,,,,,,,,,
,Vania Acosta,001,2022-04-28_21h16.54.612,classification_task,2021.2.3,Win32,60.14675809,5f264332488e13372281c1c8,626b377229c10585ec392f8a,626b3c40b0c628ea2af49a9c,,,,,,,,,,,,,,,,,,,,,,,a,1,1.1152,"[""0.308"",""0.668"",""0.568"",""0.910""]","[1,0,1,1]",0,36,36,36,1,0,0,,,0,FALSE,,,,,,,,,,,,,,,,,,,,,,,,,,,,,,
,Vania Acosta,001,2022-04-28_21h16.54.612,classification_task,2021.2.3,Win32,60.14675809,5f264332488e13372281c1c8,626b377229c10585ec392f8a,626b3c40b0c628ea2af49a9c,,,,,,,,,,,,,,,,,,,,,,,l,0,1.52,"[""0.668"",""0.534"",""0.568"",""0.910""]","[0,1,1,1]",0,37,37,37,1,0,0,,,0,FALSE,,,,,,,,,,,,,,,,,,,,,,,,,,,,,,
,Vania Acosta,001,2022-04-28_21h16.54.612,classification_task,2021.2.3,Win32,60.14675809,5f264332488e13372281c1c8,626b377229c10585ec392f8a,626b3c40b0c628ea2af49a9c,,,,,,,,,,,,,,,,,,,,,,,l,0,3.2465,"[""0.733"",""0.359"",""0.869"",""0.954""]","[0,1,1,1]",0,38,38,38,1,0,1,,,0,FALSE,,,,,,,,,,,,,,,,,,,,,,,,,,,,,,
,Vania Acosta,001,2022-04-28_21h16.54.612,classification_task,2021.2.3,Win32,60.14675809,5f264332488e13372281c1c8,626b377229c10585ec392f8a,626b3c40b0c628ea2af49a9c,,,,,,,,,,,,,,,,,,,,,,,l,0,2.4541,"[""0.182"",""0.680"",""0.869"",""0.954""]","[1,0,1,1]",0,39,39,39,1,0,1,,,0,FALSE,,,,,,,,,,,,,,,,,,,,,,,,,,,,,,
,Vania Acosta,001,2022-04-28_21h16.54.612,classification_task,2021.2.3,Win32,60.14675809,5f264332488e13372281c1c8,626b377229c10585ec392f8a,626b3c40b0c628ea2af49a9c,,,,,,,,,,,,,,,,,,,,,,,a,1,1.3671,"[""0.182"",""0.359"",""0.668"",""0.954""]","[1,1,0,1]",0,40,40,40,1,0,1,,,0,FALSE,,,,,,,,,,,,,,,,,,,,,,,,,,,,,,
,Vania Acosta,001,2022-04-28_21h16.54.612,classification_task,2021.2.3,Win32,60.14675809,5f264332488e13372281c1c8,626b377229c10585ec392f8a,626b3c40b0c628ea2af49a9c,,,,,,,,,,,,,,,,,,,,,,,a,1,0.5687,"[""0.182"",""0.359"",""0.869"",""0.733""]","[1,1,1,0]",0,41,41,41,1,0,1,,,0,FALSE,,,,,,,,,,,,,,,,,,,,,,,,,,,,,,
,Vania Acosta,001,2022-04-28_21h16.54.612,classification_task,2021.2.3,Win32,60.14675809,5f264332488e13372281c1c8,626b377229c10585ec392f8a,626b3c40b0c628ea2af49a9c,,,,,,,,,,,,,,,,,,,,,,,a,0,1.5727,"[""0.722"",""0.220"",""0.463"",""0.822""]","[0,1,1,1]",0,42,42,42,1,1,0,,,0,FALSE,,,,,,,,,,,,,,,,,,,,,,,,,,,,,,
,Vania Acosta,001,2022-04-28_21h16.54.612,classification_task,2021.2.3,Win32,60.14675809,5f264332488e13372281c1c8,626b377229c10585ec392f8a,626b3c40b0c628ea2af49a9c,,,,,,,,,,,,,,,,,,,,,,,l,1,0.915,"[""0.107"",""0.394"",""0.604"",""0.270""]","[1,1,1,0]",0,43,43,43,1,1,1,,,0,FALSE,,,,,,,,,,,,,,,,,,,,,,,,,,,,,,
,Vania Acosta,001,2022-04-28_21h16.54.612,classification_task,2021.2.3,Win32,60.14675809,5f264332488e13372281c1c8,626b377229c10585ec392f8a,626b3c40b0c628ea2af49a9c,,,,,,,,,,,,,,,,,,,,,,,a,0,1.193,"[""0.107"",""0.680"",""0.604"",""0.766""]","[1,0,1,1]",0,44,44,44,1,1,1,,,0,FALSE,,,,,,,,,,,,,,,,,,,,,,,,,,,,,,
,Vania Acosta,001,2022-04-28_21h16.54.612,classification_task,2021.2.3,Win32,60.14675809,5f264332488e13372281c1c8,626b377229c10585ec392f8a,626b3c40b0c628ea2af49a9c,,,,,,,,,,,,,,,,,,,,,,,a,1,0.8931,"[""0.308"",""0.534"",""0.680"",""0.910""]","[1,1,0,1]",0,45,45,45,1,0,0,,,0,FALSE,,,,,,,,,,,,,,,,,,,,,,,,,,,,,,
,Vania Acosta,001,2022-04-28_21h16.54.612,classification_task,2021.2.3,Win32,60.14675809,5f264332488e13372281c1c8,626b377229c10585ec392f8a,626b3c40b0c628ea2af49a9c,,,,,,,,,,,,,,,,,,,,,,,l,1,0.8423,"[""0.064"",""0.220"",""0.463"",""0.147""]","[1,1,1,0]",0,46,46,46,1,1,0,,,0,FALSE,,,,,,,,,,,,,,,,,,,,,,,,,,,,,,
,Vania Acosta,001,2022-04-28_21h16.54.612,classification_task,2021.2.3,Win32,60.14675809,5f264332488e13372281c1c8,626b377229c10585ec392f8a,626b3c40b0c628ea2af49a9c,,,,,,,,,,,,,,,,,,,,,,,a,0,1.0088,"[""0.064"",""0.220"",""0.668"",""0.822""]","[1,1,0,1]",0,47,47,47,1,1,0,,,0,FALSE,,,,,,,,,,,,,,,,,,,,,,,,,,,,,,
,Vania Acosta,001,2022-04-28_21h16.54.612,classification_task,2021.2.3,Win32,60.14675809,5f264332488e13372281c1c8,626b377229c10585ec392f8a,626b3c40b0c628ea2af49a9c,,,,,,,,,,,,,,,,,,,,,,,l,1,1.0757,"[""0.107"",""0.706"",""0.604"",""0.766""]","[1,0,1,1]",0,48,48,48,1,1,1,,,0,FALSE,,,,,,,,,,,,,,,,,,,,,,,,,,,,,,
,Vania Acosta,001,2022-04-28_21h16.54.612,classification_task,2021.2.3,Win32,60.14675809,5f264332488e13372281c1c8,626b377229c10585ec392f8a,626b3c40b0c628ea2af49a9c,,,,,,,,,,,,,,,,,,,,,,,a,1,0.9622,"[""0.182"",""0.359"",""0.706"",""0.954""]","[1,1,0,1]",0,49,49,49,1,0,1,,,0,FALSE,,,,,,,,,,,,,,,,,,,,,,,,,,,,,,
,Vania Acosta,001,2022-04-28_21h16.54.612,classification_task,2021.2.3,Win32,60.14675809,5f264332488e13372281c1c8,626b377229c10585ec392f8a,626b3c40b0c628ea2af49a9c,,,,,,,,,,,,,,,,,,,,,,,a,0,1.4425,"[""0.064"",""0.220"",""0.267"",""0.822""]","[1,1,0,1]",0,50,50,50,1,1,0,,,0,FALSE,,,,,,,,,,,,,,,,,,,,,,,,,,,,,,
,Vania Acosta,001,2022-04-28_21h16.54.612,classification_task,2021.2.3,Win32,60.14675809,5f264332488e13372281c1c8,626b377229c10585ec392f8a,626b3c40b0c628ea2af49a9c,,,,,,,,,,,,,,,,,,,,,,,a,0,0.7723,"[""0.029"",""0.220"",""0.463"",""0.822""]","[0,1,1,1]",0,51,51,51,1,1,0,,,0,FALSE,,,,,,,,,,,,,,,,,,,,,,,,,,,,,,
,Vania Acosta,001,2022-04-28_21h16.54.612,classification_task,2021.2.3,Win32,60.14675809,5f264332488e13372281c1c8,626b377229c10585ec392f8a,626b3c40b0c628ea2af49a9c,,,,,,,,,,,,,,,,,,,,,,,l,1,1.7097,"[""0.107"",""0.394"",""0.668"",""0.766""]","[1,1,0,1]",0,52,52,52,1,1,1,,,0,FALSE,,,,,,,,,,,,,,,,,,,,,,,,,,,,,,
,Vania Acosta,001,2022-04-28_21h16.54.612,classification_task,2021.2.3,Win32,60.14675809,5f264332488e13372281c1c8,626b377229c10585ec392f8a,626b3c40b0c628ea2af49a9c,,,,,,,,,,,,,,,,,,,,,,,l,0,1.226,"[""0.308"",""0.680"",""0.568"",""0.910""]","[1,0,1,1]",0,53,53,53,1,0,0,,,0,FALSE,,,,,,,,,,,,,,,,,,,,,,,,,,,,,,
,Vania Acosta,001,2022-04-28_21h16.54.612,classification_task,2021.2.3,Win32,60.14675809,5f264332488e13372281c1c8,626b377229c10585ec392f8a,626b3c40b0c628ea2af49a9c,,,,,,,,,,,,,,,,,,,,,,,l,0,1.9148,"[""0.308"",""0.534"",""0.568"",""0.146""]","[1,1,1,0]",0,54,54,54,1,0,0,,,0,FALSE,,,,,,,,,,,,,,,,,,,,,,,,,,,,,,
,Vania Acosta,001,2022-04-28_21h16.54.612,classification_task,2021.2.3,Win32,60.14675809,5f264332488e13372281c1c8,626b377229c10585ec392f8a,626b3c40b0c628ea2af49a9c,,,,,,,,,,,,,,,,,,,,,,,a,0,0.8115,"[""0.064"",""0.220"",""0.463"",""0.663""]","[1,1,1,0]",0,55,55,55,1,1,0,,,0,FALSE,,,,,,,,,,,,,,,,,,,,,,,,,,,,,,
,Vania Acosta,001,2022-04-28_21h16.54.612,classification_task,2021.2.3,Win32,60.14675809,5f264332488e13372281c1c8,626b377229c10585ec392f8a,626b3c40b0c628ea2af49a9c,,,,,,,,,,,,,,,,,,,,,,,l,0,0.8465,"[""0.182"",""0.680"",""0.869"",""0.954""]","[1,0,1,1]",0,56,56,56,1,0,1,,,0,FALSE,,,,,,,,,,,,,,,,,,,,,,,,,,,,,,
,Vania Acosta,001,2022-04-28_21h16.54.612,classification_task,2021.2.3,Win32,60.14675809,5f264332488e13372281c1c8,626b377229c10585ec392f8a,626b3c40b0c628ea2af49a9c,,,,,,,,,,,,,,,,,,,,,,,l,0,1.4235,"[""0.029"",""0.534"",""0.568"",""0.910""]","[0,1,1,1]",0,57,57,57,1,0,0,,,0,FALSE,,,,,,,,,,,,,,,,,,,,,,,,,,,,,,
,Vania Acosta,001,2022-04-28_21h16.54.612,classification_task,2021.2.3,Win32,60.14675809,5f264332488e13372281c1c8,626b377229c10585ec392f8a,626b3c40b0c628ea2af49a9c,,,,,,,,,,,,,,,,,,,,,,,a,1,0.7824,"[""0.182"",""0.359"",""0.869"",""0.733""]","[1,1,1,0]",0,58,58,58,1,0,1,,,0,FALSE,,,,,,,,,,,,,,,,,,,,,,,,,,,,,,
,Vania Acosta,001,2022-04-28_21h16.54.612,classification_task,2021.2.3,Win32,60.14675809,5f264332488e13372281c1c8,626b377229c10585ec392f8a,626b3c40b0c628ea2af49a9c,,,,,,,,,,,,,,,,,,,,,,,l,0,0.7577,"[""0.668"",""0.359"",""0.869"",""0.954""]","[0,1,1,1]",0,59,59,59,1,0,1,,,0,FALSE,,,,,,,,,,,,,,,,,,,,,,,,,,,,,,
,Vania Acosta,001,2022-04-28_21h16.54.612,classification_task,2021.2.3,Win32,60.14675809,5f264332488e13372281c1c8,626b377229c10585ec392f8a,626b3c40b0c628ea2af49a9c,,,,,,,,,,,,,,,,,,,,,,,a,0,0.9578,"[""0.107"",""0.394"",""0.604"",""0.255""]","[1,1,1,0]",0,60,60,60,1,1,1,,,0,FALSE,,,,,,,,,,,,,,,,,,,,,,,,,,,,,,
,Vania Acosta,001,2022-04-28_21h16.54.612,classification_task,2021.2.3,Win32,60.14675809,5f264332488e13372281c1c8,626b377229c10585ec392f8a,626b3c40b0c628ea2af49a9c,,,,,,,,,,,,,,,,,,,,,,,l,0,1.1758,"[""0.308"",""0.534"",""0.733"",""0.910""]","[1,1,0,1]",0,61,61,61,1,0,0,,,0,FALSE,,,,,,,,,,,,,,,,,,,,,,,,,,,,,,
,Vania Acosta,001,2022-04-28_21h16.54.612,classification_task,2021.2.3,Win32,60.14675809,5f264332488e13372281c1c8,626b377229c10585ec392f8a,626b3c40b0c628ea2af49a9c,,,,,,,,,,,,,,,,,,,,,,,a,0,1.6914,"[""0.064"",""0.706"",""0.463"",""0.822""]","[1,0,1,1]",0,62,62,62,1,1,0,,,0,FALSE,,,,,,,,,,,,,,,,,,,,,,,,,,,,,,
,Vania Acosta,001,2022-04-28_21h16.54.612,classification_task,2021.2.3,Win32,60.14675809,5f264332488e13372281c1c8,626b377229c10585ec392f8a,626b3c40b0c628ea2af49a9c,,,,,,,,,,,,,,,,,,,,,,,l,1,1.1127,"[""0.142"",""0.394"",""0.604"",""0.766""]","[0,1,1,1]",0,63,63,63,1,1,1,,,0,FALSE,,,,,,,,,,,,,,,,,,,,,,,,,,,,,,
,Vania Acosta,001,2022-04-28_21h16.54.612,classification_task,2021.2.3,Win32,60.14675809,5f264332488e13372281c1c8,626b377229c10585ec392f8a,626b3c40b0c628ea2af49a9c,,,,,,,,,,,,,,,,,,,,,,,,,,,,,,,,,,,,,,,0, ,,0,2.726521164,169.5346,0,2,2,2,1,2,3,,,,,,,,,,,,,,,,,
,Vania Acosta,001,2022-04-28_21h16.54.612,classification_task,2021.2.3,Win32,60.14675809,5f264332488e13372281c1c8,626b377229c10585ec392f8a,626b3c40b0c628ea2af49a9c,,,,,,,,,,,,,,,,,,,,,,,,,,,,,,,,,,,,,,,1,  ,,0,9.133597884,171.9152,0,2,2,2,1,2,3,,,,,,,,,,,,,,,,,
,Vania Acosta,001,2022-04-28_21h16.54.612,classification_task,2021.2.3,Win32,60.14675809,5f264332488e13372281c1c8,626b377229c10585ec392f8a,626b3c40b0c628ea2af49a9c,,,,,,,,,,,,,,,,,,,,,,,,,,,,,,,,,,,,,,,2,  ,,0,10,175.2773,0,2,2,2,1,2,3,,,,,,,,,,,,,,,,,
,Vania Acosta,001,2022-04-28_21h16.54.612,classification_task,2021.2.3,Win32,60.14675809,5f264332488e13372281c1c8,626b377229c10585ec392f8a,626b3c40b0c628ea2af49a9c,,,,,,,,,,,,,,,,,,,,,,,,,,,,,,,,,,,,,,,,,,,,,0,2,2,2,1,,3,,,,,,,,,,,,,,,,,
,Vania Acosta,001,2022-04-28_21h16.54.612,classification_task,2021.2.3,Win32,60.14675809,5f264332488e13372281c1c8,626b377229c10585ec392f8a,626b3c40b0c628ea2af49a9c,,,,,,,,,,,,,,,,,,,,,,,,,,,,,,,,,,,,,,,,,,,,,,,,,,,,,I believe the aid is a competent performer,,0.7,0,4,926.7077,0,0,0,0,1,0,,,,
,Vania Acosta,001,2022-04-28_21h16.54.612,classification_task,2021.2.3,Win32,60.14675809,5f264332488e13372281c1c8,626b377229c10585ec392f8a,626b3c40b0c628ea2af49a9c,,,,,,,,,,,,,,,,,,,,,,,,,,,,,,,,,,,,,,,,,,,,,,,,,,,,,I trust the aid,,0.7,0,5,924.413,0,0,0,0,1,0,,,,
,Vania Acosta,001,2022-04-28_21h16.54.612,classification_task,2021.2.3,Win32,60.14675809,5f264332488e13372281c1c8,626b377229c10585ec392f8a,626b3c40b0c628ea2af49a9c,,,,,,,,,,,,,,,,,,,,,,,,,,,,,,,,,,,,,,,,,,,,,,,,,,,,,I have confidence in the advice given by the aid,,0.7,0,5,925.5177,0,0,0,0,1,0,,,,
,Vania Acosta,001,2022-04-28_21h16.54.612,classification_task,2021.2.3,Win32,60.14675809,5f264332488e13372281c1c8,626b377229c10585ec392f8a,626b3c40b0c628ea2af49a9c,,,,,,,,,,,,,,,,,,,,,,,,,,,,,,,,,,,,,,,,,,,,,,,,,,,,,I can depend on the aid,,0.7,0,5,928.5692,0,0,0,0,1,0,,,,
,Vania Acosta,001,2022-04-28_21h16.54.612,classification_task,2021.2.3,Win32,60.14675809,5f264332488e13372281c1c8,626b377229c10585ec392f8a,626b3c40b0c628ea2af49a9c,,,,,,,,,,,,,,,,,,,,,,,,,,,,,,,,,,,,,,,,,,,,,,,,,,,,,I can rely on the aid to behave in consistent ways,,0.7,0,5,931.8253,0,0,0,0,1,0,,,,
,Vania Acosta,001,2022-04-28_21h16.54.612,classification_task,2021.2.3,Win32,60.14675809,5f264332488e13372281c1c8,626b377229c10585ec392f8a,626b3c40b0c628ea2af49a9c,,,,,,,,,,,,,,,,,,,,,,,,,,,,,,,,,,,,,,,,,,,,,,,,,,,,,I can rely on the aid to do its best every time I take its advice,,0.7,0,5,936.2673,0,0,0,0,1,0,,,,
,Vania Acosta,001,2022-04-28_21h16.54.612,classification_task,2021.2.3,Win32,60.14675809,5f264332488e13372281c1c8,626b377229c10585ec392f8a,626b3c40b0c628ea2af49a9c,,,,,,,,,,,,,,,,,,,,,,,,,,,,,,,,,,,,,,,,,,,,,,,,,,,,,"On trials you completed with assistance from the aid, how frequently did you think the aid was correct?",,0.7,0,95% of answers,,0,0,0,0,1,0,,,,
,Vania Acosta,001,2022-04-28_21h16.54.612,classification_task,2021.2.3,Win32,60.14675809,5f264332488e13372281c1c8,626b377229c10585ec392f8a,626b3c40b0c628ea2af49a9c,,,,,,,,,,,,,,,,,,,,,,,,,,,,,,,,,,,,,,,,,,,,,,,,,,,,,"On trials you completed without the aid, how frequently did you think you were correct?",,0.7,0,40% of answers,,0,0,0,0,1,0,,,,
,Vania Acosta,001,2022-04-28_21h16.54.612,classification_task,2021.2.3,Win32,60.14675809,5f264332488e13372281c1c8,626b377229c10585ec392f8a,626b3c40b0c628ea2af49a9c,,,,,,,,,,,,,,,,,,,,,,,,,,,,,,,,,,,,,,,,,,,,,,,,,,,,,,,,,,,0,0,0,0,1,,,,,
,Vania Acosta,001,2022-04-28_21h16.54.612,classification_task,2021.2.3,Win32,60.14675809,5f264332488e13372281c1c8,626b377229c10585ec392f8a,626b3c40b0c628ea2af49a9c,,,,,,,,,,,,,,,,,,,,,,,,,,,,,,,,,,,,,,,,,,,,,,,,,,,,,,,,,,,,,,,,,space,14.0236,990.4686,
,Vania Acosta,001,2022-04-28_21h16.54.612,classification_task,2021.2.3,Win32,60.14675809,5f264332488e13372281c1c8,626b377229c10585ec392f8a,626b3c40b0c628ea2af49a9c,,,,,,,,,,,,,,,,,,,,,,,,,,,,,,,,,,,,,,,,,,,,,,,,,,,,,,,,,,,,,,,,,,,,"Mozilla/5.0 (Windows NT 10.0; Win64; x64) AppleWebKit/537.36 (KHTML, like Gecko) Chrome/100.0.4896.127 Safari/537.36"
